time,seconds_elapsed,z,y,x
1782776453559198000,0.182197998046875,0.5644394755363464,0.19914206862449646,0.6951646208763123
1782776453569201400,0.192201416015625,0.5668829679489136,0.14966198801994324,0.7061602473258972
1782776453579232000,0.20223193359375,0.5271766781806946,0.13439035415649414,0.6737843751907349
1782776453589220900,0.212220947265625,0.4648684561252594,0.13744467496871948,0.6139195561408997
1782776453599220700,0.222220703125,0.3897320330142975,0.13744467496871948,0.5351179838180542
1782776453609210000,0.232210205078125,0.3127630054950714,0.1270599663257599,0.4440990388393402
1782776453619241200,0.2422412109375,0.24617868661880493,0.08796459436416626,0.3536909818649292
1782776453629199000,0.25219921875,0.19425514340400696,0.021380282938480377,0.2718350291252136
1782776453639230000,0.26222998046875,0.1563815027475357,-0.06719517707824707,0.2021963894367218
1782776453649218300,0.27221826171875,0.1313360333442688,-0.15882496535778046,0.14294247329235077
1782776453659219200,0.28221923828125,0.12461651116609573,-0.22602014243602753,0.10018189996480942
1782776453669207600,0.29220751953125,0.12889257073402405,-0.2480112910270691,0.07147123664617538
1782776453679238700,0.30223876953125,0.14538592100143433,-0.23945917189121246,0.04764748737215996
1782776453689196500,0.312196533203125,0.14905111491680145,-0.22540926933288574,0.04642575979232788
1782776453699227600,0.3222275390625,0.14294247329235077,-0.22418753802776337,0.051312681287527084
1782776453709216300,0.33221630859375,0.12828169763088226,-0.24556782841682434,0.05375614017248154
1782776453719216600,0.342216552734375,0.10812314599752426,-0.2822197377681732,0.05314527451992035
1782776453729205000,0.352205078125,0.07819075137376785,-0.3243694305419922,0.05253441259264946
1782776453739236400,0.362236328125,0.04092797264456749,-0.3677408695220947,0.05497787147760391
1782776453749194000,0.372194091796875,0.0006108652451075613,-0.413555771112442,0.05925392732024193
1782776453759225300,0.382225341796875,-0.03726277872920036,-0.4550946056842804,0.06475171446800232
1782776453769213700,0.392213623046875,-0.06780604273080826,-0.4954117238521576,0.06780604273080826
1782776453779244800,0.402244873046875,-0.1014036312699318,-0.5345070958137512,0.05803219974040985
1782776453789202700,0.41220263671875,-0.15027284622192383,-0.5809328556060791,0.007941247895359993
1782776453799233300,0.4222333984375,-0.2028072625398636,-0.6212499737739563,-0.07330382615327835
1782776453809222400,0.432222412109375,-0.25961771607398987,-0.6279694437980652,-0.17287486791610718
1782776453819221000,0.442220947265625,-0.32131510972976685,-0.5992587804794312,-0.2767219543457031
1782776453829210600,0.452210693359375,-0.38667771220207214,-0.5363397002220154,-0.37690386176109314
1782776453839241000,0.462240966796875,-0.4495968222618103,-0.46303585171699524,-0.4605923891067505
1782776453849199600,0.47219970703125,-0.5112941861152649,-0.40072759985923767,-0.5216789245605469
1782776453859230000,0.48222998046875,-0.5583308339118958,-0.3597996234893799,-0.5540547966957092
1782776453869219300,0.49221923828125,-0.5845980644226074,-0.3378084897994995,-0.5546656250953674
1782776453879220000,0.502219970703125,-0.5833762884140015,-0.3139847218990326,-0.5296201705932617
1782776453889208000,0.5122080078125,-0.5552765130996704,-0.24434609711170197,-0.4917465150356293
1782776453899239400,0.522239501953125,-0.5186246037483215,-0.19975294172763824,-0.475253164768219
1782776453909197000,0.532197021484375,-0.48197266459465027,-0.2926044464111328,-0.5021312236785889
1782776453919228200,0.542228271484375,-0.484416127204895,-0.47280970215797424,-0.5644394755363464
1782776453929217300,0.55221728515625,-0.5510004758834839,-0.5949827432632446,-0.6524040699005127
1782776453939217200,0.562217041015625,-0.6597344875335693,-0.6994407176971436,-0.7666358947753906
1782776453949206300,0.572206298828125,-0.7654141783714294,-0.7562511563301086,-0.8399397134780884
1782776453959236900,0.58223681640625,-0.8546004891395569,-0.6707300543785095,-0.8417723178863525
1782776453969195300,0.5921953125,-0.93095862865448,-0.5381723046302795,-0.7843509912490845
1782776453979226000,0.60222607421875,-0.9682214260101318,-0.44287729263305664,-0.6908885836601257
1782776453989215000,0.612215087890625,-0.9669997096061707,-0.4141666293144226,-0.5845980644226074
1782776453999214600,0.622214599609375,-0.9352346658706665,-0.4453207552433014,-0.47769662737846375
1782776454009204000,0.632203857421875,-0.8869763612747192,-0.48808133602142334,-0.36224308609962463
1782776454019234300,0.642234375,-0.8393288254737854,-0.5057964324951172,-0.24678955972194672
1782776454029223400,0.652223388671875,-0.7935139536857605,-0.4709770977497101,-0.1368338167667389
1782776454039223600,0.6622236328125,-0.7544185519218445,-0.38606682419776917,-0.03848451003432274
1782776454049212400,0.67221240234375,-0.7159340381622314,-0.25595253705978394,0.04703662544488907
1782776454059243000,0.682242919921875,-0.6896668672561646,-0.11484266817569733,0.12095131725072861
1782776454069201200,0.692201171875,-0.6792821288108826,0.004886921960860491,0.1814269721508026
1782776454079232000,0.70223193359375,-0.6786713004112244,0.07147123664617538,0.23396138846874237
1782776454089220900,0.712220947265625,-0.6731734871864319,0.07880161702632904,0.2785545587539673
1782776454099221000,0.722220947265625,-0.656069278717041,-0.0006108652451075613,0.32681289315223694
1782776454109210000,0.732210205078125,-0.6505714654922485,-0.07208210229873657,0.34086281061172485
1782776454119240400,0.742240478515625,-0.656069278717041,-0.12034045159816742,0.3378084897994995
1782776454129199000,0.75219921875,-0.6780604124069214,-0.13500121235847473,0.3176499307155609
1782776454139229700,0.762229736328125,-0.7159340381622314,-0.11484266817569733,0.27977627515792847
1782776454149218300,0.77221826171875,-0.7654141783714294,-0.06536258012056351,0.21991148591041565
1782776454159218700,0.78221875,-0.8228355050086975,-0.005497787147760391,0.1362229436635971
1782776454169207600,0.79220751953125,-0.8784242272377014,0.04581489413976669,0.028099801391363144
1782776454179238000,0.80223779296875,-0.912021815776825,0.0910189226269722,-0.08185594528913498
1782776454189196500,0.812196533203125,-0.9156870245933533,0.13988813757896423,-0.16432274878025055
1782776454199227100,0.82222705078125,-0.8985827565193176,0.19364428520202637,-0.2076941877603531
1782776454209216000,0.832216064453125,-0.8655960559844971,0.23945917189121246,-0.20525072515010834
1782776454219217000,0.842216796875,-0.8161159753799438,0.26511552929878235,-0.1722639948129654
1782776454229205000,0.852205078125,-0.7507534027099609,0.2675589919090271,-0.11362093687057495
1782776454239236400,0.862236328125,-0.6743952035903931,0.24190263450145721,-0.048258353024721146
1782776454249194000,0.872194091796875,-0.5876523852348328,0.19547687470912933,0.015882495790719986
1782776454259225300,0.882225341796875,-0.4996877610683441,0.13316862285137177,0.06414084881544113
1782776454269213700,0.892213623046875,-0.4331034719944,0.06780604273080826,0.0910189226269722
1782776454279244800,0.902244873046875,-0.39645153284072876,0.012217304669320583,0.09162978827953339
1782776454289202700,0.91220263671875,-0.38240164518356323,-0.016493361443281174,0.08124507963657379
1782776454299233300,0.9222333984375,-0.3854559659957886,-0.02871066704392433,0.06352998316287994
1782776454309222100,0.93222216796875,-0.39706242084503174,-0.036651913076639175,0.03481931984424591
1782776454319222000,0.942221923828125,-0.4080579876899719,-0.04153883829712868,-0.00855211354792118
1782776454329211100,0.952211181640625,-0.42210787534713745,-0.04703662544488907,-0.0659734457731247
1782776454339241700,0.96224169921875,-0.44104471802711487,-0.048258353024721146,-0.1313360333442688
1782776454349200100,0.9722001953125,-0.46303585171699524,-0.05009094998240471,-0.1918116807937622
1782776454359231000,0.98223095703125,-0.47830748558044434,-0.024434609338641167,-0.23884831368923187
1782776454369219600,0.992219482421875,-0.4789183437824249,0.031154127791523933,-0.2675589919090271
1782776454379220500,1.002220458984375,-0.46364670991897583,0.08857546001672745,-0.2883284091949463
1782776454389208800,1.012208740234375,-0.4288274049758911,0.15271630883216858,-0.2968805134296417
1782776454399240200,1.022240234375,-0.3805690407752991,0.21380282938480377,-0.2926044464111328
1782776454409197600,1.032197509765625,-0.33292156457901,0.2541199326515198,-0.2773328125476837
1782776454419229200,1.042229248046875,-0.28527405858039856,0.2626720666885376,-0.24923302233219147
1782776454429217300,1.05221728515625,-0.23090706765651703,0.24129177629947662,-0.20830504596233368
1782776454439217700,1.0622177734375,-0.17043140530586243,0.2015855312347412,-0.15882496535778046
1782776454449206300,1.072206298828125,-0.10323622822761536,0.14782938361167908,-0.10995574295520782
1782776454459237400,1.0822373046875,-0.027488935738801956,0.10018189996480942,-0.06536258012056351
1782776454469195300,1.0921953125,0.0507018156349659,0.06902777403593063,-0.02321287989616394
1782776454479226000,1.10222607421875,0.12095131725072861,0.05009094998240471,0.009773843921720982
1782776454489215000,1.112215087890625,0.18997909128665924,0.03298672288656235,0.039706241339445114
1782776454499215400,1.12221533203125,0.2638937830924988,0.06475171446800232,0.07391469180583954
1782776454509204000,1.132203857421875,0.3433062732219696,0.1814269721508026,0.10995574295520782
1782776454519235300,1.1422353515625,0.48258355259895325,0.413555771112442,0.1417207419872284
1782776454529223400,1.152223388671875,0.5729916095733643,0.46792277693748474,0.12828169763088226
1782776454539224300,1.162224365234375,0.6340781450271606,0.4098905920982361,0.08307767659425735
1782776454549212400,1.17221240234375,0.6548475623130798,0.27611109614372253,0.0024434609804302454
1782776454559243500,1.182243408203125,0.637132465839386,0.09651670604944229,-0.1160643994808197
1782776454569201400,1.192201416015625,0.5791002511978149,-0.09957103431224823,-0.26633724570274353
1782776454579232300,1.202232177734375,0.4966334402561188,-0.24190263450145721,-0.40256020426750183
1782776454589220900,1.212220947265625,0.3995058834552765,-0.25473082065582275,-0.4807509481906891
1782776454599220700,1.222220703125,0.30054569244384766,-0.2070833146572113,-0.4856378734111786
1782776454609210000,1.232210205078125,0.22663100063800812,-0.09957103431224823,-0.40683624148368835
1782776454619241700,1.24224169921875,0.18631389737129211,0.06536258012056351,-0.2535090744495392
1782776454629198800,1.25219873046875,0.19120082259178162,0.2687807083129883,-0.04459316283464432
1782776454639230700,1.262230712890625,0.2638937830924988,0.49357911944389343,0.20402899384498596
1782776454649218300,1.27221826171875,0.38667771220207214,0.7202101349830627,0.46181413531303406
1782776454659220000,1.282219970703125,0.5143485069274902,0.9004153609275818,0.6762278079986572
1782776454669209000,1.292208984375,0.617584764957428,1.0073168277740479,0.8246681094169617
1782776454679240200,1.302240234375,0.7049384713172913,1.0445796251296997,0.9193521738052368
1782776454689198000,1.312197998046875,0.7709119319915771,1.0231993198394775,0.9627236127853394
1782776454699229200,1.322229248046875,0.8093964457511902,0.9162978529930115,0.9529497623443604
1782776454709217300,1.33221728515625,0.8344419002532959,0.7165449261665344,0.8949176073074341
1782776454719218200,1.34221826171875,0.8448266386985779,0.4343251883983612,0.8014551997184753
1782776454729206500,1.35220654296875,0.8228355050086975,0.09040805697441101,0.6835582256317139
1782776454739238000,1.36223779296875,0.770301103591919,-0.28527405858039856,0.5357288122177124
1782776454749195500,1.372195556640625,0.6982190012931824,-0.6609562039375305,0.35124751925468445
1782776454759226400,1.382226318359375,0.6291912198066711,-0.9761626720428467,0.1667662113904953
1782776454769215000,1.392215087890625,0.5503895878791809,-1.1398745775222778,0.02076941914856434
1782776454779245300,1.402245361328125,0.43615779280662537,-1.1313223838806152,-0.08552113175392151
1782776454789204200,1.412204345703125,0.2968805134296417,-0.9950994849205017,-0.1411098688840866
1782776454799234600,1.422234619140625,0.16554448008537292,-0.7648032903671265,-0.13561208546161652
1782776454809223700,1.4322236328125,0.0708603709936142,-0.46303585171699524,-0.06780604273080826
1782776454819223800,1.442223876953125,0.02932153269648552,-0.15332718193531036,0.0507018156349659
1782776454829288400,1.452288330078125,0.04214970022439957,0.10018189996480942,0.1875356286764145
1782776454839243800,1.462243896484375,0.08552113175392151,0.25473082065582275,0.303600013256073
1782776454849201200,1.472201171875,0.14233160018920898,0.3127630054950714,0.3891211748123169
1782776454859232000,1.48223193359375,0.2070833146572113,0.29016098380088806,0.44837507605552673
1782776454869220600,1.492220703125,0.2736676335334778,0.23335053026676178,0.4966334402561188
1782776454879221200,1.50222119140625,0.32986724376678467,0.17348572611808777,0.5418374538421631
1782776454889209600,1.512209716796875,0.3689626157283783,0.12278391420841217,0.5791002511978149
1782776454899240700,1.52224072265625,0.39217549562454224,0.08002334833145142,0.6035348773002625
1782776454909198800,1.53219873046875,0.40133845806121826,0.04214970022439957,0.6090326309204102
1782776454919230200,1.542230224609375,0.39095374941825867,-0.003054326167330146,0.5907067060470581
1782776454929218600,1.552218505859375,0.35613444447517395,-0.05497787147760391,0.5503895878791809
1782776454939219500,1.562219482421875,0.27550023794174194,-0.1362229436635971,0.4550946056842804
1782776454949207800,1.572207763671875,0.21930062770843506,-0.19303341209888458,0.38606682419776917
1782776454959239000,1.582239013671875,0.16798794269561768,-0.24373523890972137,0.31520646810531616
1782776454969196800,1.59219677734375,0.12461651116609573,-0.29077184200286865,0.24862214922904968
1782776454979228000,1.602227783203125,0.0910189226269722,-0.33536502718925476,0.18997909128665924
1782776454989216300,1.61221630859375,0.06536258012056351,-0.37629300355911255,0.1368338167667389
1782776454999217000,1.622216796875,0.039706241339445114,-0.40622538328170776,0.09162978827953339
1782776455009205200,1.632205322265625,0.012217304669320583,-0.4184426963329315,0.05497787147760391
1782776455019236400,1.642236328125,-0.02382374368607998,-0.42577308416366577,0.018936822190880775
1782776455029224700,1.652224609375,-0.06902777403593063,-0.43188172578811646,-0.01771509274840355
1782776455039224800,1.662224853515625,-0.1215621829032898,-0.4288274049758911,-0.05009094998240471
1782776455049214000,1.6722138671875,-0.17776179313659668,-0.42088615894317627,-0.0806342139840126
1782776455059244300,1.682244384765625,-0.23884831368923187,-0.42149701714515686,-0.11484266817569733
1782776455069203000,1.692202880859375,-0.3023782968521118,-0.4294382631778717,-0.15760323405265808
1782776455079233300,1.7022333984375,-0.37079519033432007,-0.4447098970413208,-0.2168571650981903
1782776455089222700,1.71222265625,-0.4349360466003418,-0.4703662395477295,-0.2919935882091522
1782776455099222300,1.72222216796875,-0.504574716091156,-0.49846604466438293,-0.3597996234893799
1782776455109211400,1.73221142578125,-0.5839871764183044,-0.4813618063926697,-0.41722095012664795
1782776455119242200,1.7422421875,-0.6737843751907349,-0.4489859640598297,-0.4740314185619354
1782776455129200400,1.752200439453125,-0.759305477142334,-0.40133845806121826,-0.5345070958137512
1782776455139231200,1.762231201171875,-0.8216137290000916,-0.34086281061172485,-0.5858197808265686
1782776455149219800,1.7722197265625,-0.8558222055435181,-0.2687807083129883,-0.6224716901779175
1782776455159220000,1.782219970703125,-0.8582656979560852,-0.18387043476104736,-0.6383541822433472
1782776455169209000,1.792208984375,-0.8319984674453735,-0.08002334833145142,-0.6359107494354248
1782776455179240400,1.802240478515625,-0.7837401032447815,0.029932396486401558,-0.6206390857696533
1782776455189198000,1.812197998046875,-0.7330383062362671,0.059864792972803116,-0.6163630485534668
1782776455199228400,1.822228515625,-0.7043276429176331,-0.02687807008624077,-0.6328563690185547
1782776455209217300,1.83221728515625,-0.7128797173500061,-0.17531833052635193,-0.6627888083457947
1782776455219217700,1.8422177734375,-0.778853178024292,-0.33536502718925476,-0.7147123217582703
1782776455229206500,1.85220654296875,-0.8857545852661133,-0.5009095072746277,-0.7715228199958801
1782776455239269000,1.86226904296875,-1.0018190145492554,-0.5962044596672058,-0.8161159753799438
1782776455249195500,1.872195556640625,-1.1191051006317139,-0.626747727394104,-0.8350527882575989
1782776455259226000,1.88222607421875,-1.2272282838821411,-0.5943718552589417,-0.827111542224884
1782776455269215200,1.89221533203125,-1.320690631866455,-0.5326744914054871,-0.8026769161224365
1782776455279245600,1.90224560546875,-1.380555510520935,-0.4612032473087311,-0.7629706859588623
1782776455289204000,1.912203857421875,-1.4074335098266602,-0.3995058834552765,-0.7134906053543091
1782776455299234800,1.92223486328125,-1.405600905418396,-0.3433062732219696,-0.6542366743087769
1782776455309223400,1.932223388671875,-1.36955988407135,-0.2785545587539673,-0.5797111392021179
1782776455319223800,1.942223876953125,-1.3066407442092896,-0.19058994948863983,-0.48258355259895325
1782776455329212400,1.95221240234375,-1.2223412990570068,-0.08918632566928864,-0.3628539443016052
1782776455339243300,1.9622431640625,-1.1343767642974854,0.0012217304902151227,-0.23579397797584534
1782776455349201400,1.972201416015625,-1.0531316995620728,0.054367005825042725,-0.11911872029304504
1782776455359232300,1.982232177734375,-0.9462302923202515,0.00733038317412138,0.022602014243602753
1782776455369221400,1.992221435546875,-0.8943067193031311,-0.10873401165008545,0.09224065393209457
1782776455379221200,2.00222119140625,-0.8637634515762329,-0.2767219543457031,0.14049901068210602
1782776455389210000,2.012210205078125,-0.8533787727355957,-0.45631635189056396,0.17104226350784302
1782776455399240700,2.02224072265625,-0.8546004891395569,-0.6316346526145935,0.18387043476104736
1782776455409199000,2.03219921875,-0.8674286603927612,-0.7874053120613098,0.16859880089759827
1782776455419232000,2.04223193359375,-0.8967501521110535,-0.9138544201850891,0.12461651116609573
1782776455429218600,2.052218505859375,-0.969443142414093,-0.988379955291748,0.045204028487205505
1782776455439220700,2.062220703125,-1.0867292881011963,-0.9779952764511108,-0.06230825558304787
1782776455449207800,2.072207763671875,-1.2278391122817993,-0.8717046976089478,-0.1869247704744339
1782776455459240400,2.082240478515625,-1.3658946752548218,-0.6768386960029602,-0.31520646810531616
1782776455469196800,2.09219677734375,-1.4789047241210938,-0.4184426963329315,-0.4386012554168701
1782776455479227400,2.102227294921875,-1.5289957523345947,-0.14477506279945374,-0.5296201705932617
1782776455489216300,2.11221630859375,-1.5259413719177246,0.08735372871160507,-0.5852088928222656
1782776455499216400,2.12221630859375,-1.4862351417541504,0.24068090319633484,-0.607200026512146
1782776455509205200,2.132205322265625,-1.4190399646759033,0.33475416898727417,-0.588874101638794
1782776455519235800,2.14223583984375,-1.3347405195236206,0.36529740691185,-0.5351179838180542
1782776455529224700,2.152224609375,-1.2388347387313843,0.3274237811565399,-0.4544837474822998
1782776455539225000,2.16222509765625,-1.1410962343215942,0.242513507604599,-0.35185837745666504
1782776455549214000,2.1722138671875,-1.0512990951538086,0.1160643994808197,-0.23640485107898712
1782776455559244500,2.18224462890625,-0.9828822016716003,-0.025045474991202354,-0.11911872029304504
1782776455569203000,2.192202880859375,-0.9468411207199097,-0.15027284622192383,-0.00733038317412138
1782776455579233500,2.202233642578125,-0.9468411207199097,-0.2370157092809677,0.08552113175392151
1782776455589222400,2.212222412109375,-0.9712757468223572,-0.2883284091949463,0.15332718193531036
1782776455599222500,2.222222412109375,-1.007927656173706,-0.30482175946235657,0.1918116807937622
1782776455609211100,2.232211181640625,-1.0494664907455444,-0.2938261926174164,0.2021963894367218
1782776455619242000,2.242241943359375,-1.0885618925094604,-0.2669481039047241,0.18020524084568024
1782776455629200400,2.252200439453125,-1.1197160482406616,-0.2376265823841095,0.1319468915462494
1782776455639231200,2.262231201171875,-1.1410962343215942,-0.20341812074184418,0.06291911751031876
1782776455649219800,2.2722197265625,-1.1496484279632568,-0.16065755486488342,-0.02015855349600315
1782776455659220200,2.28222021484375,-1.1478158235549927,-0.11239920556545258,-0.10934487730264664
1782776455669209000,2.292208984375,-1.1325441598892212,-0.05742133408784866,-0.1966986060142517
1782776455679239400,2.302239501953125,-1.112385630607605,0.0012217304902151227,-0.2718350291252136
1782776455689198000,2.312197998046875,-1.0910053253173828,0.05192354694008827,-0.3323107063770294
1782776455699229200,2.322229248046875,-1.0653489828109741,0.07635815441608429,-0.36590829491615295
1782776455709217500,2.332217529296875,-1.034194827079773,0.10812314599752426,-0.37568211555480957
1782776455719218400,2.342218505859375,-1.0005972385406494,0.13255776464939117,-0.37690386176109314
1782776455729206500,2.35220654296875,-0.9627236127853394,0.13011430203914642,-0.3854559659957886
1782776455739238000,2.36223779296875,-0.9187413454055786,0.09651670604944229,-0.4031710624694824
1782776455749195500,2.372195556640625,-0.8600982427597046,0.048258353024721146,-0.4251621961593628
1782776455759227000,2.382226806640625,-0.7874053120613098,0.012828170321881771,-0.4447098970413208
1782776455769215200,2.39221533203125,-0.7055493593215942,-0.00427605677396059,-0.4593706727027893
1782776455779246300,2.402246337890625,-0.5815436840057373,0.015882495790719986,-0.4642575979232788
1782776455789204200,2.412204345703125,-0.5021312236785889,0.039095375686883926,-0.4550946056842804
1782776455799235300,2.4222353515625,-0.41661009192466736,0.0861319974064827,-0.4434881806373596
1782776455809223700,2.4322236328125,-0.31154128909111023,0.16249015927314758,-0.4153883755207062
1782776455819223300,2.442223388671875,-0.18936823308467865,0.2480112910270691,-0.37262779474258423
1782776455829111000,2.452111083984375,-0.06414084881544113,0.2919935882091522,-0.3127630054950714
1782776455839243300,2.4622431640625,0.039706241339445114,0.24068090319633484,-0.2541199326515198
1782776455859232000,2.48223193359375,0.18081611394882202,-0.21380282938480377,-0.2223549485206604
1782776455869220900,2.492220947265625,0.23335053026676178,-0.5650503635406494,-0.28649580478668213
1782776455879221000,2.502220947265625,0.27550023794174194,-0.8759807348251343,-0.3628539443016052
1782776455889209600,2.512209716796875,0.2828305959701538,-1.056796908378601,-0.4098905920982361
1782776455899240400,2.522240478515625,0.2376265823841095,-1.0739010572433472,-0.39706242084503174
1782776455909198600,2.532198486328125,0.13439035415649414,-0.9126327037811279,-0.30543261766433716
1782776455919229700,2.542229736328125,0.019547687843441963,-0.6010913848876953,-0.14049901068210602
1782776455929218600,2.552218505859375,-0.059864792972803116,-0.21441370248794556,0.07880161702632904
1782776455939219700,2.5622197265625,-0.07941248267889023,0.14782938361167908,0.3139847218990326
1782776455949207800,2.572207763671875,-0.04642575979232788,0.4178318381309509,0.5253441333770752
1782776455959239400,2.582239501953125,0.01710422709584236,0.5943718552589417,0.6902777552604675
1782776455969196800,2.59219677734375,0.09896016865968704,0.7000515460968018,0.8093964457511902
1782776455979227600,2.6022275390625,0.182648703455925,0.759305477142334,0.8985827565193176
1782776455989216300,2.61221630859375,0.2541199326515198,0.779464066028595,0.9584475755691528
1782776455999216600,2.622216552734375,0.30054569244384766,0.7654141783714294,0.9908234477043152
1782776456009205200,2.632205322265625,0.32498031854629517,0.7141014933586121,0.9969320893287659
1782776456019236400,2.642236328125,0.3445279896259308,0.6102544069290161,0.970054030418396
1782776456029224700,2.652224609375,0.35552358627319336,0.4337143301963806,0.9169087409973145
1782776456039225300,2.662225341796875,0.3494149148464203,0.15882496535778046,0.8295549750328064
1782776456049214000,2.6722138671875,0.31093040108680725,-0.22357667982578278,0.7141014933586121
1782776456059244300,2.682244384765625,0.2278527319431305,-0.6982190012931824,0.5473352670669556
1782776456069203000,2.692202880859375,0.11484266817569733,-1.1997393369674683,0.32620203495025635
1782776456079233500,2.702233642578125,-0.04948008432984352,-1.5723671913146973,0.08735372871160507
1782776456089222400,2.712222412109375,-0.25595253705978394,-1.7348573207855225,-0.13744467496871948
1782776456099222300,2.72222216796875,-0.4954117238521576,-1.6853772401809692,-0.31154128909111023
1782776456109211400,2.73221142578125,-0.7373143434524536,-1.406822681427002,-0.39217549562454224
1782776456119242000,2.742241943359375,-0.930347740650177,-0.9621127843856812,-0.37690386176109314
1782776456129200400,2.752200439453125,-1.024420976638794,-0.475253164768219,-0.29016098380088806
1782776456139232300,2.762232177734375,-1.026253581047058,-0.08552113175392151,-0.17837265133857727
1782776456149219800,2.7722197265625,-0.9462302923202515,0.16371189057826996,-0.06963863968849182
1782776456159221500,2.782221435546875,-0.8417723178863525,0.2987131178379059,0.036041051149368286
1782776456169209000,2.792208984375,-0.7324274182319641,0.35735616087913513,0.14782938361167908
1782776456179240700,2.80224072265625,-0.627358615398407,0.37568211555480957,0.26450464129447937
1782776456189198000,2.812197998046875,-0.5412266254425049,0.3683517575263977,0.3738495409488678
1782776456199230000,2.82222998046875,-0.48258355259895325,0.3176499307155609,0.45875978469848633
1782776456209217300,2.83221728515625,-0.46670106053352356,0.17409659922122955,0.5216789245605469
1782776456219217400,2.842217529296875,-0.5088507533073425,0.04337143152952194,0.5082398653030396
1782776456229206500,2.85220654296875,-0.5919284224510193,-0.12461651116609573,0.4495968222618103
1782776456239237000,2.862237060546875,-0.7092145681381226,-0.33108896017074585,0.3585779070854187
1782776456249195500,2.872195556640625,-0.8478809595108032,-0.5302310585975647,0.26022860407829285
1782776456259226400,2.882226318359375,-1.0054842233657837,-0.6908885836601257,0.1618792861700058
1782776456269215200,2.89221533203125,-1.171028733253479,-0.8118399381637573,0.07024950534105301
1782776456279245600,2.90224560546875,-1.330464482307434,-0.8772025108337402,-0.015271631069481373
1782776456289204000,2.912203857421875,-1.470963478088379,-0.8796459436416626,-0.08185594528913498
1782776456299234600,2.922234619140625,-1.5864170789718628,-0.8240572214126587,-0.12034045159816742
1782776456309223400,2.932223388671875,-1.6743816137313843,-0.7483099102973938,-0.13316862285137177
1782776456319223800,2.942223876953125,-1.7373007535934448,-0.6780604124069214,-0.13255776464939117
1782776456329212700,2.952212646484375,-1.7800613641738892,-0.6120869517326355,-0.12522737681865692
1782776456339243300,2.9622431640625,-1.8081611394882202,-0.5491678714752197,-0.12339477986097336
1782776456349201700,2.97220166015625,-1.824654459953308,-0.5106833577156067,-0.12767083942890167
1782776456359232300,2.982232177734375,-1.8313740491867065,-0.49785518646240234,-0.1362229436635971
1782776456369221000,2.99222119140625,-1.8393152952194214,-0.5070181488990784,-0.14294247329235077
1782776456379221500,3.002221435546875,-1.8594738245010376,-0.5351179838180542,-0.14049901068210602
1782776456389210000,3.012210205078125,-1.8875735998153687,-0.5583308339118958,-0.12461651116609573
1782776456399240700,3.02224072265625,-1.920560359954834,-0.5778785347938538,-0.09773843735456467
1782776456409199000,3.03219921875,-1.9517145156860352,-0.6053674817085266,-0.06108652427792549
1782776456419229700,3.042229736328125,-1.9590448141098022,-0.6304129362106323,-0.015882495790719986
1782776456429218600,3.052218505859375,-1.9333884716033936,-0.6481280326843262,0.036651913076639175
1782776456439219000,3.062218994140625,-1.8906279802322388,-0.6798930168151855,0.07391469180583954
1782776456449207800,3.072207763671875,-1.8661932945251465,-0.7855727076530457,0.05803219974040985
1782776456459240400,3.082240478515625,-1.8863518238067627,-1.006095051765442,-0.05375614017248154
1782776456469196800,3.09219677734375,-1.9688186645507812,-1.3371840715408325,-0.26939156651496887
1782776456479229400,3.1022294921875,-2.1282544136047363,-1.737911581993103,-0.598647952079773
1782776456489216300,3.11221630859375,-2.3408355712890625,-2.180178165435791,-1.0268645286560059
1782776456499218400,3.122218505859375,-2.56868839263916,-2.5326473712921143,-1.508837103843689
1782776456509205200,3.132205322265625,-2.7653870582580566,-2.630385637283325,-1.9437731504440308
1782776456519238000,3.14223779296875,-2.9462029933929443,-2.506990909576416,-2.2773056030273438
1782776456529224700,3.152224609375,-3.127019166946411,-2.169182538986206,-2.4740042686462402
1782776456539225000,3.16222509765625,-3.277292013168335,-1.709811806678772,-2.5363125801086426
1782776456549214000,3.1722138671875,-3.3701436519622803,-1.2834278345108032,-2.48988676071167
1782776456559244800,3.182244873046875,-3.400075912475586,-0.9926560521125793,-2.3744332790374756
1782776456569203000,3.192202880859375,-3.36708927154541,-0.8509352803230286,-2.219273328781128
1782776456579233300,3.2022333984375,-3.26935076713562,-0.836885392665863,-2.040289878845215
1782776456589222700,3.21222265625,-3.109915018081665,-0.9071348905563354,-1.8417587280273438
1782776456599222300,3.22222216796875,-2.9016098976135254,-1.0067058801651,-1.6114624738693237
1782776456609211400,3.23221142578125,-2.6737570762634277,-1.1166616678237915,-1.3573426008224487
1782776456619242200,3.2422421875,-2.481945514678955,-1.2211196422576904,-1.091616153717041
1782776456629200400,3.252200439453125,-2.339613914489746,-1.318858027458191,-0.7379252314567566
1782776456639231200,3.262231201171875,-2.3353378772735596,-1.3683381080627441,-0.5723807215690613
1782776456649219800,3.2722197265625,-2.3719897270202637,-1.3933836221694946,-0.48258355259895325
1782776456659220200,3.28222021484375,-2.434908866882324,-1.38849675655365,-0.4715879559516907
1782776456669209000,3.292208984375,-2.506380081176758,-1.3622294664382935,-0.5369505286216736
1782776456679239700,3.30223974609375,-2.5644123554229736,-1.3274102210998535,-0.6640105247497559
1782776456689198000,3.312197998046875,-2.6059510707855225,-1.299310326576233,-0.8307767510414124
1782776456699228700,3.322228759765625,-2.6248879432678223,-1.2950342893600464,-1.0085384845733643
1782776456709217500,3.332217529296875,-2.6309967041015625,-1.313360333442688,-1.1722503900527954
1782776456719217700,3.3422177734375,-2.6285531520843506,-1.3371840715408325,-1.2986994981765747
1782776456729206500,3.35220654296875,-2.627331495285034,-1.359175205230713,-1.3811663389205933
1782776456739237400,3.3622373046875,-2.635272741317749,-1.3756685256958008,-1.423926830291748
1782776456749195500,3.372195556640625,-2.6371052265167236,-1.3897184133529663,-1.4453071355819702
1782776456759226000,3.38222607421875,-2.621222734451294,-1.4031574726104736,-1.4471397399902344
1782776456769215200,3.39221533203125,-2.5973989963531494,-1.3994922637939453,-1.4367550611495972
1782776456779245600,3.40224560546875,-2.568077564239502,-1.3439035415649414,-1.4086552858352661
1782776456789204000,3.412203857421875,-2.5363125801086426,-1.2162326574325562,-1.3536773920059204
1782776456799234800,3.42223486328125,-2.5088236331939697,-1.0280861854553223,-1.2565498352050781
1782776456809223700,3.4322236328125,-2.4691174030303955,-0.7831292152404785,-1.122159481048584
1782776456819222500,3.442222412109375,-2.4135286808013916,-0.4960225820541382,-0.9535606503486633
1782776456829212200,3.452212158203125,-2.3347270488739014,-0.19425514340400696,-0.7605272531509399
1782776456839242500,3.462242431640625,-2.2479841709136963,0.08002334833145142,-0.5534439086914062
1782776456849201200,3.472201171875,-2.1704041957855225,0.28588494658470154,-0.3585779070854187
1782776456859231700,3.482231689453125,-2.102598190307617,0.4202753007411957,-0.19608774781227112
1782776456869220600,3.492220703125,-2.03540301322937,0.484416127204895,-0.0757472887635231
1782776456879220700,3.502220703125,-1.9706512689590454,0.504574716091156,-0.0012217304902151227
1782776456889209600,3.512209716796875,-1.9175059795379639,0.4899139404296875,0.027488935738801956
1782776456899240200,3.522240234375,-1.8735237121582031,0.4550946056842804,0.01710422709584236
1782776456909198600,3.532198486328125,-1.8332066535949707,0.40072759985923767,-0.030543262138962746
1782776456919229700,3.542229736328125,-1.7989981174468994,0.3274237811565399,-0.10995574295520782
1782776456929218600,3.552218505859375,-1.7678439617156982,0.23945917189121246,-0.21319197118282318
1782776456939219000,3.562218994140625,-1.7366899251937866,0.14355333149433136,-0.3341432809829712
1782776456949207800,3.572207763671875,-1.701259732246399,0.056810468435287476,-0.4538728892803192
1782776456959238400,3.58223828125,-1.6591099500656128,-0.003054326167330146,-0.5589417219161987
1782776456969196800,3.59219677734375,-1.6187928915023804,-0.03787364438176155,-0.6450737118721008
1782776456979227400,3.602227294921875,-1.580308437347412,-0.04948008432984352,-0.7092145681381226
1782776456989216300,3.61221630859375,-1.5430456399917603,-0.0403171069920063,-0.7470881938934326
1782776456999216400,3.62221630859375,-1.5082262754440308,-0.00366519158706069,-0.7489207983016968
1782776457009205200,3.632205322265625,-1.4758504629135132,0.06291911751031876,-0.7134906053543091
1782776457019235800,3.64223583984375,-1.4501941204071045,0.11545353382825851,-0.6432411074638367
1782776457029224700,3.652224609375,-1.4324790239334106,0.1661553531885147,-0.5400048494338989
1782776457039225000,3.66222509765625,-1.4172073602676392,0.2125810980796814,-0.41233405470848083
1782776457049214200,3.672214111328125,-1.4019356966018677,0.2528982162475586,-0.21074850857257843
1782776457059244500,3.68224462890625,-1.3878858089447021,0.24068090319633484,-0.09468411654233932
1782776457069203000,3.692202880859375,-1.3671164512634277,0.1966986060142517,-0.009162978269159794
1782776457079233500,3.702233642578125,-1.3408491611480713,0.12889257073402405,0.04398229718208313
1782776457089222400,3.712222412109375,-1.309084177017212,0.05497787147760391,0.07024950534105301
1782776457099222300,3.72222216796875,-1.2785409688949585,-0.01771509274840355,0.07452555745840073
1782776457109211400,3.73221142578125,-1.244943380355835,-0.07269296050071716,0.08185594528913498
1782776457119242000,3.742241943359375,-1.214400053024292,-0.07880161702632904,0.09773843735456467
1782776457129200400,3.752200439453125,-1.1936306953430176,-0.048258353024721146,0.11789698898792267
1782776457139231000,3.76223095703125,-1.1820242404937744,-0.00733038317412138,0.13072516024112701
1782776457149219800,3.7722197265625,-1.168585181236267,0.02687807008624077,0.12828169763088226
1782776457159220200,3.78222021484375,-1.1447614431381226,0.018325956538319588,0.10506882518529892
1782776457169209000,3.792208984375,-1.1050552129745483,-0.01160643994808197,0.06230825558304787
1782776457179239400,3.802239501953125,-1.0671815872192383,-0.04581489413976669,0.005497787147760391
1782776457189198000,3.812197998046875,-1.0311405658721924,-0.07330382615327835,-0.05497787147760391
1782776457199230000,3.82222998046875,-0.9932668805122375,-0.08429940044879913,-0.10690141469240189
1782776457209217300,3.83221728515625,-0.9456194043159485,-0.07330382615327835,-0.1417207419872284
1782776457219219000,3.842218994140625,-0.8790351152420044,-0.03176499158143997,-0.14844025671482086
1782776457229206500,3.85220654296875,-0.7947356700897217,0.031154127791523933,-0.1319468915462494
1782776457239266600,3.8622666015625,-0.6957755088806152,0.10934487730264664,-0.09468411654233932
1782776457249195500,3.872195556640625,-0.5778785347938538,0.19975294172763824,-0.042760565876960754
1782776457259227100,3.88222705078125,-0.4398229718208313,0.2919935882091522,0.02015855349600315
1782776457269215200,3.89221533203125,-0.2822197377681732,0.38240164518356323,0.08674286305904388
1782776457279246800,3.902246826171875,-0.10812314599752426,0.45204028487205505,0.1508837193250656
1782776457289204000,3.912203857421875,0.06902777403593063,0.48808133602142334,0.19425514340400696
1782776457299234800,3.92223486328125,0.2125810980796814,0.44593164324760437,0.20097467303276062
1782776457309223700,3.9322236328125,0.31154128909111023,0.3170390725135803,0.16798794269561768
1782776457319223600,3.9422236328125,0.3396410644054413,0.10690141469240189,0.08491026610136032
1782776457329212400,3.95221240234375,0.29016098380088806,-0.1368338167667389,-0.039095375686883926
1782776457339243500,3.962243408203125,0.192422553896904,-0.323147714138031,-0.16249015927314758
1782776457349201700,3.97220166015625,0.08674286305904388,-0.3738495409488678,-0.24617868661880493
1782776457359232000,3.98223193359375,-0.005497787147760391,-0.28038713335990906,-0.25961771607398987
1782776457369221000,3.99222119140625,-0.08735372871160507,-0.0959058403968811,-0.19547687470912933
1782776457379221800,4.0022216796875,-0.1514945775270462,0.10873401165008545,-0.06414084881544113
1782776457389210000,4.012210205078125,-0.19058994948863983,0.3072652220726013,0.10201449692249298
1782776457399241200,4.0222412109375,-0.19914206862449646,0.4404338300228119,0.24617868661880493
1782776457409199000,4.03219921875,-0.18325957655906677,0.4337143301963806,0.32009339332580566
1782776457419230200,4.042230224609375,-0.15271630883216858,0.3243694305419922,0.31581732630729675
1782776457429218600,4.052218505859375,-0.12095131725072861,0.13744467496871948,0.251676470041275
1782776457439221500,4.062221435546875,-0.10751228034496307,-0.10201449692249298,0.1368338167667389
1782776457449207800,4.072207763671875,-0.12950342893600464,-0.3543018400669098,-0.030543262138962746
1782776457459241000,4.082240966796875,-0.22296582162380219,-0.5791002511978149,-0.23640485107898712
1782776457469196800,4.09219677734375,-0.4349360466003418,-0.7220427393913269,-0.5595525503158569
1782776457479227100,4.10222705078125,-0.5778785347938538,-0.6762278079986572,-0.7440338730812073
1782776457489216300,4.11221630859375,-0.6957755088806152,-0.5485569834709167,-0.8778133392333984
1782776457499216600,4.122216552734375,-0.8002334833145142,-0.3530801236629486,-0.940732479095459
1782776457509205200,4.132205322265625,-0.8888089060783386,-0.10445795953273773,-0.93095862865448
1782776457519236400,4.142236328125,-0.941343367099762,0.14416420459747314,-0.8637634515762329
1782776457529224700,4.152224609375,-0.9486737251281738,0.3591887652873993,-0.7470881938934326
1782776457539225600,4.1622255859375,-0.912021815776825,0.5290092825889587,-0.5870414972305298
1782776457549214000,4.1722138671875,-0.8527678847312927,0.645684540271759,-0.39645153284072876
1782776457559245000,4.1822451171875,-0.79840087890625,0.6969972252845764,-0.20891591906547546
1782776457569203000,4.192202880859375,-0.7525860071182251,0.6805039048194885,-0.03848451003432274
1782776457579234300,4.202234375,-0.7263187766075134,0.6035348773002625,0.09407325088977814
1782776457589222400,4.212222412109375,-0.7220427393913269,0.4954117238521576,0.18875735998153687
1782776457599223300,4.222223388671875,-0.7348709106445312,0.37629300355911255,0.24129177629947662
1782776457609211400,4.23221142578125,-0.7507534027099609,0.26572638750076294,0.2620611786842346
1782776457619242500,4.242242431640625,-0.759305477142334,0.15760323405265808,0.251676470041275
1782776457629200400,4.252200439453125,-0.7574729323387146,0.06108652427792549,0.22052235901355743
1782776457639231700,4.262231689453125,-0.7458664774894714,-0.02015855349600315,0.1722639948129654
1782776457649219800,4.2722197265625,-0.7250970602035522,-0.0959058403968811,0.1160643994808197
1782776457659220700,4.282220703125,-0.6982190012931824,-0.1661553531885147,0.06108652427792549
1782776457669209000,4.292208984375,-0.6762278079986572,-0.2223549485206604,0.014049900695681572
1782776457679240400,4.302240478515625,-0.6646214127540588,-0.2577851414680481,-0.01710422709584236
1782776457689198000,4.312197998046875,-0.66584312915802,-0.2834414839744568,-0.036651913076639175
1782776457699229400,4.3222294921875,-0.6798930168151855,-0.3084869384765625,-0.04948008432984352
1782776457709217500,4.332217529296875,-0.7079927921295166,-0.33536502718925476,-0.05742133408784866
1782776457719218200,4.34221826171875,-0.7422012686729431,-0.35674530267715454,-0.06475171446800232
1782776457729206500,4.35220654296875,-0.779464066028595,-0.36713001132011414,-0.07330382615327835
1782776457739238000,4.36223779296875,-0.817948579788208,-0.36590829491615295,-0.08246681094169617
1782776457749195500,4.372195556640625,-0.8631525635719299,-0.3536909818649292,-0.08368854224681854
1782776457759227100,4.38222705078125,-0.9040805697441101,-0.3335324227809906,-0.07513642311096191
1782776457769215200,4.39221533203125,-0.9346238374710083,-0.30970868468284607,-0.06169738993048668
1782776457779246600,4.40224658203125,-0.9456194043159485,-0.29565876722335815,-0.04642575979232788
1782776457789204200,4.412204345703125,-0.9321803450584412,-0.3072652220726013,-0.030543262138962746
1782776457799235600,4.422235595703125,-0.9089674949645996,-0.3335324227809906,-0.01771509274840355
1782776457809223700,4.4322236328125,-0.8796459436416626,-0.36713001132011414,-0.001832595793530345
1782776457819223600,4.4422236328125,-0.8484918475151062,-0.4086688458919525,0.001832595793530345
1782776457829212200,4.452212158203125,-0.8203920125961304,-0.4691445231437683,-0.012217304669320583
1782776457839243500,4.462243408203125,-0.7953465580940247,-0.5479460954666138,-0.04337143152952194
1782776457849201200,4.472201171875,-0.7770205736160278,-0.6420193910598755,-0.08491026610136032
1782776457859232300,4.482232177734375,-0.7654141783714294,-0.7305948138237,-0.1362229436635971
1782776457869220900,4.492220947265625,-0.7562511563301086,-0.8136724829673767,-0.1875356286764145
1782776457879221200,4.50222119140625,-0.7458664774894714,-0.8851437568664551,-0.23640485107898712
1782776457889209600,4.512209716796875,-0.7385360598564148,-0.9859365224838257,-0.28466320037841797
1782776457899240700,4.52224072265625,-0.7312057018280029,-1.0335839986801147,-0.29565876722335815
1782776457909198600,4.532198486328125,-0.7147123217582703,-1.074512004852295,-0.2981022298336029
1782776457919230200,4.542230224609375,-0.6872233748435974,-1.0977247953414917,-0.2974913716316223
1782776457929218600,4.552218505859375,-0.6621779203414917,-1.120937705039978,-0.29504790902137756
1782776457939219500,4.562219482421875,-0.646906316280365,-1.1325441598892212,-0.28955012559890747
1782776457949207800,4.572207763671875,-0.6334672570228577,-1.1520918607711792,-0.28038713335990906
1782776457959239000,4.582239013671875,-0.6102544069290161,-1.158811330795288,-0.25961771607398987
1782776457969196800,4.59219677734375,-0.5803219676017761,-1.1575896739959717,-0.23151792585849762
1782776457979227600,4.6022275390625,-0.5528330206871033,-1.1649199724197388,-0.19608774781227112
1782776457989216300,4.61221630859375,-0.5375614166259766,-1.1270463466644287,-0.1459967941045761
1782776457999217000,4.622216796875,-0.5393940210342407,-1.0030407905578613,-0.07147123664617538
1782776458009205200,4.632205322265625,-0.5797111392021179,-0.8509352803230286,-0.0012217304902151227
1782776458019235800,4.64223583984375,-0.6731734871864319,-0.770301103591919,0.027488935738801956
1782776458029224700,4.652224609375,-0.8008443117141724,-0.799011766910553,-0.010995574295520782
1782776458039225000,4.66222509765625,-0.9382890462875366,-0.9767735004425049,-0.1270599663257599
1782776458049214000,4.6722138671875,-1.0855075120925903,-1.2944234609603882,-0.30482175946235657
1782776458059244300,4.682244384765625,-1.2370021343231201,-1.6377297639846802,-0.5021312236785889
1782776458069203000,4.692202880859375,-1.3616186380386353,-1.8796323537826538,-0.6627888083457947
1782776458079233300,4.7022333984375,-1.445918083190918,-1.9999728202819824,-0.7324274182319641
1782776458089222700,4.71222265625,-1.4770721197128296,-1.9370536804199219,-0.6878342628479004
1782776458099222000,4.722221923828125,-1.453248381614685,-1.6920967102050781,-0.5296201705932617
1782776458109211400,4.73221142578125,-1.387274980545044,-1.2950342893600464,-0.2822197377681732
1782776458119243500,4.742243408203125,-1.2901474237442017,-0.7770205736160278,0.01710422709584236
1782776458129200400,4.752200439453125,-1.176526427268982,-0.20586158335208893,0.3341432809829712
1782776458139232300,4.762232177734375,-1.0506882667541504,0.33536502718925476,0.6291912198066711
1782776458149219800,4.7722197265625,-0.9376781582832336,0.7739662528038025,0.8576548099517822
1782776458159221200,4.78222119140625,-0.8252789378166199,1.0983357429504395,1.017701506614685
1782776458169209000,4.792208984375,-0.7214318513870239,1.3041973114013672,1.1154398918151855
1782776458179240700,4.80224072265625,-0.6359107494354248,1.3946053981781006,1.151481032371521
1782776458189198000,4.812197998046875,-0.5674937963485718,1.3811663389205933,1.130711555480957
1782776458199229700,4.822229736328125,-0.4990769028663635,1.2712105512619019,1.0708467960357666
1782776458209217300,4.83221728515625,-0.4343251883983612,1.081842303276062,0.9828822016716003
1782776458219218000,4.842218017578125,-0.3744603991508484,0.8515461683273315,0.8869763612747192
1782776458229206500,4.85220654296875,-0.31581732630729675,0.6249151229858398,0.7953465580940247
1782776458239237600,4.862237548828125,-0.2638937830924988,0.4178318381309509,0.7147123217582703
1782776458249195500,4.872195556640625,-0.21380282938480377,0.25534167885780334,0.6414085030555725
1782776458259225900,4.882225830078125,-0.18509216606616974,0.1514945775270462,0.5558874011039734
1782776458269215200,4.89221533203125,-0.1814269721508026,0.09834930300712585,0.423329621553421
1782776458279245300,4.902245361328125,-0.18448130786418915,0.10690141469240189,0.2583959996700287
1782776458289204000,4.912203857421875,-0.20586158335208893,0.15393804013729095,0.06780604273080826
1782776458299234600,4.922234619140625,-0.24190263450145721,0.23579397797584534,-0.13744467496871948
1782776458309223400,4.932223388671875,-0.2987131178379059,0.39706242084503174,-0.4434881806373596
1782776458319223600,4.9422236328125,-0.3127630054950714,0.5002986192703247,-0.6151412725448608
1782776458329212400,4.95221240234375,-0.30115658044815063,0.5839871764183044,-0.7305948138237
1782776458339243000,4.962242919921875,-0.27061331272125244,0.6414085030555725,-0.7874053120613098
1782776458349201700,4.97220166015625,-0.24068090319633484,0.656069278717041,-0.7922922372817993
1782776458359233000,4.98223291015625,-0.1875356286764145,0.6505714654922485,-0.7464773058891296
1782776458369221000,4.99222119140625,-0.11789698898792267,0.6298020482063293,-0.6646214127540588
1782776458379221800,5.0022216796875,-0.0354301854968071,0.6041457056999207,-0.5558874011039734
1782776458389210000,5.012210205078125,0.045204028487205505,0.5833762884140015,-0.43188172578811646
1782776458399241200,5.0222412109375,0.10567969083786011,0.5589417219161987,-0.313373863697052
1782776458409199000,5.03219921875,0.13866640627384186,0.5216789245605469,-0.19425514340400696
1782776458419229700,5.042229736328125,0.13316862285137177,0.46792277693748474,-0.10873401165008545
1782776458429218600,5.052218505859375,0.09773843735456467,0.403781920671463,-0.0659734457731247
1782776458439218700,5.06221875,0.056810468435287476,0.3494149148464203,-0.05864306539297104
1782776458449207800,5.072207763671875,0.036651913076639175,0.3084869384765625,-0.07024950534105301
1782776458459238100,5.082238037109375,0.02076941914856434,0.30115658044815063,-0.09346238523721695
1782776458469196800,5.09219677734375,0.015271631069481373,0.3390302062034607,-0.11728613078594208
1782776458479227100,5.10222705078125,0.01466076634824276,0.4043927788734436,-0.14416420459747314
1782776458489216300,5.11221630859375,0.015271631069481373,0.4660901725292206,-0.1820378452539444
1782776458499217000,5.122216796875,0.018936822190880775,0.504574716091156,-0.22846360504627228
1782776458509205500,5.13220556640625,0.009773843921720982,0.5204572081565857,-0.2785545587539673
1782776458519236400,5.142236328125,0.0024434609804302454,0.5216789245605469,-0.32498031854629517
1782776458529224700,5.152224609375,0.022602014243602753,0.5314527750015259,-0.35552358627319336
1782776458539225300,5.162225341796875,0.054367005825042725,0.5503895878791809,-0.35674530267715454
1782776458549213700,5.172213623046875,0.08979719132184982,0.5711590051651001,-0.34697145223617554
1782776458559245000,5.1822451171875,0.12400564551353455,0.578489363193512,-0.3396410644054413
1782776458569203000,5.192202880859375,0.1472185254096985,0.5589417219161987,-0.34697145223617554
1782776458579234000,5.202234130859375,0.15943582355976105,0.4917465150356293,-0.3738495409488678
1782776458589222400,5.212222412109375,0.15760323405265808,0.4178318381309509,-0.40683624148368835
1782776458599223000,5.22222314453125,0.15454891324043274,0.34025195240974426,-0.423329621553421
1782776458609211100,5.232211181640625,0.15577064454555511,0.2626720666885376,-0.4080579876899719
1782776458619242500,5.242242431640625,0.1514945775270462,0.22479841113090515,-0.36224308609962463
1782776458629200400,5.252200439453125,0.16982053220272064,0.2785545587539673,-0.303600013256073
1782776458639231500,5.2622314453125,0.24129177629947662,0.44776421785354614,-0.24007004499435425
1782776458649219800,5.2722197265625,0.3799581825733185,0.6200281977653503,-0.1814269721508026
1782776458659220700,5.282220703125,0.5546656250953674,0.6890559792518616,-0.12889257073402405
1782776458669209000,5.292208984375,0.7214318513870239,0.6340781450271606,-0.08979719132184982
1782776458679240400,5.302240478515625,0.8228355050086975,0.4789183437824249,-0.07941248267889023
1782776458689198000,5.312197998046875,0.8344419002532959,0.28099802136421204,-0.11056660860776901
1782776458699229200,5.322229248046875,0.779464066028595,0.12278391420841217,-0.16982053220272064
1782776458709217500,5.332217529296875,0.694553792476654,0.06230825558304787,-0.24190263450145721
1782776458719218400,5.342218505859375,0.6212499737739563,0.08674286305904388,-0.31031954288482666
1782776458729206500,5.35220654296875,0.5791002511978149,0.13072516024112701,-0.3597996234893799
1782776458739238400,5.36223828125,0.588263213634491,0.2064724564552307,-0.3689626157283783
1782776458749195500,5.372195556640625,0.6243042945861816,0.2431243658065796,-0.33597588539123535
1782776458759227400,5.382227294921875,0.6811147332191467,0.23151792585849762,-0.2571742534637451
1782776458769215200,5.39221533203125,0.7489207983016968,0.1765400618314743,-0.14355333149433136
1782776458779246800,5.402246826171875,0.8161159753799438,0.13316862285137177,-0.00366519158706069
1782776458789204000,5.412203857421875,0.8680394887924194,0.1716531366109848,0.14477506279945374
1782776458799236000,5.422236083984375,0.8930850028991699,0.29993483424186707,0.2583959996700287
1782776458809223400,5.432223388671875,0.8924741148948669,0.45692721009254456,0.29565876722335815
1782776458819223000,5.44222314453125,0.8900306820869446,0.5705481171607971,0.25106561183929443
1782776458829212200,5.452212158203125,0.912021815776825,0.6102544069290161,0.15882496535778046
1782776458839242800,5.46224267578125,0.9639453291893005,0.5607742667198181,0.05925392732024193
1782776458849201200,5.472201171875,1.0097602605819702,0.413555771112442,-0.04459316283464432
1782776458859231700,5.482231689453125,1.0348057746887207,0.18509216606616974,-0.14905111491680145
1782776458869220600,5.492220703125,1.0604621171951294,-0.06780604273080826,-0.22418753802776337
1782776458879222000,5.502221923828125,1.0995573997497559,-0.28099802136421204,-0.25473082065582275
1782776458889209600,5.512209716796875,1.1282681226730347,-0.4300491213798523,-0.24984388053417206
1782776458899241000,5.522240966796875,1.111163854598999,-0.5277875661849976,-0.23396138846874237
1782776458909198600,5.532198486328125,1.0592403411865234,-0.5974262356758118,-0.20891591906547546
1782776458919230200,5.542230224609375,0.9834930300712585,-0.6603453159332275,-0.17104226350784302
1782776458929218600,5.552218505859375,0.8778133392333984,-0.7147123217582703,-0.12217304855585098
1782776458939219000,5.562218994140625,0.7428121566772461,-0.7367035150527954,-0.07757988572120667
1782776458949207800,5.572207763671875,0.6126978397369385,-0.7000515460968018,-0.03298672288656235
1782776458959239000,5.582239013671875,0.504574716091156,-0.617584764957428,0.014049900695681572
1782776458969196800,5.59219677734375,0.42149701714515686,-0.5070181488990784,0.06108652427792549
1782776458979228400,5.602228515625,0.38606682419776917,-0.37568211555480957,0.10323622822761536
1782776458989216300,5.61221630859375,0.38667771220207214,-0.2223549485206604,0.13439035415649414
1782776458999217000,5.622216796875,0.4105014503002167,-0.06658431142568588,0.1508837193250656
1782776459009205200,5.632205322265625,0.4453207552433014,0.06841690838336945,0.14294247329235077
1782776459019236600,5.642236572265625,0.47219884395599365,0.1661553531885147,0.11362093687057495
1782776459029224700,5.652224609375,0.475253164768219,0.22357667982578278,0.06475171446800232
1782776459039225600,5.6622255859375,0.4544837474822998,0.2541199326515198,-0.004886921960860491
1782776459049214000,5.6722138671875,0.42149701714515686,0.2583959996700287,-0.08979719132184982
1782776459059245000,5.6822451171875,0.3799581825733185,0.23335053026676178,-0.17959438264369965
1782776459069203000,5.692202880859375,0.3433062732219696,0.1771509200334549,-0.2571742534637451
1782776459079234300,5.702234375,0.2974913716316223,0.09712757170200348,-0.30604347586631775
1782776459089222400,5.712222412109375,0.23945917189121246,0.021380282938480377,-0.31520646810531616
1782776459099223000,5.72222314453125,0.1820378452539444,-0.03787364438176155,-0.27977627515792847
1782776459109211100,5.732211181640625,0.13072516024112701,-0.08796459436416626,-0.21930062770843506
1782776459119242500,5.742242431640625,0.09162978827953339,-0.12034045159816742,-0.15760323405265808
1782776459129200400,5.752200439453125,0.06841690838336945,-0.1319468915462494,-0.1111774742603302
1782776459139231500,5.7622314453125,0.04642575979232788,-0.1362229436635971,-0.08979719132184982
1782776459149219800,5.7722197265625,0.028099801391363144,-0.14233160018920898,-0.08307767659425735
1782776459159220500,5.782220458984375,0.01038470957428217,-0.15882496535778046,-0.07880161702632904
1782776459169209000,5.792208984375,0.009162978269159794,-0.1618792861700058,-0.06291911751031876
1782776459179239700,5.80223974609375,0.009162978269159794,-0.15882496535778046,-0.04398229718208313
1782776459189197800,5.81219775390625,0.006108652334660292,-0.16065755486488342,-0.02932153269648552
1782776459199229200,5.822229248046875,0.004886921960860491,-0.16249015927314758,-0.01771509274840355
1782776459209217300,5.83221728515625,-0.003054326167330146,-0.16982053220272064,-0.01038470957428217
1782776459219218200,5.84221826171875,-0.02687807008624077,-0.19486601650714874,-0.01466076634824276
1782776459229206500,5.85220654296875,-0.060475658625364304,-0.23151792585849762,-0.036651913076639175
1782776459239265000,5.86226513671875,-0.09346238523721695,-0.26022860407829285,-0.08185594528913498
1782776459249195500,5.872195556640625,-0.12889257073402405,-0.2742784917354584,-0.13866640627384186
1782776459259226600,5.8822265625,-0.1618792861700058,-0.24190263450145721,-0.192422553896904
1782776459269215200,5.89221533203125,-0.17776179313659668,-0.1472185254096985,-0.23945917189121246
1782776459279246000,5.90224609375,-0.18631389737129211,-0.13988813757896423,-0.2742784917354584
1782776459289204000,5.912203857421875,-0.2174680233001709,-0.22663100063800812,-0.294437050819397
1782776459299234300,5.922234375,-0.27611109614372253,-0.2724458873271942,-0.3286454975605011
1782776459309223400,5.932223388671875,-0.3439171314239502,-0.3084869384765625,-0.42577308416366577
1782776459319223600,5.9422236328125,-0.41661009192466736,-0.3597996234893799,-0.59803706407547
1782776459329212400,5.95221240234375,-0.4758640229701996,-0.35185837745666504,-0.788016140460968
1782776459339243300,5.9622431640625,-0.5351179838180542,-0.23884831368923187,-0.9590584635734558
1782776459349201700,5.97220166015625,-0.5687155723571777,-0.021380282938480377,-1.054964303970337
1782776459359233300,5.9822333984375,-0.5613851547241211,0.24678955972194672,-1.027475357055664
1782776459369221000,5.99222119140625,-0.5119050741195679,0.4746423065662384,-0.8808676600456238
1782776459379222300,6.00222216796875,-0.43615779280662537,0.6023131608963013,-0.6505714654922485
1782776459389210000,6.012210205078125,-0.35063666105270386,0.6524040699005127,-0.38240164518356323
1782776459399242000,6.022241943359375,-0.2638937830924988,0.6310238242149353,-0.11484266817569733
1782776459409199000,6.03219921875,-0.19792033731937408,0.5345070958137512,0.11911872029304504
1782776459419230700,6.042230712890625,-0.15454891324043274,0.41172316670417786,0.3176499307155609
1782776459429218600,6.052218505859375,-0.11728613078594208,0.32620203495025635,0.4856378734111786
1782776459439220000,6.062219970703125,-0.08002334833145142,0.28466320037841797,0.6139195561408997
1782776459449207800,6.072207763671875,-0.04214970022439957,0.2528982162475586,0.6982190012931824
1782776459459239400,6.082239501953125,-0.007941247895359993,0.2064724564552307,0.7342600226402283
1782776459469196800,6.09219677734375,0.019547687843441963,0.1258382350206375,0.7312057018280029
1782776459479227100,6.10222705078125,0.03176499158143997,0.027488935738801956,0.7024950385093689
1782776459489216500,6.112216552734375,0.015882495790719986,-0.08796459436416626,0.637132465839386
1782776459499216400,6.12221630859375,-0.027488935738801956,-0.2119702398777008,0.5198463201522827
1782776459509205200,6.132205322265625,-0.08429940044879913,-0.31459560990333557,0.3500257730484009
1782776459519235600,6.142235595703125,-0.15760323405265808,-0.35063666105270386,0.1667662113904953
1782776459529224700,6.152224609375,-0.24129177629947662,-0.27611109614372253,0.009162978269159794
1782776459539224800,6.162224853515625,-0.3121521472930908,-0.09529497474431992,-0.08918632566928864
1782776459549214000,6.1722138671875,-0.3536909818649292,0.15271630883216858,-0.10506882518529892
1782776459559245600,6.18224560546875,-0.3500257730484009,0.39706242084503174,-0.03176499158143997
1782776459569203000,6.192202880859375,-0.2981022298336029,0.578489363193512,0.11178833991289139
1782776459579234600,6.202234619140625,-0.15821409225463867,0.6914994716644287,0.3781255781650543
1782776459589222400,6.212222412109375,-0.048258353024721146,0.6591235995292664,0.5320636034011841
1782776459599223600,6.2222236328125,0.06108652427792549,0.5479460954666138,0.646295428276062
1782776459609211100,6.232211181640625,0.15454891324043274,0.3897320330142975,0.7165449261665344
1782776459619242500,6.242242431640625,0.22296582162380219,0.22540926933288574,0.7458664774894714
1782776459629200400,6.252200439453125,0.2638937830924988,0.0910189226269722,0.7354817390441895
1782776459639231500,6.2622314453125,0.2773328125476837,-0.02076941914856434,0.6774495840072632
1782776459649219800,6.2722197265625,0.27611109614372253,-0.10201449692249298,0.5754350423812866
1782776459659220700,6.282220703125,0.26572638750076294,-0.14233160018920898,0.45142942667007446
1782776459669209000,6.292208984375,0.24190263450145721,-0.14294247329235077,0.32070425152778625
1782776459679239400,6.302239501953125,0.20463985204696655,-0.11789698898792267,0.1918116807937622
1782776459689198000,6.312197998046875,0.1618792861700058,-0.07208210229873657,0.07635815441608429
1782776459699228400,6.322228515625,0.12217304855585098,-0.01710422709584236,-0.015271631069481373
1782776459709217500,6.332217529296875,0.08124507963657379,0.03237585723400116,-0.08002334833145142
1782776459719217400,6.342217529296875,0.03726277872920036,0.08124507963657379,-0.12095131725072861
1782776459729206500,6.35220654296875,-0.00366519158706069,0.13316862285137177,-0.14782938361167908
1782776459739237600,6.362237548828125,-0.029932396486401558,0.182648703455925,-0.16798794269561768
1782776459749195500,6.372195556640625,-0.04092797264456749,0.22052235901355743,-0.18814650177955627
1782776459759227000,6.382226806640625,-0.036041051149368286,0.25106561183929443,-0.2076941877603531
1782776459769215200,6.39221533203125,-0.018936822190880775,0.28649580478668213,-0.2272418737411499
1782776459779246300,6.402246337890625,0.007941247895359993,0.32620203495025635,-0.23579397797584534
1782776459789204200,6.412204345703125,0.04459316283464432,0.36163222789764404,-0.2321287989616394
1782776459799235600,6.422235595703125,0.09407325088977814,0.3903428912162781,-0.21013765037059784
1782776459809223400,6.432223388671875,0.1569923609495163,0.4092797040939331,-0.16982053220272064
1782776459819223300,6.442223388671875,0.22907446324825287,0.4043927788734436,-0.11850785464048386
1782776459829212200,6.452212158203125,0.2919935882091522,0.36651915311813354,-0.07147123664617538
1782776459839243300,6.4622431640625,0.3396410644054413,0.31520646810531616,-0.042760565876960754
1782776459849201000,6.472200927734375,0.375071257352829,0.2773328125476837,-0.025656340643763542
1782776459859232500,6.482232421875,0.4056145250797272,0.2669481039047241,-0.013439035043120384
1782776459869220600,6.492220703125,0.43249258399009705,0.2767219543457031,-0.00855211354792118
1782776459879221500,6.502221435546875,0.45204028487205505,0.30482175946235657,-0.014049900695681572
1782776459889209600,6.512209716796875,0.46731191873550415,0.36224308609962463,-0.02626720629632473
1782776459899241000,6.522240966796875,0.5070181488990784,0.4911356568336487,-0.03237585723400116
1782776459909198600,6.532198486328125,0.5839871764183044,0.6304129362106323,-0.021991148591041565
1782776459919230200,6.542230224609375,0.6902777552604675,0.6059783101081848,-0.006719517521560192
1782776459929218600,6.552218505859375,0.7910705208778381,0.39584067463874817,0.015882495790719986
1782776459939219500,6.562219482421875,0.8497135639190674,0.0806342139840126,0.009773843921720982
1782776459949207800,6.572207763671875,0.8344419002532959,-0.24495697021484375,-0.07635815441608429
1782776459959238700,6.58223876953125,0.7324274182319641,-0.4502076804637909,-0.25045475363731384
1782776459969196800,6.59219677734375,0.5632177591323853,-0.4508185386657715,-0.4764748811721802
1782776459979227400,6.602227294921875,0.39095374941825867,-0.2638937830924988,-0.6798930168151855
1782776459989216500,6.612216552734375,0.2675589919090271,0.021991148591041565,-0.7776314616203308
1782776459999217400,6.622217529296875,0.20952677726745605,0.44715335965156555,-0.6530149579048157
1782776460009205200,6.632205322265625,0.2474004179239273,0.655458390712738,-0.4129449129104614
1782776460019237000,6.642237060546875,0.3439171314239502,0.7733554244041443,-0.09346238523721695
1782776460029225000,6.652224853515625,0.47769662737846375,0.807563841342926,0.2370157092809677
1782776460039225900,6.662225830078125,0.6120869517326355,0.7849618196487427,0.5186246037483215
1782776460049214000,6.6722138671875,0.7104362845420837,0.7538077235221863,0.7141014933586121
1782776460059245300,6.682245361328125,0.7452555894851685,0.7531968355178833,0.8130616545677185
1782776460069203000,6.692202880859375,0.7183775305747986,0.788627028465271,0.8234463334083557
1782776460079234000,6.702234130859375,0.6640105247497559,0.8436049222946167,0.7623597979545593
1782776460089222400,6.712222412109375,0.607810914516449,0.8680394887924194,0.6548475623130798
1782776460099222500,6.722222412109375,0.5626068711280823,0.8301658630371094,0.5351179838180542
1782776460109211400,6.73221142578125,0.5290092825889587,0.6951646208763123,0.41661009192466736
1782776460119242000,6.742241943359375,0.494189977645874,0.46547931432724,0.3066543638706207
1782776460129200400,6.752200439453125,0.47830748558044434,0.18570303916931152,0.22602014243602753
1782776460139231200,6.762231201171875,0.45875978469848633,-0.06352998316287994,0.1661553531885147
1782776460149219800,6.7722197265625,0.42760565876960754,-0.2583959996700287,0.11301007121801376
1782776460159221500,6.782221435546875,0.39645153284072876,-0.40683624148368835,0.05314527451992035
1782776460169209000,6.792208984375,0.37568211555480957,-0.4954117238521576,-0.021991148591041565
1782776460179240700,6.80224072265625,0.3439171314239502,-0.5143485069274902,-0.10873401165008545
1782776460189198000,6.812197998046875,0.2974913716316223,-0.46853363513946533,-0.182648703455925
1782776460199229700,6.822229736328125,0.23884831368923187,-0.3988949954509735,-0.23884831368923187
1782776460209217500,6.832217529296875,0.17898350954055786,-0.30970868468284607,-0.27061331272125244
1782776460219218700,6.84221875,0.13500121235847473,-0.17898350954055786,-0.24617868661880493
1782776460229206500,6.85220654296875,0.12400564551353455,-0.012828170321881771,-0.1563815027475357
1782776460239238100,6.862238037109375,0.14233160018920898,0.1466076523065567,-0.019547687843441963
1782776460249195500,6.872195556640625,0.1875356286764145,0.2632829248905182,0.13255776464939117
1782776460259227100,6.88222705078125,0.23396138846874237,0.32009339332580566,0.26083946228027344
1782776460269215200,6.89221533203125,0.2669481039047241,0.3292563557624817,0.3396410644054413
1782776460279246800,6.902246826171875,0.2773328125476837,0.3121521472930908,0.3787364661693573
1782776460289204000,6.912203857421875,0.2626720666885376,0.2871066629886627,0.3836233615875244
1782776460299235300,6.9222353515625,0.21441370248794556,0.25473082065582275,0.3579670190811157
1782776460309223400,6.932223388671875,0.1514945775270462,0.2217440903186798,0.31093040108680725
1782776460319224000,6.94222412109375,0.08429940044879913,0.17959438264369965,0.24984388053417206
1782776460339243800,6.962243896484375,-0.04398229718208313,0.0708603709936142,0.09285151958465576
1782776460349201700,6.97220166015625,-0.10384709388017654,0.012828170321881771,0.009162978269159794
1782776460359233000,6.98223291015625,-0.1618792861700058,-0.04886921867728233,-0.06719517707824707
1782776460369221000,6.99222119140625,-0.2174680233001709,-0.11362093687057495,-0.12278391420841217
1782776460379222000,7.002221923828125,-0.2724458873271942,-0.17898350954055786,-0.15821409225463867
1782776460389210000,7.012210205078125,-0.32009339332580566,-0.24007004499435425,-0.16798794269561768
1782776460399241200,7.0222412109375,-0.3604104816913605,-0.28955012559890747,-0.16065755486488342
1782776460409199000,7.03219921875,-0.403781920671463,-0.3286454975605011,-0.13805554807186127
1782776460419230200,7.042230224609375,-0.4740314185619354,-0.3689626157283783,-0.08491026610136032
1782776460429218800,7.05221875,-0.5161811113357544,-0.3836233615875244,-0.05803219974040985
1782776460439219200,7.06221923828125,-0.5650503635406494,-0.41172316670417786,-0.05497787147760391
1782776460449207800,7.072207763671875,-0.6218608021736145,-0.45326200127601624,-0.07330382615327835
1782776460459239000,7.082239013671875,-0.6707300543785095,-0.4807509481906891,-0.10262536257505417
1782776460469196800,7.09219677734375,-0.7159340381622314,-0.5027421116828918,-0.13805554807186127
1782776460479228000,7.102227783203125,-0.7617489695549011,-0.5180137157440186,-0.17104226350784302
1782776460489216500,7.112216552734375,-0.8032878041267395,-0.513737678527832,-0.19547687470912933
1782776460499217000,7.122216796875,-0.8454375267028809,-0.513737678527832,-0.21319197118282318
1782776460509205500,7.13220556640625,-0.8851437568664551,-0.5204572081565857,-0.2217440903186798
1782776460519236400,7.142236328125,-0.9108000993728638,-0.50335294008255,-0.21624629199504852
1782776460529224700,7.152224609375,-0.9144652485847473,-0.4398229718208313,-0.19303341209888458
1782776460539225600,7.1622255859375,-0.8985827565193176,-0.34697145223617554,-0.1667662113904953
1782776460549214000,7.1722138671875,-0.8698720932006836,-0.32559117674827576,-0.16554448008537292
1782776460559245000,7.1822451171875,-0.8515461683273315,-0.4355469346046448,-0.21991148591041565
1782776460569203000,7.192202880859375,-0.8875871896743774,-0.6841690540313721,-0.3640756905078888
1782776460579233500,7.202233642578125,-1.0042624473571777,-1.0085384845733643,-0.5839871764183044
1782776460589222700,7.21222265625,-1.2247848510742188,-1.3310753107070923,-0.912021815776825
1782776460599222300,7.22222216796875,-1.480737328529358,-1.522887110710144,-1.2791517972946167
1782776460609211400,7.23221142578125,-1.6792685985565186,-1.4672982692718506,-1.566258430480957
1782776460619242000,7.242241943359375,-1.813048005104065,-1.208902359008789,-1.6994271278381348
1782776460629200400,7.252200439453125,-1.863139033317566,-0.8246681094169617,-1.633453607559204
1782776460639232500,7.262232421875,-1.7971655130386353,-0.45326200127601624,-1.3866641521453857
1782776460649219800,7.2722197265625,-1.6413949728012085,-0.19853121042251587,-1.015868902206421
1782776460659221200,7.28222119140625,-1.4563027620315552,-0.09285151958465576,-0.6102544069290161
1782776460669206000,7.2922060546875,-1.2889256477355957,-0.11667526513338089,-0.24190263450145721
1782776460679237600,7.302237548828125,-1.141707181930542,-0.23396138846874237,0.05742133408784866
1782776460689195000,7.312195068359375,-1.0280861854553223,-0.3799581825733185,0.26633724570274353
1782776460699225300,7.322225341796875,-0.9749409556388855,-0.5229006409645081,0.37751471996307373
1782776460709214200,7.332214111328125,-0.9749409556388855,-0.627358615398407,0.3903428912162781
1782776460719214600,7.342214599609375,-0.9993755221366882,-0.6957755088806152,0.3280346393585205
1782776460729203500,7.352203369140625,-1.0317513942718506,-0.7434229850769043,0.19853121042251587
1782776460739234000,7.362234130859375,-1.0726794004440308,-0.779464066028595,0.03420845419168472
1782776460748916700,7.371916748046875,-1.1301007270812988,-0.8112290501594543,-0.1362229436635971
1782776460759223300,7.382223388671875,-1.2101240158081055,-0.8289441466331482,-0.28588494658470154
1782776460769212000,7.3922119140625,-1.3041973114013672,-0.8307767510414124,-0.40256020426750183
1782776460779242500,7.402242431640625,-1.4135421514511108,-0.817337691783905,-0.485027015209198
1782776460789201000,7.412200927734375,-1.5277739763259888,-0.7819074988365173,-0.5412266254425049
1782776460799231500,7.4222314453125,-1.6297885179519653,-0.7134906053543091,-0.5619960427284241
1782776460809220600,7.432220703125,-1.7275269031524658,-0.6108652353286743,-0.5522221922874451
1782776460819219700,7.4422197265625,-1.8167132139205933,-0.4899139404296875,-0.523511528968811
1782776460829209000,7.452208984375,-1.884519338607788,-0.3805690407752991,-0.48380526900291443
1782776460839239400,7.462239501953125,-1.93766450881958,-0.26633724570274353,-0.3995058834552765
1782776460849198000,7.472197998046875,-1.940108060836792,-0.22418753802776337,-0.3182607889175415
1782776460859228700,7.482228759765625,-1.919338583946228,-0.21441370248794556,-0.21441370248794556
1782776460869217500,7.492217529296875,-1.882686734199524,-0.22540926933288574,-0.08979719132184982
1782776460879217700,7.5022177734375,-1.8472565412521362,-0.24190263450145721,0.04153883829712868
1782776460889206500,7.51220654296875,-1.8313740491867065,-0.2675589919090271,0.1569923609495163
1782776460899237000,7.522237060546875,-1.8380935192108154,-0.3017674386501312,0.2382374405860901
1782776460909195500,7.532195556640625,-1.8594738245010376,-0.3323107063770294,0.28038713335990906
1782776460919226600,7.5422265625,-1.8918496370315552,-0.3549126982688904,0.28038713335990906
1782776460929215700,7.5522158203125,-1.9449949264526367,-0.3695734739303589,0.23396138846874237
1782776460939216000,7.5622158203125,-2.004859685897827,-0.3799581825733185,0.15393804013729095
1782776460949204700,7.572204833984375,-2.0622811317443848,-0.3677408695220947,0.06536258012056351
1782776460959235300,7.5822353515625,-2.1093177795410156,-0.3335324227809906,-0.013439035043120384
1782776460969193700,7.59219384765625,-2.143526077270508,-0.29016098380088806,-0.059864792972803116
1782776460979224300,7.602224365234375,-2.1624629497528076,-0.24129177629947662,-0.05253441259264946
1782776460989213200,7.612213134765625,-2.166128158569336,-0.18936823308467865,0.01466076634824276
1782776460999213300,7.62221337890625,-2.157576084136963,-0.14538592100143433,0.13377949595451355
1782776461009202200,7.6322021484375,-2.1423044204711914,-0.12767083942890167,0.2742784917354584
1782776461019232800,7.642232666015625,-2.1264219284057617,-0.13866640627384186,0.3988949954509735
1782776461029221600,7.6522216796875,-2.1172590255737305,-0.17470745742321014,0.48319441080093384
1782776461039222000,7.662221923828125,-2.1233675479888916,-0.21868975460529327,0.5192354321479797
1782776461049211000,7.6722109375,-2.1453588008880615,-0.26145032048225403,0.5076290369033813
1782776461059241500,7.682241455078125,-2.1813998222351074,-0.27977627515792847,0.46670106053352356
1782776461069200000,7.692199951171875,-2.2125539779663086,-0.26450464129447937,0.4147774875164032
1782776461079230200,7.702230224609375,-2.233323335647583,-0.2382374405860901,0.3738495409488678
1782776461089219300,7.71221923828125,-2.252260208129883,-0.22357667982578278,0.3396410644054413
1782776461099219500,7.722219482421875,-2.269364356994629,-0.22296582162380219,0.30482175946235657
1782776461109208300,7.732208251953125,-2.2705860137939453,-0.22540926933288574,0.26939156651496887
1782776461119239000,7.742239013671875,-2.253481864929199,-0.22663100063800812,0.23640485107898712
1782776461129197300,7.752197265625,-2.235766887664795,-0.2321287989616394,0.20341812074184418
1782776461139228200,7.762228271484375,-2.214386463165283,-0.23640485107898712,0.16920967400074005
1782776461149216800,7.772216796875,-2.1923954486846924,-0.2382374405860901,0.1362229436635971
1782776461159217000,7.782216796875,-2.1795670986175537,-0.23396138846874237,0.09529497474431992
1782776461169206000,7.7922060546875,-2.1655173301696777,-0.22052235901355743,0.051312681287527084
1782776461179237600,7.802237548828125,-2.1447479724884033,-0.19547687470912933,0.006108652334660292
1782776461189194800,7.81219482421875,-2.1172590255737305,-0.17531833052635193,-0.042760565876960754
1782776461199227000,7.822226806640625,-2.088548183441162,-0.16554448008537292,-0.09529497474431992
1782776461209214200,7.832214111328125,-2.049452781677246,-0.16432274878025055,-0.14355333149433136
1782776461219216000,7.8422158203125,-1.9901989698410034,-0.16554448008537292,-0.1765400618314743
1782776461229203500,7.852203369140625,-1.9242255687713623,-0.19058994948863983,-0.19058994948863983
1782776461239263700,7.862263671875,-1.853365182876587,-0.22296582162380219,-0.18509216606616974
1782776461249192400,7.8721923828125,-1.7812830209732056,-0.251676470041275,-0.1716531366109848
1782776461259224300,7.882224365234375,-1.7189748287200928,-0.2736676335334778,-0.15821409225463867
1782776461269212200,7.892212158203125,-1.6603317260742188,-0.2571742534637451,-0.14294247329235077
1782776461279243800,7.902243896484375,-1.6371188163757324,-0.20036379992961884,-0.12339477986097336
1782776461289201200,7.912201171875,-1.6157386302947998,-0.09712757170200348,-0.0959058403968811
1782776461299232300,7.922232177734375,-1.5876387357711792,-0.028099801391363144,-0.07391469180583954
1782776461309220400,7.932220458984375,-1.5351043939590454,-0.09040805697441101,-0.08368854224681854
1782776461319221200,7.94222119140625,-1.4953981637954712,-0.2919935882091522,-0.1362229436635971
1782776461329209600,7.952209716796875,-1.5027284622192383,-0.5558874011039734,-0.23884831368923187
1782776461339240200,7.962240234375,-1.5693128108978271,-0.7531968355178833,-0.3787364661693573
1782776461349198600,7.972198486328125,-1.6774359941482544,-0.7996225953102112,-0.5326744914054871
1782776461359229200,7.982229248046875,-1.7959438562393188,-0.7202101349830627,-0.6352998614311218
1782776461369218000,7.992218017578125,-1.8759671449661255,-0.5626068711280823,-0.6481280326843262
1782776461379219500,8.002219482421875,-1.8961256742477417,-0.3897320330142975,-0.5729916095733643
1782776461389207000,8.01220703125,-1.8967366218566895,-0.11362093687057495,-0.3182607889175415
1782776461399239000,8.022239013671875,-1.8661932945251465,-0.1368338167667389,-0.09651670604944229
1782776461409196000,8.032196044921875,-1.7495180368423462,-0.23884831368923187,0.056810468435287476
1782776461419227000,8.042226806640626,-1.5436564683914185,-0.3139847218990326,0.1459967941045761
1782776461429215500,8.052215576171875,-1.3365731239318848,-0.37201693654060364,0.17776179313659668
1782776461439215900,8.0622158203125,-1.1856894493103027,-0.3433062732219696,0.22663100063800812
1782776461449204700,8.072204833984374,-1.1020009517669678,-0.28955012559890747,0.30482175946235657
