time,seconds_elapsed,z,y,x
1782776391239384000,0.177384033203125,-0.6059783101081848,-0.12400564551353455,0.13316862285137177
1782776391249220000,0.18722021484375,-0.6310238242149353,-0.12950342893600464,0.1411098688840866
1782776391259251500,0.19725146484375,-0.6481280326843262,-0.1508837193250656,0.152105450630188
1782776391269239600,0.207239501953125,-0.6591235995292664,-0.21074850857257843,0.18570303916931152
1782776391279271200,0.217271240234375,-0.6609562039375305,-0.28588494658470154,0.21013765037059784
1782776391289228500,0.227228515625,-0.6609562039375305,-0.37629300355911255,0.22479841113090515
1782776391299260000,0.237260009765625,-0.6591235995292664,-0.4605923891067505,0.21868975460529327
1782776391309248300,0.247248291015625,-0.6585127115249634,-0.5522221922874451,0.2021963894367218
1782776391319249000,0.257248779296875,-0.6591235995292664,-0.6188064813613892,0.18875735998153687
1782776391329237200,0.2672373046875,-0.6542366743087769,-0.6798930168151855,0.18325957655906677
1782776391339268400,0.277268310546875,-0.6487388610839844,-0.7434229850769043,0.18631389737129211
1782776391349226200,0.287226318359375,-0.6407976150512695,-0.8093964457511902,0.2015855312347412
1782776391359257300,0.29725732421875,-0.637132465839386,-0.8808676600456238,0.22968533635139465
1782776391369245700,0.30724560546875,-0.6505714654922485,-0.9388998746871948,0.2541199326515198
1782776391379246300,0.317246337890625,-0.665232241153717,-0.9767735004425049,0.24678955972194672
1782776391389234700,0.327234619140625,-0.6585127115249634,-0.978606104850769,0.22540926933288574
1782776391399265800,0.337265869140625,-0.6517932415008545,-0.9731083512306213,0.19303341209888458
1782776391409223700,0.3472236328125,-0.645684540271759,-0.96883225440979,0.16920967400074005
1782776391419254800,0.3572548828125,-0.636521577835083,-0.940732479095459,0.16554448008537292
1782776391429243400,0.367243408203125,-0.6285803318023682,-0.8851437568664551,0.17409659922122955
1782776391439243800,0.377243896484375,-0.6255260109901428,-0.8203920125961304,0.18387043476104736
1782776391449232400,0.387232421875,-0.6383541822433472,-0.7531968355178833,0.18814650177955627
1782776391459263500,0.397263427734375,-0.6682865619659424,-0.7177666425704956,0.17470745742321014
1782776391469221400,0.407221435546875,-0.7128797173500061,-0.7550294399261475,0.13988813757896423
1782776391479252500,0.41725244140625,-0.759916365146637,-0.8729264140129089,0.0861319974064827
1782776391489240600,0.427240478515625,-0.8112290501594543,-1.0427470207214355,0.019547687843441963
1782776391499241200,0.4372412109375,-0.8576548099517822,-1.23394775390625,-0.04581489413976669
1782776391509229800,0.447229736328125,-0.9187413454055786,-1.4220943450927734,-0.10262536257505417
1782776391519260400,0.457260498046875,-0.9902125597000122,-1.5363260507583618,-0.15332718193531036
1782776391529249300,0.467249267578125,-1.0458012819290161,-1.547932505607605,-0.20586158335208893
1782776391539249400,0.47724951171875,-1.0739010572433472,-1.4611896276474,-0.24129177629947662
1782776391549238500,0.487238525390625,-1.10139000415802,-1.313360333442688,-0.2480112910270691
1782776391559269600,0.49726953125,-1.1044443845748901,-1.1594222784042358,-0.26022860407829285
1782776391569227300,0.507227294921875,-1.0879509449005127,-1.0170906782150269,-0.2736676335334778
1782776391579259000,0.5172587890625,-1.064738154411316,-0.9065240025520325,-0.28955012559890747
1782776391589247000,0.5272470703125,-1.0409144163131714,-0.8484918475151062,-0.30115658044815063
1782776391599248000,0.537247802734375,-1.0152580738067627,-0.8136724829673767,-0.3078760802745819
1782776391609236000,0.547236083984375,-0.99876469373703,-0.770301103591919,-0.2993239760398865
1782776391619266800,0.557266845703125,-0.988379955291748,-0.7171558141708374,-0.2889392673969269
1782776391629225000,0.567224853515625,-0.9810495972633362,-0.6383541822433472,-0.28038713335990906
1782776391639255800,0.577255859375,-0.9547823667526245,-0.5180137157440186,-0.26572638750076294
1782776391649244400,0.587244384765625,-0.9199630618095398,-0.37201693654060364,-0.24617868661880493
1782776391659244500,0.59724462890625,-0.8845328688621521,-0.21624629199504852,-0.22357667982578278
1782776391668798500,0.606798583984375,-0.8607091307640076,-0.07391469180583954,-0.20036379992961884
1782776391679264000,0.617263916015625,-0.8411614298820496,0.04337143152952194,-0.16493362188339233
1782776391689222400,0.627222412109375,-0.8319984674453735,0.13255776464939117,-0.11789698898792267
1782776391699253200,0.637253173828125,-0.836885392665863,0.20586158335208893,-0.04764748737215996
1782776391709242000,0.6472421875,-0.8423831462860107,0.2272418737411499,-0.016493361443281174
1782776391719242200,0.6572421875,-0.8448266386985779,0.22479841113090515,-0.02015855349600315
1782776391729231000,0.667231201171875,-0.8393288254737854,0.19792033731937408,-0.05497787147760391
1782776391739262500,0.677262451171875,-0.8234463334083557,0.1514945775270462,-0.11911872029304504
1782776391749220000,0.68722021484375,-0.8045095205307007,0.07696902006864548,-0.21868975460529327
1782776391759251700,0.697251708984375,-0.7776314616203308,-0.00366519158706069,-0.35185837745666504
1782776391769239600,0.707239501953125,-0.7525860071182251,-0.06719517707824707,-0.5057964324951172
1782776391779270400,0.7172705078125,-0.7330383062362671,-0.1014036312699318,-0.6707300543785095
1782776391789228800,0.727228759765625,-0.7122688889503479,-0.08307767659425735,-0.8216137290000916
1782776391799259100,0.737259033203125,-0.6884451508522034,-0.01038470957428217,-0.940732479095459
1782776391809248300,0.747248291015625,-0.665232241153717,0.09834930300712585,-1.0170906782150269
1782776391819247900,0.757247802734375,-0.6328563690185547,0.21074850857257843,-1.0525208711624146
1782776391829068800,0.76706884765625,-0.5839871764183044,0.303600013256073,-1.0348057746887207
1782776391839267600,0.777267578125,-0.5204572081565857,0.3781255781650543,-0.9676105380058289
1782776391849225700,0.787225830078125,-0.44287729263305664,0.42638394236564636,-0.8570439219474792
1782776391859256800,0.7972568359375,-0.3536909818649292,0.4550946056842804,-0.7092145681381226
1782776391869245200,0.8072451171875,-0.26022860407829285,0.44654250144958496,-0.543059229850769
1782776391879245800,0.817245849609375,-0.18020524084568024,0.4141666293144226,-0.38240164518356323
1782776391889234200,0.827234130859375,-0.11423180252313614,0.36713001132011414,-0.24495697021484375
1782776391899265500,0.837265625,-0.0555887371301651,0.3280346393585205,-0.1215621829032898
1782776391909223200,0.84722314453125,-0.016493361443281174,0.2919935882091522,-0.018936822190880775
1782776391919254300,0.857254150390625,-0.0006108652451075613,0.24923302233219147,0.06963863968849182
1782776391929243400,0.867243408203125,-0.001832595793530345,0.2015855312347412,0.14477506279945374
1782776391939243300,0.8772431640625,-0.01466076634824276,0.15943582355976105,0.2125810980796814
1782776391949232400,0.887232421875,-0.045204028487205505,0.13500121235847473,0.2675589919090271
1782776391959262700,0.8972626953125,-0.09468411654233932,0.1258382350206375,0.30115658044815063
1782776391969221400,0.907221435546875,-0.14049901068210602,0.13988813757896423,0.3090978264808655
1782776391979252500,0.91725244140625,-0.16432274878025055,0.16920967400074005,0.2932153046131134
1782776391989240600,0.927240478515625,-0.1722639948129654,0.2021963894367218,0.25595253705978394
1782776391999241500,0.937241455078125,-0.17043140530586243,0.2278527319431305,0.20525072515010834
1782776392009229800,0.947229736328125,-0.16493362188339233,0.23884831368923187,0.14416420459747314
1782776392019261000,0.957260986328125,-0.15027284622192383,0.2382374405860901,0.08246681094169617
1782776392029249300,0.967249267578125,-0.1313360333442688,0.22357667982578278,0.02382374368607998
1782776392039250000,0.97725,-0.10995574295520782,0.21319197118282318,-0.016493361443281174
1782776392049238500,0.987238525390625,-0.0861319974064827,0.22418753802776337,-0.036651913076639175
1782776392059269600,0.99726953125,-0.0555887371301651,0.251676470041275,-0.031154127791523933
1782776392069227300,1.007227294921875,-0.02382374368607998,0.2816088795661926,-0.014049900695681572
1782776392079258600,1.017258544921875,0.012217304669320583,0.3078760802745819,0.01038470957428217
1782776392089246700,1.027246826171875,0.05864306539297104,0.34758231043815613,0.04092797264456749
1782776392099247600,1.03724755859375,0.13377949595451355,0.423329621553421,0.07880161702632904
1782776392109236000,1.047236083984375,0.2480112910270691,0.5308418869972229,0.13377949595451355
1782776392119267000,1.05726708984375,0.4948008358478546,0.5479460954666138,0.24007004499435425
1782776392129225000,1.067224853515625,0.6218608021736145,0.4031710624694824,0.25595253705978394
1782776392139256300,1.07725634765625,0.6530149579048157,0.17287486791610718,0.192422553896904
1782776392149244400,1.087244384765625,0.5962044596672058,-0.07391469180583954,0.056810468435287476
1782776392159244500,1.09724462890625,0.4905247986316681,-0.2919935882091522,-0.12461651116609573
1782776392169233400,1.1072333984375,0.36224308609962463,-0.44287729263305664,-0.3121521472930908
1782776392179264000,1.117263916015625,0.23029619455337524,-0.4856378734111786,-0.46181413531303406
1782776392189222400,1.127222412109375,0.11545353382825851,-0.4300491213798523,-0.5546656250953674
1782776392199253500,1.13725341796875,0.04581489413976669,-0.3017674386501312,-0.5839871764183044
1782776392209241900,1.147241943359375,0.045204028487205505,-0.0959058403968811,-0.5564982295036316
1782776392219243300,1.1572431640625,0.11423180252313614,0.2076941877603531,-0.47830748558044434
1782776392229231000,1.167231201171875,0.23884831368923187,0.5418374538421631,-0.3396410644054413
1782776392239262700,1.1772626953125,0.40072759985923767,0.8704829812049866,-0.14905111491680145
1782776392249220000,1.18722021484375,0.5687155723571777,1.13926362991333,0.06841690838336945
1782776392259251700,1.197251708984375,0.6890559792518616,1.282817006111145,0.2632829248905182
1782776392269239800,1.20723974609375,0.759916365146637,1.2870930433273315,0.4178318381309509
1782776392279271000,1.21727099609375,0.8124507665634155,1.177748203277588,0.5363397002220154
1782776392289228500,1.227228515625,0.8399397134780884,0.9877691268920898,0.6194173693656921
1782776392299259600,1.237259765625,0.8448266386985779,0.7293730974197388,0.6646214127540588
1782776392309248000,1.247248046875,0.827722430229187,0.39706242084503174,0.66584312915802
1782776392319249000,1.257248779296875,0.8063421249389648,-0.004886921960860491,0.6206390857696533
1782776392329237200,1.2672373046875,0.7904596328735352,-0.45631635189056396,0.513737678527832
1782776392339268600,1.2772685546875,0.7715228199958801,-0.9138544201850891,0.3225368559360504
1782776392349226800,1.287226806640625,0.7519751191139221,-1.2870930433273315,0.08246681094169617
1782776392359256800,1.2972568359375,0.7031059265136719,-1.482569932937622,-0.13439035415649414
1782776392369245700,1.30724560546875,0.5845980644226074,-1.4831807613372803,-0.2877175211906433
1782776392379245600,1.31724560546875,0.394618958234787,-1.3139711618423462,-0.3530801236629486
1782776392389234700,1.327234619140625,0.19792033731937408,-0.9578366875648499,-0.3017674386501312
1782776392399265300,1.337265380859375,0.06108652427792549,-0.46181413531303406,-0.14294247329235077
1782776392409223700,1.3472236328125,0.005497787147760391,0.031154127791523933,0.06475171446800232
1782776392419255300,1.35725537109375,0.015271631069481373,0.4043927788734436,0.25534167885780334
1782776392429243400,1.367243408203125,0.060475658625364304,0.665232241153717,0.3982841372489929
1782776392439244300,1.377244384765625,0.15393804013729095,0.846659243106842,0.5125159621238708
1782776392449232400,1.387232421875,0.2791654169559479,0.9517280459403992,0.608421802520752
1782776392459263500,1.397263427734375,0.40683624148368835,0.9773843884468079,0.6829473376274109
1782776392469221400,1.407221435546875,0.513126790523529,0.930347740650177,0.7318165898323059
1782776392479252500,1.41725244140625,0.5919284224510193,0.8381071090698242,0.7544185519218445
1782776392489240600,1.427240478515625,0.6383541822433472,0.7153232097625732,0.7409795522689819
1782776392499243800,1.437243896484375,0.6603453159332275,0.5699372887611389,0.6969972252845764
1782776392509229800,1.447229736328125,0.6438519954681396,0.40133845806121826,0.617584764957428
1782776392519263200,1.45726318359375,0.5943718552589417,0.20036379992961884,0.49724429845809937
1782776392529249300,1.467249267578125,0.5222898125648499,-0.03481931984424591,0.34513887763023376
1782776392539252500,1.47725244140625,0.3781255781650543,-0.40133845806121826,0.07696902006864548
1782776392549238500,1.487238525390625,0.2730567753314972,-0.6126978397369385,-0.1062905490398407
1782776392559269600,1.49726953125,0.2028072625398636,-0.7428121566772461,-0.2669481039047241
1782776392569227300,1.507227294921875,0.16859880089759827,-0.7971791625022888,-0.39706242084503174
1782776392579258600,1.517258544921875,0.1368338167667389,-0.8087855577468872,-0.4954117238521576
1782776392589246700,1.527246826171875,0.10445795953273773,-0.789237916469574,-0.5491678714752197
1782776392599247600,1.53724755859375,0.07269296050071716,-0.7629706859588623,-0.5662720799446106
1782776392609236000,1.547236083984375,0.03787364438176155,-0.7611380815505981,-0.5522221922874451
1782776392619267000,1.55726708984375,-0.00366519158706069,-0.7782423496246338,-0.5155702829360962
1782776392629225000,1.567224853515625,-0.060475658625364304,-0.7935139536857605,-0.45753806829452515
1782776392639255300,1.57725537109375,-0.13011430203914642,-0.797789990901947,-0.3891211748123169
1782776392649244700,1.58724462890625,-0.20463985204696655,-0.7916813492774963,-0.31581732630729675
1782776392659244300,1.597244384765625,-0.2828305959701538,-0.7684684991836548,-0.24923302233219147
1782776392669233400,1.6072333984375,-0.3597996234893799,-0.7165449261665344,-0.19364428520202637
1782776392679264000,1.617263916015625,-0.4300491213798523,-0.636521577835083,-0.1514945775270462
1782776392689222400,1.627222412109375,-0.4911356568336487,-0.5222898125648499,-0.11972958594560623
1782776392699253500,1.63725341796875,-0.5241223573684692,-0.3378084897994995,-0.08796459436416626
1782776392709241900,1.647241943359375,-0.5064072608947754,-0.12095131725072861,-0.04764748737215996
1782776392719243000,1.657242919921875,-0.4544837474822998,-0.04703662544488907,-0.02382374368607998
1782776392729231000,1.667231201171875,-0.41233405470848083,-0.14049901068210602,-0.02871066704392433
1782776392739262000,1.677261962890625,-0.4001167416572571,-0.304210901260376,-0.06108652427792549
1782776392749220400,1.687220458984375,-0.42699480056762695,-0.49724429845809937,-0.12950342893600464
1782776392759250700,1.697250732421875,-0.494189977645874,-0.6823364496231079,-0.2376265823841095
1782776392769239600,1.707239501953125,-0.5974262356758118,-0.7916813492774963,-0.3628539443016052
1782776392779270100,1.717270263671875,-0.7110471725463867,-0.8045095205307007,-0.4715879559516907
1782776392789228500,1.727228515625,-0.8118399381637573,-0.7318165898323059,-0.5552765130996704
1782776392799259400,1.73725927734375,-0.8692612648010254,-0.6212499737739563,-0.5992587804794312
1782776392809248300,1.747248291015625,-0.8863654732704163,-0.523511528968811,-0.6108652353286743
1782776392819247400,1.757247314453125,-0.8680394887924194,-0.46853363513946533,-0.6035348773002625
1782776392829236700,1.76723681640625,-0.8381071090698242,-0.4392121136188507,-0.5937610268592834
1782776392839267300,1.777267333984375,-0.8484918475151062,-0.42088615894317627,-0.5809328556060791
1782776392849225700,1.787225830078125,-0.8918632864952087,-0.40194934606552124,-0.5607742667198181
1782776392859256300,1.79725634765625,-0.9523389339447021,-0.35735616087913513,-0.5125159621238708
1782776392869245200,1.8072451171875,-1.0170906782150269,-0.28527405858039856,-0.42088615894317627
1782776392879245300,1.817245361328125,-1.0494664907455444,-0.18936823308467865,-0.2822197377681732
1782776392889234200,1.827234130859375,-1.0519099235534668,-0.08552113175392151,-0.12522737681865692
1782776392899265000,1.83726513671875,-1.0195341110229492,0.003054326167330146,0.02932153269648552
1782776392909223200,1.84722314453125,-0.970054030418396,0.08429940044879913,0.16737708449363708
1782776392919254500,1.857254638671875,-0.9193521738052368,0.14905111491680145,0.28649580478668213
1782776392929243100,1.8672431640625,-0.8772025108337402,0.1966986060142517,0.3897320330142975
1782776392939243300,1.8772431640625,-0.8405506014823914,0.22052235901355743,0.4795292317867279
1782776392949232400,1.887232421875,-0.816726803779602,0.21502456068992615,0.5314527750015259
1782776392959263000,1.897262939453125,-0.778853178024292,0.18509216606616974,0.5479460954666138
1782776392969221400,1.907221435546875,-0.7525860071182251,0.16004669666290283,0.5271766781806946
1782776392979251700,1.917251708984375,-0.7214318513870239,0.11789698898792267,0.48319441080093384
1782776392989240800,1.92724072265625,-0.6914994716644287,0.06963863968849182,0.4202753007411957
1782776392999241000,1.937240966796875,-0.6682865619659424,0.01710422709584236,0.3335324227809906
1782776393009229800,1.947229736328125,-0.6627888083457947,-0.03787364438176155,0.21624629199504852
1782776393019260700,1.9572607421875,-0.6835582256317139,-0.11484266817569733,0.054367005825042725
1782776393029249300,1.967249267578125,-0.7092145681381226,-0.19975294172763824,-0.12767083942890167
1782776393039249400,1.97724951171875,-0.7446447610855103,-0.2791654169559479,-0.3066543638706207
1782776393049238300,1.98723828125,-0.788016140460968,-0.34086281061172485,-0.45814892649650574
1782776393059268900,1.997268798828125,-0.827111542224884,-0.36590829491615295,-0.5711590051651001
1782776393069227300,2.007227294921875,-0.8411614298820496,-0.3549126982688904,-0.6395758986473083
1782776393079257900,2.0172578125,-0.8356636762619019,-0.3219259977340698,-0.6695083379745483
1782776393089246700,2.027246826171875,-0.789237916469574,-0.28038713335990906,-0.6591235995292664
1782776393099247600,2.03724755859375,-0.7153232097625732,-0.21624629199504852,-0.6114761233329773
1782776393109236000,2.047236083984375,-0.6407976150512695,-0.13377949595451355,-0.523511528968811
1782776393119267300,2.057267333984375,-0.5546656250953674,-0.031154127791523933,-0.41111230850219727
1782776393129225000,2.067224853515625,-0.46731191873550415,0.0757472887635231,-0.27977627515792847
1782776393139256300,2.07725634765625,-0.39584067463874817,0.15515977144241333,-0.13561208546161652
1782776393149244700,2.08724462890625,-0.34086281061172485,0.20097467303276062,-0.0012217304902151227
1782776393159244500,2.09724462890625,-0.2974913716316223,0.2223549485206604,0.12461651116609573
1782776393169233400,2.1072333984375,-0.27000242471694946,0.2278527319431305,0.2382374405860901
1782776393179264000,2.117263916015625,-0.2528982162475586,0.2168571650981903,0.3219259977340698
1782776393189222700,2.12722265625,-0.23945917189121246,0.21074850857257843,0.3744603991508484
1782776393199253000,2.1372529296875,-0.23945917189121246,0.2168571650981903,0.39095374941825867
1782776393209242000,2.1472421875,-0.24617868661880493,0.23884831368923187,0.37079519033432007
1782776393219274500,2.1572744140625,-0.26145032048225403,0.26939156651496887,0.323147714138031
1782776393229231000,2.167231201171875,-0.28038713335990906,0.30482175946235657,0.26145032048225403
1782776393239294000,2.1772939453125,-0.3017674386501312,0.342695415019989,0.19547687470912933
1782776393249220000,2.18722021484375,-0.32559117674827576,0.38179078698158264,0.11972958594560623
1782776393259252700,2.197252685546875,-0.35124751925468445,0.42088615894317627,0.0354301854968071
1782776393269239600,2.207239501953125,-0.3787364661693573,0.4544837474822998,-0.059864792972803116
1782776393279273000,2.21727294921875,-0.4141666293144226,0.4697553813457489,-0.1563815027475357
1782776393289228500,2.227228515625,-0.4502076804637909,0.45142942667007446,-0.2431243658065796
1782776393299259600,2.237259765625,-0.4709770977497101,0.3982841372489929,-0.31581732630729675
1782776393309248300,2.247248291015625,-0.4691445231437683,0.3323107063770294,-0.3683517575263977
1782776393319249000,2.257248779296875,-0.44654250144958496,0.27550023794174194,-0.40194934606552124
1782776393329237000,2.267237060546875,-0.41233405470848083,0.22907446324825287,-0.41599923372268677
1782776393339268400,2.277268310546875,-0.37079519033432007,0.20952677726745605,-0.4092797040939331
1782776393349226200,2.287226318359375,-0.32620203495025635,0.21074850857257843,-0.38667771220207214
1782776393359257300,2.29725732421875,-0.28038713335990906,0.23029619455337524,-0.35124751925468445
1782776393369246000,2.307245849609375,-0.22540926933288574,0.27611109614372253,-0.313373863697052
1782776393379246300,2.317246337890625,-0.10384709388017654,0.38728857040405273,-0.2535090744495392
1782776393389234700,2.327234619140625,0.015882495790719986,0.3933972120285034,-0.21563543379306793
1782776393399265800,2.337265869140625,0.15454891324043274,0.2883284091949463,-0.19547687470912933
1782776393409223700,2.3472236328125,0.2321287989616394,0.15393804013729095,-0.20891591906547546
1782776393419254800,2.3572548828125,0.21563543379306793,0.05497787147760391,-0.2626720666885376
1782776393429243100,2.3672431640625,0.14477506279945374,-0.00366519158706069,-0.34086281061172485
1782776393439243300,2.3772431640625,0.04642575979232788,-0.03481931984424591,-0.413555771112442
1782776393449232400,2.387232421875,-0.06108652427792549,-0.036041051149368286,-0.45631635189056396
1782776393459263500,2.397263427734375,-0.1563815027475357,0.003054326167330146,-0.45142942667007446
1782776393469221400,2.407221435546875,-0.20830504596233368,0.07880161702632904,-0.42210787534713745
1782776393479252200,2.417252197265625,-0.18570303916931152,0.24373523890972137,-0.3781255781650543
1782776393489240800,2.42724072265625,-0.10995574295520782,0.39584067463874817,-0.34758231043815613
1782776393499242200,2.4372421875,0.01160643994808197,0.5314527750015259,-0.31093040108680725
1782776393509229800,2.447229736328125,0.16310101747512817,0.7385360598564148,-0.23335053026676178
1782776393519261400,2.457261474609375,0.31154128909111023,0.9517280459403992,-0.11362093687057495
1782776393529249300,2.467249267578125,0.40256020426750183,1.0903944969177246,0.019547687843441963
1782776393539249700,2.477249755859375,0.42760565876960754,1.1575896739959717,0.13988813757896423
1782776393549238500,2.487238525390625,0.42210787534713745,1.1630873680114746,0.2376265823841095
1782776393559269600,2.49726953125,0.4098905920982361,1.1087204217910767,0.3127630054950714
1782776393569227500,2.5072275390625,0.3897320330142975,1.015868902206421,0.37751471996307373
1782776393579258600,2.517258544921875,0.36224308609962463,0.8949176073074341,0.423329621553421
1782776393589246700,2.527246826171875,0.3286454975605011,0.7305948138237,0.4404338300228119
1782776393599247600,2.53724755859375,0.304210901260376,0.5326744914054871,0.423329621553421
1782776393609236000,2.547236083984375,0.28466320037841797,0.3084869384765625,0.3830125033855438
1782776393619266600,2.5572666015625,0.2889392673969269,0.03420845419168472,0.2993239760398865
1782776393629225000,2.567224853515625,0.3188716471195221,-0.313373863697052,0.15943582355976105
1782776393639256300,2.57725634765625,0.3530801236629486,-0.7354817390441895,-0.05009094998240471
1782776393649244400,2.587244384765625,0.3793473243713379,-1.150259256362915,-0.3090978264808655
1782776393659244500,2.59724462890625,0.3732386529445648,-1.4581353664398193,-0.5540547966957092
1782776393669233400,2.6072333984375,0.28466320037841797,-1.607797384262085,-0.7476990818977356
1782776393679264000,2.617263916015625,0.1368338167667389,-1.5821410417556763,-0.8558222055435181
1782776393689222700,2.62722265625,-0.016493361443281174,-1.3475687503814697,-0.8478809595108032
1782776393699254300,2.637254150390625,-0.12522737681865692,-0.9205739498138428,-0.7305948138237
1782776393709242000,2.6472421875,-0.1661553531885147,-0.4434881806373596,-0.5467243790626526
1782776393719365000,2.657365234375,-0.1417207419872284,-0.03298672288656235,-0.342695415019989
1782776393729231000,2.667231201171875,-0.06475171446800232,0.2620611786842346,-0.14782938361167908
1782776393739262700,2.6772626953125,0.03726277872920036,0.4129449129104614,0.022602014243602753
1782776393749220400,2.687220458984375,0.1466076523065567,0.45875978469848633,0.17409659922122955
1782776393759251700,2.697251708984375,0.2577851414680481,0.4355469346046448,0.3029891550540924
1782776393769239800,2.70723974609375,0.34758231043815613,0.37201693654060364,0.3952298164367676
1782776393779270700,2.717270751953125,0.40194934606552124,0.2871066629886627,0.44654250144958496
1782776393789228800,2.727228759765625,0.4141666293144226,0.18875735998153687,0.44654250144958496
1782776393799259600,2.737259765625,0.3830125033855438,0.07696902006864548,0.40072759985923767
1782776393809248300,2.747248291015625,0.27611109614372253,-0.10323622822761536,0.25106561183929443
1782776393819247000,2.7572470703125,0.18081611394882202,-0.22418753802776337,0.10506882518529892
1782776393829236700,2.76723681640625,0.07819075137376785,-0.33536502718925476,-0.06352998316287994
1782776393839267000,2.77726708984375,-0.018936822190880775,-0.4355469346046448,-0.24068090319633484
1782776393849225700,2.787225830078125,-0.10445795953273773,-0.513126790523529,-0.413555771112442
1782776393859256800,2.7972568359375,-0.1661553531885147,-0.5613851547241211,-0.5571091175079346
1782776393869245200,2.8072451171875,-0.21074850857257843,-0.5900958180427551,-0.655458390712738
1782776393879245800,2.817245849609375,-0.25595253705978394,-0.618195652961731,-0.7086036801338196
1782776393889234200,2.827234130859375,-0.2938261926174164,-0.646906316280365,-0.7165449261665344
1782776393899265300,2.837265380859375,-0.31459560990333557,-0.6505714654922485,-0.6792821288108826
1782776393909223200,2.84722314453125,-0.32498031854629517,-0.6243042945861816,-0.6023131608963013
1782776393919254800,2.8572548828125,-0.33108896017074585,-0.5803219676017761,-0.4990769028663635
1782776393929243400,2.867243408203125,-0.3378084897994995,-0.5265658497810364,-0.3836233615875244
1782776393939243300,2.8772431640625,-0.3536909818649292,-0.4856378734111786,-0.2718350291252136
1782776393949232400,2.887232421875,-0.3878994286060333,-0.4660901725292206,-0.17959438264369965
1782776393959262700,2.8972626953125,-0.43676865100860596,-0.4703662395477295,-0.11178833991289139
1782776393969221400,2.907221435546875,-0.4911356568336487,-0.4862487316131592,-0.07024950534105301
1782776393979252000,2.917251953125,-0.5436700582504272,-0.5112941861152649,-0.048258353024721146
1782776393989240600,2.927240478515625,-0.5955936312675476,-0.5265658497810364,-0.03298672288656235
1782776393999241000,2.937240966796875,-0.6420193910598755,-0.5180137157440186,-0.018936822190880775
1782776394009229800,2.947229736328125,-0.6811147332191467,-0.4905247986316681,0.004886921960860491
1782776394019260700,2.9572607421875,-0.7183775305747986,-0.4300491213798523,0.042760565876960754
1782776394029249300,2.967249267578125,-0.7434229850769043,-0.3292563557624817,0.08796459436416626
1782776394039250200,2.977250244140625,-0.7458664774894714,-0.2681698501110077,0.1313360333442688
1782776394049238300,2.98723828125,-0.7257078886032104,-0.3017674386501312,0.1459967941045761
1782776394059269000,2.99726904296875,-0.7116580009460449,-0.4294382631778717,0.1014036312699318
1782776394069227300,3.007227294921875,-0.7605272531509399,-0.6914994716644287,-0.021380282938480377
1782776394079258000,3.017258056640625,-0.8790351152420044,-1.0421360731124878,-0.2272418737411499
1782776394089246700,3.027246826171875,-1.0415252447128296,-1.32863187789917,-0.4758640229701996
1782776394099247000,3.0372470703125,-1.1911872625350952,-1.4440854787826538,-0.7061602473258972
1782776394109236000,3.047236083984375,-1.3225232362747192,-1.3750576972961426,-0.8875871896743774
1782776394119266600,3.0572666015625,-1.4355332851409912,-1.1484266519546509,-0.9999864101409912
1782776394129225000,3.067224853515625,-1.4978415966033936,-0.8026769161224365,-1.0152580738067627
1782776394139255300,3.07725537109375,-1.4996742010116577,-0.4288274049758911,-0.9443976879119873
1782776394149244400,3.087244384765625,-1.4282029867172241,-0.11239920556545258,-0.7935139536857605
1782776394159245800,3.097245849609375,-1.3103059530258179,0.11056660860776901,-0.5839871764183044
1782776394169233400,3.1072333984375,-1.1905763149261475,0.23945917189121246,-0.32681289315223694
1782776394179265300,3.117265380859375,-1.06351637840271,0.29993483424186707,-0.045204028487205505
1782776394189222700,3.12722265625,-0.9358455538749695,0.2883284091949463,0.23518311977386475
1782776394199254500,3.137254638671875,-0.8191702961921692,0.20586158335208893,0.4899139404296875
1782776394209242000,3.1472421875,-0.7342600226402283,0.07024950534105301,0.6982190012931824
1782776394219242200,3.1572421875,-0.6988298296928406,-0.10690141469240189,0.8442157506942749
1782776394229231000,3.167231201171875,-0.7318165898323059,-0.3781255781650543,0.9517280459403992
1782776394239261200,3.17726123046875,-0.8057312369346619,-0.5253441333770752,0.9474520087242126
1782776394249220000,3.18722021484375,-0.9144652485847473,-0.6377432942390442,0.8765916228294373
1782776394259252700,3.197252685546875,-1.0366383790969849,-0.7043276429176331,0.7464773058891296
1782776394269239800,3.20723974609375,-1.169806957244873,-0.7122688889503479,0.5723807215690613
1782776394279272400,3.2172724609375,-1.3078625202178955,-0.6762278079986572,0.37629300355911255
1782776394289228800,3.227228759765625,-1.4501941204071045,-0.6010913848876953,0.17409659922122955
1782776394299261200,3.23726123046875,-1.5778648853302002,-0.49846604466438293,-0.021380282938480377
1782776394309248000,3.247248046875,-1.6725490093231201,-0.3927863538265228,-0.20341812074184418
1782776394319248400,3.257248291015625,-1.718363881111145,-0.29626965522766113,-0.3628539443016052
1782776394329237200,3.2672373046875,-1.722640037536621,-0.20525072515010834,-0.4911356568336487
1782776394339268000,3.27726806640625,-1.7061465978622437,-0.13439035415649414,-0.5815436840057373
1782776394349226200,3.287226318359375,-1.6713273525238037,-0.09468411654233932,-0.6298020482063293
1782776394359256800,3.2972568359375,-1.623068928718567,-0.08674286305904388,-0.6328563690185547
1782776394369246000,3.307245849609375,-1.55892813205719,-0.1014036312699318,-0.5931501388549805
1782776394379245800,3.317245849609375,-1.4789047241210938,-0.11850785464048386,-0.5112941861152649
1782776394389234700,3.327234619140625,-1.3939944505691528,-0.12889257073402405,-0.3995058834552765
1782776394399265500,3.337265625,-1.3164145946502686,-0.13439035415649414,-0.2791654169559479
1782776394409223700,3.3472236328125,-1.2571606636047363,-0.13805554807186127,-0.17043140530586243
1782776394419254300,3.357254150390625,-1.214400053024292,-0.14844025671482086,-0.09162978827953339
1782776394429243400,3.367243408203125,-1.1814134120941162,-0.15271630883216858,-0.04337143152952194
1782776394439243300,3.3772431640625,-1.1484266519546509,-0.15393804013729095,-0.022602014243602753
1782776394449232400,3.387232421875,-1.1020009517669678,-0.1508837193250656,-0.021380282938480377
1782776394459263000,3.397262939453125,-1.0396926403045654,-0.1466076523065567,-0.04153883829712868
1782776394469221400,3.407221435546875,-0.960280179977417,-0.15454891324043274,-0.07269296050071716
1782776394479251700,3.417251708984375,-0.8759807348251343,-0.14477506279945374,-0.11056660860776901
1782776394489240800,3.42724072265625,-0.7904596328735352,-0.13805554807186127,-0.13744467496871948
1782776394499241000,3.437240966796875,-0.7110471725463867,-0.12522737681865692,-0.13744467496871948
1782776394509229800,3.447229736328125,-0.6505714654922485,-0.09834930300712585,-0.11178833991289139
1782776394519260400,3.457260498046875,-0.6200281977653503,-0.06963863968849182,-0.06841690838336945
1782776394529249300,3.467249267578125,-0.6249151229858398,-0.039706241339445114,-0.012217304669320583
1782776394539249400,3.47724951171875,-0.6664539575576782,-0.016493361443281174,0.036651913076639175
1782776394549238300,3.48723828125,-0.7348709106445312,0,0.07391469180583954
1782776394559238400,3.49723828125,-0.8142833709716797,0.014049900695681572,0.09712757170200348
1782776394569319000,3.50731884765625,-0.8888089060783386,0.02321287989616394,0.09957103431224823
1782776394579258000,3.517258056640625,-0.9443976879119873,0.031154127791523933,0.07757988572120667
1782776394589247000,3.5272470703125,-0.9822713136672974,0.02321287989616394,0.02932153269648552
1782776394599246800,3.537246826171875,-1.0115928649902344,0.0024434609804302454,-0.04214970022439957
1782776394609195800,3.54719580078125,-1.0317513942718506,-0.03298672288656235,-0.1270599663257599
1782776394619297000,3.557297119140625,-1.0152580738067627,-0.0403171069920063,-0.19425514340400696
1782776394630150000,3.56814990234375,-0.940732479095459,0.022602014243602753,-0.23640485107898712
1782776394649244400,3.587244384765625,-0.8753699064254761,0.18020524084568024,-0.2174680233001709
1782776394659245300,3.597245361328125,-0.8582656979560852,0.24862214922904968,-0.20586158335208893
1782776394669233700,3.607233642578125,-0.836885392665863,0.3182607889175415,-0.182648703455925
1782776394679233500,3.617233642578125,-0.7898487448692322,0.4294382631778717,-0.13316862285137177
1782776394689314000,3.62731396484375,-0.6963863968849182,0.5375614166259766,-0.056810468435287476
1782776394699254000,3.63725390625,-0.5809328556060791,0.53328537940979,0.02626720629632473
1782776394709241900,3.647241943359375,-0.4966334402561188,0.394618958234787,0.07024950534105301
1782776394719242800,3.65724267578125,-0.4612032473087311,0.16432274878025055,0.033597588539123535
1782776394729231000,3.667231201171875,-0.46792277693748474,-0.10018189996480942,-0.10506882518529892
1782776394739262000,3.677261962890625,-0.484416127204895,-0.3237585723400116,-0.31520646810531616
1782776394749220000,3.68722021484375,-0.5204572081565857,-0.42699480056762695,-0.5125159621238708
1782776394759250700,3.697250732421875,-0.6023131608963013,-0.36713001132011414,-0.6426302194595337
1782776394769239800,3.70723974609375,-0.6841690540313721,-0.14782938361167908,-0.66584312915802
1782776394779271400,3.717271484375,-0.7342600226402283,0.15454891324043274,-0.588874101638794
1782776394789228500,3.727228515625,-0.7128797173500061,0.4807509481906891,-0.43799036741256714
1782776394799260700,3.7372607421875,-0.6163630485534668,0.7641924023628235,-0.23151792585849762
1782776394809248000,3.747248046875,-0.45814892649650574,0.9669997096061707,-0.01038470957428217
1782776394819248400,3.757248291015625,-0.28527405858039856,1.0781772136688232,0.19792033731937408
1782776394829236700,3.76723681640625,-0.14538592100143433,1.1160508394241333,0.3793473243713379
1782776394839268400,3.777268310546875,-0.05253441259264946,1.1172724962234497,0.5229006409645081
1782776394849225500,3.7872255859375,-0.0024434609804302454,1.0934487581253052,0.6236934065818787
1782776394859256000,3.797256103515625,0.021380282938480377,1.0561859607696533,0.6811147332191467
1782776394870217500,3.808217529296875,0.02932153269648552,1.0030407905578613,0.6921103000640869
1782776394889295000,3.827295166015625,0.018325956538319588,0.7391469478607178,0.5656611919403076
1782776394899265300,3.837265380859375,0.0012217304902151227,0.4349360466003418,0.4184426963329315
1782776394909223200,3.84722314453125,-0.04153883829712868,-0.06658431142568588,0.16310101747512817
1782776394919193300,3.857193359375,-0.12095131725072861,-0.6927211880683899,-0.21013765037059784
1782776394929304300,3.86730419921875,-0.25534167885780334,-1.2278391122817993,-0.6420193910598755
1782776394939243300,3.8772431640625,-0.43737950921058655,-1.5448782444000244,-1.0329731702804565
1782776394950243800,3.888243896484375,-0.6939429044723511,-1.5949691534042358,-1.309084177017212
1782776394969181000,3.907180908203125,-1.2718214988708496,-0.9828822016716003,-1.423926830291748
1782776394979314000,3.91731396484375,-1.4422528743743896,-0.5241223573684692,-1.292590856552124
1782776394989919700,3.927919677734375,-1.4672982692718506,-0.11484266817569733,-1.103833556175232
1782776395009290800,3.947290771484375,-1.1331549882888794,0.38728857040405273,-0.6139195561408997
1782776395019230000,3.95722998046875,-0.8881980776786804,0.48808133602142334,-0.33292156457901
1782776395030598100,3.96859814453125,-0.6261368989944458,0.4642575979232788,0.07819075137376785
1782776395049238300,3.98723828125,-0.5717698931694031,0.3842342495918274,0.4080579876899719
1782776395059269000,3.99726904296875,-0.6065891981124878,0.34697145223617554,0.5510004758834839
1782776395069227300,4.007227294921875,-0.6860016584396362,0.3127630054950714,0.6230825781822205
1782776395079257900,4.0172578125,-0.8845328688621521,0.20525072515010834,0.5870414972305298
1782776395089206800,4.027206787109375,-1.0531316995620728,0.05375614017248154,0.4648684561252594
1782776395099338500,4.03733837890625,-1.2406673431396484,-0.1459967941045761,0.2822197377681732
1782776395109235700,4.047235595703125,-1.4172073602676392,-0.3536909818649292,0.06841690838336945
1782776395119266800,4.057266845703125,-1.5564846992492676,-0.5296201705932617,-0.1466076523065567
1782776395129225000,4.067224853515625,-1.6413949728012085,-0.646906316280365,-0.3396410644054413
1782776395139256800,4.0772568359375,-1.6780468225479126,-0.7177666425704956,-0.48319441080093384
1782776395149204200,4.087204345703125,-1.6890424489974976,-0.7660250067710876,-0.5558874011039734
1782776395159337200,4.097337158203125,-1.7018705606460571,-0.8442157506942749,-0.5381723046302795
1782776395169193200,4.107193115234375,-1.7140878438949585,-0.9468411207199097,-0.4294382631778717
1782776395179326500,4.117326416015625,-1.7263051271438599,-1.0574077367782593,-0.2480112910270691
1782776395189222400,4.127222412109375,-1.758681058883667,-1.2040153741836548,-0.02932153269648552
1782776395199253000,4.1372529296875,-1.8234328031539917,-1.4526375532150269,0.17898350954055786
1782776395209241900,4.147241943359375,-1.9138407707214355,-1.7794504165649414,0.3591887652873993
1782776395219242200,4.1572421875,-2.007303237915039,-2.0512855052948,0.5082398653030396
1782776395229231000,4.167231201171875,-2.096489429473877,-2.2455406188964844,0.5962044596672058
1782776395239291600,4.177291748046875,-2.174680233001709,-2.331061840057373,0.6401867866516113
1782776395249220000,4.18722021484375,-2.247373342514038,-2.261423110961914,0.6615670323371887
1782776395259189500,4.197189453125,-2.3243422508239746,-2.079385280609131,0.684779942035675
1782776395271668700,4.209668701171875,-2.4086415767669678,-1.870469331741333,0.6969972252845764
1782776395289228500,4.227228515625,-2.506380081176758,-1.613295078277588,0.6212499737739563
1782776395299259400,4.23725927734375,-2.5357015132904053,-1.615127682685852,0.5351179838180542
1782776395309248000,4.247248046875,-2.5747969150543213,-1.6872098445892334,0.4288274049758911
1782776395319248400,4.257248291015625,-2.6358835697174072,-1.8191566467285156,0.30543261766433716
1782776395329237200,4.2672373046875,-2.699413537979126,-1.9394971132278442,0.17409659922122955
1782776395339267800,4.277267822265625,-2.7421741485595703,-1.9871445894241333,0.06108652427792549
1782776395349226200,4.287226318359375,-2.749504566192627,-1.9511035680770874,-0.02321287989616394
1782776395359257000,4.297257080078125,-2.7342329025268555,-1.832595705986023,-0.07941248267889023
1782776395369245700,4.30724560546875,-2.7006351947784424,-1.6713273525238037,-0.11362093687057495
1782776395379245800,4.317245849609375,-2.660928964614868,-1.522887110710144,-0.1466076523065567
1782776395389234700,4.327234619140625,-2.627331495285034,-1.4196507930755615,-0.19792033731937408
1782776395399265300,4.337265380859375,-2.6065618991851807,-1.350012183189392,-0.2791654169559479
1782776395409223700,4.3472236328125,-2.604729413986206,-1.3005321025848389,-0.3927863538265228
1782776395419254500,4.357254638671875,-2.602285861968994,-1.2608258724212646,-0.5314527750015259
1782776395429243100,4.3672431640625,-2.5839600563049316,-1.2376129627227783,-0.675006091594696
1782776395439243300,4.3772431640625,-2.548529863357544,-1.2205088138580322,-0.8240572214126587
1782776395449232100,4.387232177734375,-2.5033257007598877,-1.1924089193344116,-0.9718865752220154
1782776395459262700,4.3972626953125,-2.456289052963257,-1.1649199724197388,-1.0995573997497559
1782776395469221400,4.407221435546875,-2.39520263671875,-1.1148290634155273,-1.1985175609588623
1782776395479252000,4.417251953125,-2.328007459640503,-1.0464121103286743,-1.2681562900543213
1782776395489240600,4.427240478515625,-2.252260208129883,-0.9651671051979065,-1.312138557434082
1782776395499241000,4.437240966796875,-2.1423044204711914,-0.817337691783905,-1.3390166759490967
1782776395509229800,4.447229736328125,-2.074498414993286,-0.7263187766075134,-1.33168625831604
1782776395519260400,4.457260498046875,-2.012800931930542,-0.6664539575576782,-1.3164145946502686
1782776395529249300,4.467249267578125,-1.9492709636688232,-0.6108652353286743,-1.2877039909362793
1782776395539249400,4.47724951171875,-1.8832975625991821,-0.5583308339118958,-1.2479976415634155
1782776395549238500,4.487238525390625,-1.8118263483047485,-0.494189977645874,-1.189354658126831
1782776395559268900,4.497268798828125,-1.7537940740585327,-0.42149701714515686,-1.1166616678237915
1782776395569227300,4.507227294921875,-1.7214182615280151,-0.35735616087913513,-1.0445796251296997
1782776395579257900,4.5172578125,-1.6890424489974976,-0.30970868468284607,-0.9651671051979065
1782776395589206800,4.527206787109375,-1.644449234008789,-0.29077184200286865,-0.8802568316459656
1782776395599338500,4.53733837890625,-1.5851953029632568,-0.3017674386501312,-0.7825183868408203
1782776395609236000,4.547236083984375,-1.5253305435180664,-0.33536502718925476,-0.6798930168151855
1782776395619268000,4.55726806640625,-1.4697418212890625,-0.37568211555480957,-0.5681046843528748
1782776395629225000,4.567224853515625,-1.4190399646759033,-0.4092797040939331,-0.44776421785354614
1782776395639255800,4.577255859375,-1.376279354095459,-0.4337143301963806,-0.3274237811565399
1782776395649244700,4.58724462890625,-1.3573426008224487,-0.4642575979232788,-0.20952677726745605
1782776395659244800,4.597244873046875,-1.3585642576217651,-0.50335294008255,-0.11911872029304504
1782776395669233700,4.607233642578125,-1.3750576972961426,-0.5503895878791809,-0.07513642311096191
1782776395679264000,4.617263916015625,-1.38849675655365,-0.5913175344467163,-0.07880161702632904
1782776395689222400,4.627222412109375,-1.4019356966018677,-0.6145304441452026,-0.12522737681865692
1782776395699253200,4.637253173828125,-1.4049900770187378,-0.6108652353286743,-0.1814269721508026
1782776395709242000,4.6472421875,-1.398881435394287,-0.5748242139816284,-0.22418753802776337
1782776395719242200,4.6572421875,-1.3952162265777588,-0.50335294008255,-0.24923302233219147
1782776395729231000,4.667231201171875,-1.3866641521453857,-0.38728857040405273,-0.2535090744495392
1782776395739261700,4.67726171875,-1.3622294664382935,-0.23151792585849762,-0.23335053026676178
1782776395749220000,4.68722021484375,-1.3365731239318848,-0.06108652427792549,-0.20097467303276062
1782776395759250700,4.697250732421875,-1.3170254230499268,0.11423180252313614,-0.15577064454555511
1782776395769239600,4.707239501953125,-1.2980886697769165,0.30604347586631775,-0.09896016865968704
1782776395779270100,4.717270263671875,-1.2675453424453735,0.48258355259895325,-0.039706241339445114
1782776395789228500,4.727228515625,-1.218676209449768,0.608421802520752,0.009773843921720982
1782776395799259100,4.737259033203125,-1.1624765396118164,0.6792821288108826,0.04703662544488907
1782776395809248300,4.747248291015625,-1.1148290634155273,0.6969972252845764,0.06169738993048668
1782776395819247000,4.7572470703125,-1.0708467960357666,0.6780604124069214,0.05803219974040985
1782776395829236700,4.76723681640625,-1.0286970138549805,0.6450737118721008,0.04581489413976669
1782776395839267300,4.777267333984375,-0.9902125597000122,0.6035348773002625,0.02932153269648552
1782776395849225700,4.787225830078125,-0.9608910083770752,0.5626068711280823,0.006719517521560192
1782776395859256300,4.79725634765625,-0.9468411207199097,0.5357288122177124,-0.030543262138962746
1782776395869245200,4.8072451171875,-0.9242390990257263,0.53328537940979,-0.07208210229873657
1782776395879245300,4.817245361328125,-0.8985827565193176,0.5485569834709167,-0.1007927656173706
1782776395889234200,4.827234130859375,-0.8735373020172119,0.5845980644226074,-0.11056660860776901
1782776395899265000,4.83726513671875,-0.856433093547821,0.6188064813613892,-0.1215621829032898
1782776395909223200,4.84722314453125,-0.8295549750328064,0.626747727394104,-0.1411098688840866
1782776395919255000,4.857255126953125,-0.7782423496246338,0.5626068711280823,-0.18509216606616974
1782776395929243100,4.8672431640625,-0.7379252314567566,0.46670106053352356,-0.21502456068992615
1782776395939244000,4.877244140625,-0.7073819637298584,0.3500257730484009,-0.24129177629947662
1782776395949232400,4.887232421875,-0.6939429044723511,0.24862214922904968,-0.2626720666885376
1782776395959262700,4.8972626953125,-0.6890559792518616,0.1869247704744339,-0.2816088795661926
1782776395969221000,4.90722119140625,-0.6969972252845764,0.1661553531885147,-0.28099802136421204
1782776395979251700,4.917251708984375,-0.7257078886032104,0.16982053220272064,-0.27122417092323303
1782776395989240800,4.92724072265625,-0.7623597979545593,0.19303341209888458,-0.25045475363731384
1782776395999241000,4.937240966796875,-0.8002334833145142,0.2217440903186798,-0.22907446324825287
1782776396009229800,4.947229736328125,-0.8228355050086975,0.23090706765651703,-0.20097467303276062
1782776396019261200,4.95726123046875,-0.8148942589759827,0.22296582162380219,-0.14844025671482086
1782776396029249300,4.967249267578125,-0.7770205736160278,0.19303341209888458,-0.06536258012056351
1782776396039250200,4.977250244140625,-0.7183775305747986,0.16371189057826996,0.03787364438176155
1782776396049238300,4.98723828125,-0.6420193910598755,0.15271630883216858,0.1466076523065567
1782776396059269600,4.99726953125,-0.5681046843528748,0.14355333149433136,0.23457226157188416
1782776396069227300,5.007227294921875,-0.5057964324951172,0.09529497474431992,0.27550023794174194
1782776396079257900,5.0172578125,-0.48197266459465027,0.00427605677396059,0.26145032048225403
1782776396089246700,5.027246826171875,-0.513126790523529,-0.12034045159816742,0.19120082259178162
1782776396099246800,5.037246826171875,-0.5797111392021179,-0.23945917189121246,0.0757472887635231
1782776396109236000,5.047236083984375,-0.6475171446800232,-0.31093040108680725,-0.04764748737215996
1782776396119267000,5.05726708984375,-0.6988298296928406,-0.33597588539123535,-0.13988813757896423
1782776396129225000,5.067224853515625,-0.7409795522689819,-0.32681289315223694,-0.18570303916931152
1782776396139256800,5.0772568359375,-0.7648032903671265,-0.29077184200286865,-0.18081611394882202
1782776396149244400,5.087244384765625,-0.7721336483955383,-0.24984388053417206,-0.13072516024112701
1782776396159245800,5.097245849609375,-0.7525860071182251,-0.19425514340400696,-0.0403171069920063
1782776396169233700,5.107233642578125,-0.6878342628479004,-0.12828169763088226,0.07391469180583954
1782776396179264000,5.117263916015625,-0.5852088928222656,-0.07635815441608429,0.182648703455925
1782776396189222400,5.127222412109375,-0.4593706727027893,-0.059864792972803116,0.2528982162475586
1782776396199253200,5.137253173828125,-0.33292156457901,-0.07391469180583954,0.2669481039047241
1782776396209242000,5.1472421875,-0.2431243658065796,-0.10751228034496307,0.22479841113090515
1782776396219242800,5.15724267578125,-0.19975294172763824,-0.12950342893600464,0.13439035415649414
1782776396229231000,5.167231201171875,-0.18325957655906677,-0.13500121235847473,0.015271631069481373
1782776396239262500,5.177262451171875,-0.16920967400074005,-0.13500121235847473,-0.1160643994808197
1782776396249220000,5.18722021484375,-0.1569923609495163,-0.1667662113904953,-0.26083946228027344
1782776396259251200,5.197251220703125,-0.152105450630188,-0.2370157092809677,-0.41111230850219727
1782776396270306600,5.208306640625,-0.18325957655906677,-0.3982841372489929,-0.6243042945861816
1782776396289228500,5.227228515625,-0.23396138846874237,-0.6200281977653503,-0.8051204085350037
1782776396299259600,5.237259765625,-0.2919935882091522,-0.7825183868408203,-0.9162978529930115
1782776396309248000,5.247248046875,-0.3854559659957886,-0.9260717034339905,-1.004873275756836
1782776396319248600,5.25724853515625,-0.5064072608947754,-1.0445796251296997,-1.0726794004440308
1782776396329237200,5.2672373046875,-0.6352998614311218,-1.1288789510726929,-1.1197160482406616
1782776396339268000,5.27726806640625,-0.7904596328735352,-1.1789699792861938,-1.151481032371521
1782776396349226200,5.287226318359375,-0.8436049222946167,-1.1099421977996826,-1.131933331489563
1782776396359257900,5.2972578125,-0.8399397134780884,-0.9248499870300293,-1.0714576244354248
1782776396369245700,5.30724560546875,-0.7874053120613098,-0.636521577835083,-0.9767735004425049
1782776396379246800,5.317246826171875,-0.6982190012931824,-0.30970868468284607,-0.8515461683273315
1782776396389234700,5.327234619140625,-0.5626068711280823,0.01710422709584236,-0.6927211880683899
1782776396399266600,5.3372666015625,-0.4098905920982361,0.2926044464111328,-0.5180137157440186
1782776396409223700,5.3472236328125,-0.2840523421764374,0.47342056035995483,-0.36163222789764404
1782776396419254800,5.3572548828125,-0.19914206862449646,0.5681046843528748,-0.24434609711170197
1782776396429243100,5.3672431640625,-0.13072516024112701,0.5900958180427551,-0.15577064454555511
1782776396439243800,5.377243896484375,-0.0757472887635231,0.5729916095733643,-0.09040805697441101
1782776396449232400,5.387232421875,-0.04153883829712868,0.5326744914054871,-0.0507018156349659
1782776396459263500,5.397263427734375,-0.030543262138962746,0.4660901725292206,-0.027488935738801956
1782776396469221000,5.40722119140625,-0.028099801391363144,0.3933972120285034,-0.021380282938480377
1782776396479252200,5.417252197265625,-0.03726277872920036,0.3237585723400116,-0.016493361443281174
1782776396489240800,5.42724072265625,-0.05742133408784866,0.2480112910270691,-0.012828170321881771
1782776396499241200,5.4372412109375,-0.09529497474431992,0.1472185254096985,-0.02932153269648552
1782776396509229800,5.447229736328125,-0.1466076523065567,0.04581489413976669,-0.07452555745840073
1782776396519261000,5.457260986328125,-0.1875356286764145,-0.02321287989616394,-0.12889257073402405
1782776396529249300,5.467249267578125,-0.2174680233001709,-0.05375614017248154,-0.17104226350784302
1782776396539250200,5.477250244140625,-0.2376265823841095,-0.06291911751031876,-0.2064724564552307
1782776396549238500,5.487238525390625,-0.2541199326515198,-0.04581489413976669,-0.24556782841682434
1782776396559269400,5.497269287109375,-0.2535090744495392,-0.021991148591041565,-0.2687807083129883
1782776396569227300,5.507227294921875,-0.252287358045578,-0.01038470957428217,-0.2687807083129883
1782776396579258000,5.517258056640625,-0.25595253705978394,-0.00733038317412138,-0.24678955972194672
1782776396589247000,5.5272470703125,-0.2590068578720093,-0.016493361443281174,-0.22052235901355743
1782776396599247600,5.53724755859375,-0.2577851414680481,-0.042760565876960754,-0.192422553896904
1782776396609236000,5.547236083984375,-0.27977627515792847,-0.11667526513338089,-0.18081611394882202
1782776396619267000,5.55726708984375,-0.31520646810531616,-0.21319197118282318,-0.18325957655906677
1782776396629225000,5.567224853515625,-0.3591887652873993,-0.31093040108680725,-0.19120082259178162
1782776396639256800,5.5772568359375,-0.39645153284072876,-0.41233405470848083,-0.19058994948863983
1782776396649244400,5.587244384765625,-0.4294382631778717,-0.5015203952789307,-0.1661553531885147
1782776396659245600,5.59724560546875,-0.45753806829452515,-0.5711590051651001,-0.11178833991289139
1782776396669233700,5.607233642578125,-0.47769662737846375,-0.6322455406188965,-0.0354301854968071
1782776396679265300,5.617265380859375,-0.48380526900291443,-0.685390830039978,0.0507018156349659
1782776396689222700,5.62722265625,-0.4599815309047699,-0.7018841505050659,0.14416420459747314
1782776396699222500,5.637222412109375,-0.41111230850219727,-0.6963863968849182,0.22357667982578278
1782776396710253300,5.64825341796875,-0.304210901260376,-0.7293730974197388,0.30482175946235657
1782776396729231000,5.667231201171875,-0.2278527319431305,-0.8124507665634155,0.32009339332580566
1782776396739261700,5.67726171875,-0.2376265823841095,-0.912021815776825,0.2926044464111328
1782776396749220000,5.68722021484375,-0.30543261766433716,-1.0561859607696533,0.2535090744495392
1782776396759250400,5.69725048828125,-0.48808133602142334,-1.2760975360870361,0.2021963894367218
1782776396769239600,5.707239501953125,-0.5992587804794312,-1.3469579219818115,0.2168571650981903
1782776396779270000,5.717269775390625,-0.6762278079986572,-1.3249666690826416,0.29138273000717163
1782776396789228500,5.727228515625,-0.7171558141708374,-1.216843605041504,0.4080579876899719
1782776396799259100,5.737259033203125,-0.7287622094154358,-1.016479730606079,0.5455026626586914
1782776396809248300,5.747248291015625,-0.7409795522689819,-0.7281513810157776,0.6688974499702454
1782776396819247400,5.757247314453125,-0.7745771408081055,-0.3842342495918274,0.7483099102973938
1782776396829236700,5.76723681640625,-0.836885392665863,-0.05925392732024193,0.7855727076530457
1782776396839267000,5.77726708984375,-0.9059131741523743,0.21380282938480377,0.8026769161224365
1782776396849225700,5.787225830078125,-0.9431759119033813,0.42699480056762695,0.8228355050086975
1782776396859257600,5.797257568359375,-0.9376781582832336,0.5595525503158569,0.8417723178863525
1782776396869245000,5.807244873046875,-0.9046914577484131,0.626747727394104,0.8454375267028809
1782776396879245800,5.817245849609375,-0.8613200187683105,0.627358615398407,0.8155050873756409
1782776396889234200,5.827234130859375,-0.797789990901947,0.5656611919403076,0.7562511563301086
1782776396899234800,5.83723486328125,-0.7141014933586121,0.4758640229701996,0.6780604124069214
1782776396909314800,5.847314697265625,-0.6224716901779175,0.3744603991508484,0.588263213634491
1782776396919255000,5.857255126953125,-0.5320636034011841,0.27061331272125244,0.4893030524253845
1782776396929243100,5.8672431640625,-0.44837507605552673,0.15332718193531036,0.3836233615875244
1782776396939244000,5.877244140625,-0.3885102868080139,0.015882495790719986,0.2590068578720093
1782776396949232400,5.887232421875,-0.3634648323059082,-0.1270599663257599,0.09773843735456467
1782776396959263700,5.897263671875,-0.3897320330142975,-0.2632829248905182,-0.10873401165008545
1782776396969221400,5.907221435546875,-0.45265114307403564,-0.37201693654060364,-0.34147366881370544
1782776396979252000,5.917251953125,-0.5253441333770752,-0.43676865100860596,-0.5564982295036316
1782776396989200600,5.92720068359375,-0.5968153476715088,-0.45204028487205505,-0.7434229850769043
1782776396999332400,5.937332275390625,-0.6603453159332275,-0.4245513379573822,-0.8967501521110535
1782776397009229800,5.947229736328125,-0.7312057018280029,-0.36590829491615295,-1.0018190145492554
1782776397019261000,5.957260986328125,-0.7904596328735352,-0.2828305959701538,-1.0384708642959595
1782776397029209300,5.967209228515625,-0.8032878041267395,-0.17837265133857727,-0.9834930300712585
1782776397039341800,5.977341796875,-0.7507534027099609,-0.051312681287527084,-0.8411614298820496
1782776397049238300,5.98723828125,-0.6249151229858398,0.08368854224681854,-0.6304129362106323
1782776397059270100,5.997270263671875,-0.4495968222618103,0.21868975460529327,-0.38240164518356323
1782776397069227300,6.007227294921875,-0.24373523890972137,0.3396410644054413,-0.1215621829032898
1782776397079258000,6.017258056640625,-0.06658431142568588,0.42638394236564636,0.1111774742603302
1782776397089246700,6.027246826171875,0.04337143152952194,0.47769662737846375,0.28099802136421204
1782776397099247600,6.03724755859375,0.10384709388017654,0.5180137157440186,0.38179078698158264
1782776397109236000,6.047236083984375,0.1319468915462494,0.5711590051651001,0.413555771112442
1782776397119266600,6.0572666015625,0.12950342893600464,0.6102544069290161,0.3793473243713379
1782776397129225000,6.067224853515625,0.10751228034496307,0.6224716901779175,0.29504790902137756
1782776397139255300,6.07725537109375,0.09407325088977814,0.626747727394104,0.19853121042251587
1782776397149244400,6.087244384765625,0.08918632566928864,0.6200281977653503,0.11056660860776901
1782776397159245300,6.097245361328125,0.09162978827953339,0.607200026512146,0.03787364438176155
1782776397169233400,6.1072333984375,0.10262536257505417,0.5833762884140015,-0.021991148591041565
1782776397179264500,6.117264404296875,0.10873401165008545,0.5479460954666138,-0.06902777403593063
1782776397189222400,6.127222412109375,0.10812314599752426,0.45142942667007446,-0.11362093687057495
1782776397199253800,6.137253662109375,0.09162978827953339,0.3787364661693573,-0.1368338167667389
1782776397209242000,6.1472421875,0.06719517707824707,0.2932153046131134,-0.16982053220272064
1782776397219242800,6.15724267578125,0.04214970022439957,0.20586158335208893,-0.21991148591041565
1782776397229231000,6.167231201171875,0.018325956538319588,0.12278391420841217,-0.2767219543457031
1782776397239292400,6.17729248046875,-0.006719517521560192,0.07147123664617538,-0.32498031854629517
1782776397249220000,6.18722021484375,-0.019547687843441963,0.07330382615327835,-0.3628539443016052
1782776397259251200,6.197251220703125,-0.022602014243602753,0.08246681094169617,-0.4001167416572571
1782776397269239600,6.207239501953125,-0.012828170321881771,0.07147123664617538,-0.4440990388393402
1782776397279270700,6.217270751953125,0.012828170321881771,0.04092797264456749,-0.484416127204895
1782776397289228500,6.227228515625,0.045204028487205505,0.001832595793530345,-0.5112941861152649
1782776397299259600,6.237259765625,0.08735372871160507,-0.028099801391363144,-0.5253441333770752
1782776397309248000,6.247248046875,0.1661553531885147,0.005497787147760391,-0.5125159621238708
1782776397319248600,6.25724853515625,0.3121521472930908,0.06414084881544113,-0.46181413531303406
1782776397329237200,6.2672373046875,0.49235737323760986,0.05619960278272629,-0.3988949954509735
1782776397339268600,6.2772685546875,0.5619960427284241,-0.03787364438176155,-0.3781255781650543
1782776397349226200,6.287226318359375,0.4386012554168701,-0.13988813757896423,-0.42149701714515686
1782776397359256600,6.297256591796875,0.2021963894367218,-0.18387043476104736,-0.494189977645874
1782776397379245600,6.31724560546875,-0.2638937830924988,-0.10690141469240189,-0.5852088928222656
1782776397389234700,6.327234619140625,-0.3885102868080139,-0.04153883829712868,-0.5681046843528748
1782776397399266300,6.337266357421875,-0.42699480056762695,0.013439035043120384,-0.5155702829360962
1782776397409223700,6.3472236328125,-0.3732386529445648,0.05619960278272629,-0.44226643443107605
1782776397419255300,6.35725537109375,-0.2272418737411499,0.12278391420841217,-0.3530801236629486
1782776397429243400,6.367243408203125,-0.003054326167330146,0.24190263450145721,-0.2431243658065796
1782776397439242800,6.37724267578125,0.2834414839744568,0.42271876335144043,-0.09162978827953339
1782776397449232400,6.387232421875,0.5662720799446106,0.6383541822433472,0.0757472887635231
1782776397459264000,6.397263916015625,0.7531968355178833,0.8093964457511902,0.2070833146572113
1782776397469221400,6.407221435546875,0.8228355050086975,0.9187413454055786,0.2938261926174164
1782776397479253000,6.4172529296875,0.826500654220581,0.9847147464752197,0.3433062732219696
1782776397489240800,6.42724072265625,0.8063421249389648,1.024420976638794,0.3579670190811157
1782776397499240700,6.43724072265625,0.7776314616203308,1.0250319242477417,0.35063666105270386
1782776397509229800,6.447229736328125,0.7452555894851685,0.9645562171936035,0.3280346393585205
1782776397519260700,6.4572607421875,0.7238753437995911,0.8326093554496765,0.2938261926174164
1782776397529249300,6.467249267578125,0.7122688889503479,0.6377432942390442,0.23335053026676178
1782776397539249700,6.477249755859375,0.7141014933586121,0.3701843321323395,0.1270599663257599
1782776397549238500,6.487238525390625,0.7293730974197388,0.04459316283464432,-0.031154127791523933
1782776397559270100,6.497270263671875,0.7513642311096191,-0.30115658044815063,-0.21502456068992615
1782776397569227300,6.507227294921875,0.7556403279304504,-0.6310238242149353,-0.39584067463874817
1782776397579259100,6.517259033203125,0.7214318513870239,-0.8710938692092896,-0.5406157374382019
1782776397589247000,6.5272470703125,0.6432411074638367,-0.9370672702789307,-0.6206390857696533
1782776397599248100,6.537248046875,0.5400048494338989,-0.846659243106842,-0.6310238242149353
1782776397609236000,6.547236083984375,0.4239404797554016,-0.4758640229701996,-0.49785518646240234
1782776397619267600,6.557267578125,0.41722095012664795,-0.12522737681865692,-0.3219259977340698
1782776397629225000,6.567224853515625,0.484416127204895,0.22846360504627228,-0.1062905490398407
1782776397639257000,6.577257080078125,0.618195652961731,0.5210680365562439,0.12950342893600464
1782776397649244400,6.587244384765625,0.7678576111793518,0.7018841505050659,0.34086281061172485
1782776397659245800,6.597245849609375,0.8833111524581909,0.7764097452163696,0.4948008358478546
1782776397669233700,6.607233642578125,0.9682214260101318,0.7849618196487427,0.5949827432632446
1782776397679265300,6.617265380859375,1.0183123350143433,0.7544185519218445,0.6407976150512695
1782776397689222400,6.627222412109375,1.0280861854553223,0.7043276429176331,0.6200281977653503
1782776397699253800,6.637253662109375,1.0018190145492554,0.6414085030555725,0.53328537940979
1782776397709242000,6.6472421875,0.9511171579360962,0.5595525503158569,0.4147774875164032
1782776397719242800,6.65724267578125,0.8808676600456238,0.45875978469848633,0.27550023794174194
1782776397729231000,6.667231201171875,0.7910705208778381,0.34147366881370544,0.12889257073402405
1782776397739262500,6.677262451171875,0.6939429044723511,0.21868975460529327,0.005497787147760391
1782776397749220000,6.68722021484375,0.6053674817085266,0.10506882518529892,-0.07269296050071716
1782776397759251500,6.69725146484375,0.5308418869972229,0.006108652334660292,-0.10018189996480942
1782776397769239800,6.70723974609375,0.46853363513946533,-0.07635815441608429,-0.0861319974064827
1782776397779270700,6.717270751953125,0.4245513379573822,-0.12461651116609573,-0.04337143152952194
1782776397789228800,6.727228759765625,0.394618958234787,-0.152105450630188,0.00733038317412138
1782776397799259600,6.737259765625,0.3695734739303589,-0.18387043476104736,0.05253441259264946
1782776397809248000,6.747248046875,0.34758231043815613,-0.20891591906547546,0.08307767659425735
1782776397819247900,6.757247802734375,0.3280346393585205,-0.21868975460529327,0.10323622822761536
1782776397829236700,6.76723681640625,0.313373863697052,-0.21930062770843506,0.11972958594560623
1782776397839267600,6.777267578125,0.3017674386501312,-0.22052235901355743,0.12828169763088226
1782776397849225700,6.787225830078125,0.2791654169559479,-0.2382374405860901,0.12278391420841217
1782776397859257000,6.797257080078125,0.24190263450145721,-0.2773328125476837,0.10567969083786011
1782776397869245200,6.8072451171875,0.19058994948863983,-0.3439171314239502,0.08735372871160507
1782776397879245800,6.817245849609375,0.12828169763088226,-0.41172316670417786,0.07819075137376785
1782776397889234200,6.827234130859375,0.06352998316287994,-0.4703662395477295,0.07635815441608429
1782776397899265300,6.837265380859375,-0.006108652334660292,-0.5271766781806946,0.07757988572120667
1782776397909223200,6.84722314453125,-0.07330382615327835,-0.5522221922874451,0.07147123664617538
1782776397919254800,6.8572548828125,-0.13255776464939117,-0.5094616413116455,0.05742133408784866
1782776397929243100,6.8672431640625,-0.17287486791610718,-0.37751471996307373,0.03726277872920036
1782776397939244000,6.877244140625,-0.18387043476104736,-0.24923302233219147,0.0012217304902151227
1782776397949232400,6.887232421875,-0.18325957655906677,-0.22968533635139465,-0.0708603709936142
1782776397959263500,6.897263427734375,-0.20097467303276062,-0.303600013256073,-0.19792033731937408
1782776397969221400,6.907221435546875,-0.251676470041275,-0.4502076804637909,-0.3830125033855438
1782776397979251700,6.917251708984375,-0.3695734739303589,-0.6505714654922485,-0.6023131608963013
1782776397989240800,6.92724072265625,-0.5290092825889587,-0.7935139536857605,-0.7971791625022888
1782776397999240700,6.93724072265625,-0.6670648455619812,-0.788627028465271,-0.9108000993728638
1782776398009229800,6.947229736328125,-0.7648032903671265,-0.6664539575576782,-0.9370672702789307
1782776398019261200,6.95726123046875,-0.8045095205307007,-0.45875978469848633,-0.8704829812049866
1782776398029249300,6.967249267578125,-0.7391469478607178,-0.07635815441608429,-0.6010913848876953
1782776398039250700,6.977250732421875,-0.616973876953125,0.16859880089759827,-0.33475416898727417
1782776398049238300,6.98723828125,-0.4550946056842804,0.35063666105270386,-0.06169738993048668
1782776398059270400,6.9972705078125,-0.29016098380088806,0.42760565876960754,0.17104226350784302
1782776398069227300,7.007227294921875,-0.14233160018920898,0.4184426963329315,0.3530801236629486
1782776398079259100,7.017259033203125,-0.027488935738801956,0.3744603991508484,0.4899139404296875
1782776398089247000,7.0272470703125,0.045204028487205505,0.3139847218990326,0.5760459303855896
1782776398099248000,7.037248046875,0.07513642311096191,0.24984388053417206,0.6017022728919983
1782776398109236000,7.047236083984375,0.08552113175392151,0.1765400618314743,0.578489363193512
1782776398119267000,7.05726708984375,0.08552113175392151,0.08002334833145142,0.5174028873443604
1782776398129225000,7.067224853515625,0.06475171446800232,-0.018325956538319588,0.4489859640598297
1782776398139255300,7.07725537109375,0.015882495790719986,-0.10812314599752426,0.38240164518356323
1782776398149244700,7.08724462890625,-0.05497787147760391,-0.21868975460529327,0.31459560990333557
1782776398159244300,7.097244384765625,-0.1466076523065567,-0.3781255781650543,0.23029619455337524
1782776398169233400,7.1072333984375,-0.25106561183929443,-0.5485569834709167,0.12767083942890167
1782776398179264000,7.117263916015625,-0.35552358627319336,-0.6432411074638367,0.02015855349600315
1782776398189222400,7.127222412109375,-0.4392121136188507,-0.616973876953125,-0.07757988572120667
1782776398199253000,7.1372529296875,-0.49296826124191284,-0.48380526900291443,-0.14966198801994324
1782776398209242000,7.1472421875,-0.5241223573684692,-0.28955012559890747,-0.1973094791173935
1782776398219242200,7.1572421875,-0.5290092825889587,-0.07941248267889023,-0.20952677726745605
1782776398229231000,7.167231201171875,-0.5082398653030396,0.12034045159816742,-0.1771509200334549
1782776398239263200,7.17726318359375,-0.46547931432724,0.29077184200286865,-0.09896016865968704
1782776398249220000,7.18722021484375,-0.3982841372489929,0.4337143301963806,0.027488935738801956
1782776398259251700,7.197251708984375,-0.3029891550540924,0.5558874011039734,0.1820378452539444
1782776398269239600,7.207239501953125,-0.18448130786418915,0.6041457056999207,0.34208452701568604
1782776398279271400,7.217271484375,-0.07269296050071716,0.5491678714752197,0.48319441080093384
1782776398289228500,7.227228515625,-0.01038470957428217,0.5577199459075928,0.7141014933586121
1782776398299259600,7.237259765625,0.015882495790719986,0.29993483424186707,0.8240572214126587
1782776398309248000,7.247248046875,0.039095375686883926,0.02871066704392433,0.8234463334083557
1782776398319248600,7.25724853515625,0.07024950534105301,-0.06963863968849182,0.7568620443344116
1782776398329237200,7.2672373046875,0.08185594528913498,-0.12278391420841217,0.6102544069290161
1782776398339268400,7.277268310546875,0.08368854224681854,-0.13255776464939117,0.3903428912162781
1782776398349226200,7.287226318359375,0.08307767659425735,-0.030543262138962746,0.18081611394882202
1782776398359257300,7.29725732421875,0.08491026610136032,0.10995574295520782,0.06658431142568588
