time,seconds_elapsed,z,y,x
1782776465928816000,0.172816162109375,-0.8484918475151062,-0.7739662528038025,-0.7092145681381226
1782776465938816300,0.182816162109375,-1.0421360731124878,-0.902247965335846,-1.0225883722305298
1782776465948805400,0.192805419921875,-1.2272282838821411,-0.9486737251281738,-1.3292428255081177
1782776465958835700,0.202835693359375,-1.3530665636062622,-0.9224064946174622,-1.5357152223587036
1782776465968794400,0.21279443359375,-1.4373658895492554,-0.8130616545677185,-1.5925257205963135
1782776465978825000,0.222824951171875,-1.4782938957214355,-0.6811147332191467,-1.50211763381958
1782776465988813800,0.232813720703125,-1.4538593292236328,-0.5674937963485718,-1.3066407442092896
1782776465998815000,0.24281494140625,-1.3451253175735474,-0.43676865100860596,-1.035416603088379
1782776466008802800,0.252802734375,-1.171028733253479,-0.2535090744495392,-0.7214318513870239
1782776466018834700,0.262834716796875,-0.9627236127853394,-0.03726277872920036,-0.3933972120285034
1782776466028822300,0.272822265625,-0.7531968355178833,0.1771509200334549,-0.06841690838336945
1782776466038823700,0.28282373046875,-0.5900958180427551,0.31642818450927734,0.21380282938480377
1782776466048811500,0.2928115234375,-0.5070181488990784,0.34147366881370544,0.4196644127368927
1782776466058842000,0.302842041015625,-0.4789183437824249,0.25595253705978394,0.5369505286216736
1782776466068800300,0.31280029296875,-0.504574716091156,0.09285151958465576,0.5650503635406494
1782776466078830800,0.322830810546875,-0.5736024379730225,-0.07941248267889023,0.5253441333770752
1782776466088819700,0.33281982421875,-0.6737843751907349,-0.20463985204696655,0.4386012554168701
1782776466098820000,0.342820068359375,-0.79840087890625,-0.2535090744495392,0.3286454975605011
1782776466108809000,0.35280908203125,-0.9334021210670471,-0.23640485107898712,0.2125810980796814
1782776466118839600,0.362839599609375,-1.054964303970337,-0.16310101747512817,0.10445795953273773
1782776466128798000,0.3727978515625,-1.1551461219787598,-0.05192354694008827,0.009162978269159794
1782776466138828800,0.382828857421875,-1.225395679473877,0.08124507963657379,-0.05742133408784866
1782776466148817400,0.3928173828125,-1.2571606636047363,0.2125810980796814,-0.07880161702632904
1782776466158817800,0.40281787109375,-1.2571606636047363,0.3066543638706207,-0.04948008432984352
1782776466168806700,0.412806640625,-1.2308934926986694,0.3445279896259308,0.022602014243602753
1782776466178837000,0.4228369140625,-1.1808024644851685,0.3494149148464203,0.11850785464048386
1782776466188795600,0.432795654296875,-1.122159481048584,0.3274237811565399,0.21074850857257843
1782776466198826000,0.442825927734375,-1.0708467960357666,0.2730567753314972,0.2736676335334778
1782776466208814800,0.45281494140625,-1.0207557678222656,0.21502456068992615,0.3066543638706207
1782776466218815200,0.462815185546875,-0.9608910083770752,0.17959438264369965,0.3194825351238251
1782776466228804000,0.47280419921875,-0.9101892113685608,0.16004669666290283,0.30543261766433716
1782776466238834700,0.482834716796875,-0.8729264140129089,0.14538592100143433,0.26083946228027344
1782776466248793000,0.49279296875,-0.8405506014823914,0.13805554807186127,0.19914206862449646
1782776466258823700,0.50282373046875,-0.8124507665634155,0.1411098688840866,0.13439035415649414
1782776466268812800,0.512812744140625,-0.789237916469574,0.15454891324043274,0.07330382615327835
1782776466278843400,0.522843505859375,-0.7751879692077637,0.16554448008537292,0.025656340643763542
1782776466288801500,0.532801513671875,-0.7648032903671265,0.17348572611808777,-0.0012217304902151227
1782776466298832100,0.54283203125,-0.7648032903671265,0.17043140530586243,-0.01466076634824276
1782776466308821000,0.552821044921875,-0.7666358947753906,0.15821409225463867,-0.024434609338641167
1782776466318821400,0.5628212890625,-0.7556403279304504,0.14294247329235077,-0.02382374368607998
1782776466328810200,0.572810302734375,-0.7067710757255554,0.11972958594560623,-0.009773843921720982
1782776466338841600,0.582841552734375,-0.6548475623130798,0.10812314599752426,0.012828170321881771
1782776466348799200,0.59279931640625,-0.5974262356758118,0.09834930300712585,0.04337143152952194
1782776466358830600,0.60283056640625,-0.5461135506629944,0.10323622822761536,0.06902777403593063
1782776466368819000,0.61281884765625,-0.5027421116828918,0.12522737681865692,0.08429940044879913
1782776466378819300,0.6228193359375,-0.4648684561252594,0.15882496535778046,0.08185594528913498
1782776466388807400,0.632807373046875,-0.44287729263305664,0.19486601650714874,0.05925392732024193
1782776466398839000,0.642839111328125,-0.43615779280662537,0.2174680233001709,0.00733038317412138
1782776466408796700,0.652796630859375,-0.4349360466003418,0.23396138846874237,-0.05375614017248154
1782776466418828000,0.662828125,-0.4300491213798523,0.24678955972194672,-0.10506882518529892
1782776466428816100,0.672816162109375,-0.4202753007411957,0.24923302233219147,-0.13988813757896423
1782776466438817000,0.682817138671875,-0.3988949954509735,0.24923302233219147,-0.15943582355976105
1782776466448805400,0.692805419921875,-0.36713001132011414,0.24129177629947662,-0.17776179313659668
1782776466458836700,0.702836669921875,-0.3219259977340698,0.22418753802776337,-0.19486601650714874
1782776466468794400,0.71279443359375,-0.2638937830924988,0.2028072625398636,-0.2070833146572113
1782776466478825700,0.72282568359375,-0.22418753802776337,0.16920967400074005,-0.2168571650981903
1782776466488813800,0.732813720703125,-0.192422553896904,0.152105450630188,-0.21868975460529327
1782776466498814500,0.742814453125,-0.16920967400074005,0.1319468915462494,-0.2321287989616394
1782776466508802800,0.752802734375,-0.14538592100143433,0.11789698898792267,-0.2577851414680481
1782776466518834000,0.762833984375,-0.10567969083786011,0.15882496535778046,-0.28955012559890747
1782776466528822300,0.772822265625,-0.025045474991202354,0.24129177629947662,-0.30482175946235657
1782776466538823000,0.782822998046875,0.07147123664617538,0.23151792585849762,-0.29565876722335815
1782776466548811500,0.7928115234375,0.13866640627384186,0.1313360333442688,-0.2736676335334778
1782776466558842000,0.802842041015625,0.16920967400074005,0.009773843921720982,-0.251676470041275
1782776466568800300,0.81280029296875,0.17287486791610718,-0.1368338167667389,-0.2474004179239273
1782776466578830800,0.822830810546875,0.1459967941045761,-0.30604347586631775,-0.2742784917354584
1782776466588820000,0.832820068359375,0.06230825558304787,-0.413555771112442,-0.33658674359321594
1782776466598819800,0.84281982421875,-0.07147123664617538,-0.4245513379573822,-0.4251621961593628
1782776466608808700,0.85280859375,-0.2076941877603531,-0.3640756905078888,-0.5076290369033813
1782776466618840600,0.862840576171875,-0.31154128909111023,-0.251676470041275,-0.5607742667198181
1782776466628798000,0.8727978515625,-0.3640756905078888,-0.1014036312699318,-0.5644394755363464
1782776466638829600,0.88282958984375,-0.3646865487098694,0.09224065393209457,-0.5100724697113037
1782776466648817400,0.8928173828125,-0.2974913716316223,0.30482175946235657,-0.394618958234787
1782776466658818600,0.902818603515625,-0.16982053220272064,0.48747047781944275,-0.23945917189121246
1782776466668806700,0.912806640625,-0.021991148591041565,0.5827654600143433,-0.06414084881544113
1782776466678838300,0.92283837890625,0.09834930300712585,0.5644394755363464,0.10445795953273773
1782776466688795400,0.93279541015625,0.18631389737129211,0.4856378734111786,0.25961771607398987
1782776466698827300,0.9428271484375,0.24434609711170197,0.3530801236629486,0.38606682419776917
1782776466708815000,0.952815185546875,0.28649580478668213,0.1569923609495163,0.4801400899887085
1782776466718816300,0.962816162109375,0.30543261766433716,-0.060475658625364304,0.5485569834709167
1782776466728804000,0.97280419921875,0.2828305959701538,-0.2681698501110077,0.5827654600143433
1782776466738834200,0.982834228515625,0.22357667982578278,-0.4447098970413208,0.5662720799446106
1782776466748793000,0.99279296875,0.10567969083786011,-0.6249151229858398,0.43799036741256714
1782776466758823700,1.00282373046875,0.018936822190880775,-0.6420193910598755,0.32131510972976685
1782776466768812800,1.012812744140625,-0.06352998316287994,-0.5180137157440186,0.23151792585849762
1782776466778843000,1.0228427734375,-0.13377949595451355,-0.2968805134296417,0.19547687470912933
1782776466788801500,1.032801513671875,-0.18081611394882202,-0.06414084881544113,0.21319197118282318
1782776466798833700,1.042833740234375,-0.18875735998153687,0.13316862285137177,0.2791654169559479
1782776466808821000,1.052821044921875,-0.1563815027475357,0.26022860407829285,0.37690386176109314
1782776466818821400,1.0628212890625,-0.08979719132184982,0.3090978264808655,0.4813618063926697
1782776466828809700,1.072809814453125,-0.012828170321881771,0.3078760802745819,0.5815436840057373
1782776466838841300,1.08284130859375,0.06230825558304787,0.2632829248905182,0.6731734871864319
1782776466848798700,1.092798828125,0.11972958594560623,0.19120082259178162,0.7544185519218445
1782776466858830600,1.10283056640625,0.14416420459747314,0.11545353382825851,0.8234463334083557
1782776466868818200,1.112818115234375,0.13866640627384186,0.05192354694008827,0.8692612648010254
1782776466878818800,1.12281884765625,0.10934487730264664,-0.00733038317412138,0.8839219808578491
1782776466888807200,1.13280712890625,0.06414084881544113,-0.06108652427792549,0.8588765263557434
1782776466898837500,1.14283740234375,0.009773843921720982,-0.12095131725072861,0.7971791625022888
1782776466908796400,1.15279638671875,-0.05253441259264946,-0.18081611394882202,0.7006624341011047
1782776466918827300,1.1628271484375,-0.10690141469240189,-0.22296582162380219,0.5833762884140015
1782776466928816000,1.172816162109375,-0.15821409225463867,-0.2535090744495392,0.45265114307403564
1782776466938816300,1.182816162109375,-0.2028072625398636,-0.2816088795661926,0.313373863697052
1782776466948805400,1.192805419921875,-0.2535090744495392,-0.32131510972976685,0.1716531366109848
1782776466958835700,1.202835693359375,-0.3090978264808655,-0.37629300355911255,0.03481931984424591
1782776466968794400,1.21279443359375,-0.3628539443016052,-0.4300491213798523,-0.07757988572120667
1782776466978825500,1.222825439453125,-0.4153883755207062,-0.46731191873550415,-0.152105450630188
1782776466988813800,1.232813720703125,-0.46364670991897583,-0.485027015209198,-0.1875356286764145
1782776466998814000,1.24281396484375,-0.5070181488990784,-0.49785518646240234,-0.19975294172763824
1782776467008802800,1.252802734375,-0.5516113042831421,-0.5210680365562439,-0.20341812074184418
1782776467018833400,1.26283349609375,-0.5937610268592834,-0.5436700582504272,-0.2028072625398636
1782776467028822300,1.272822265625,-0.6383541822433472,-0.5326744914054871,-0.19608774781227112
1782776467038822700,1.28282275390625,-0.6908885836601257,-0.5021312236785889,-0.18814650177955627
1782776467048811500,1.2928115234375,-0.7440338730812073,-0.4648684561252594,-0.18997909128665924
1782776467058842000,1.302842041015625,-0.7922922372817993,-0.4294382631778717,-0.19975294172763824
1782776467068800300,1.31280029296875,-0.8344419002532959,-0.40072759985923767,-0.2217440903186798
1782776467078831000,1.3228310546875,-0.8741481900215149,-0.3903428912162781,-0.251676470041275
1782776467088819700,1.33281982421875,-0.9181304574012756,-0.40194934606552124,-0.29993483424186707
1782776467098820000,1.342820068359375,-0.9578366875648499,-0.4184426963329315,-0.35552358627319336
1782776467108809000,1.35280908203125,-0.9908234477043152,-0.43249258399009705,-0.4080579876899719
1782776467118839600,1.362839599609375,-1.016479730606079,-0.4495968222618103,-0.45204028487205505
1782776467128798000,1.3727978515625,-1.0445796251296997,-0.46364670991897583,-0.48685958981513977
1782776467138828800,1.382828857421875,-1.076344609260559,-0.47769662737846375,-0.5088507533073425
1782776467148817400,1.3928173828125,-1.1099421977996826,-0.4954117238521576,-0.5210680365562439
1782776467158817500,1.402817626953125,-1.1582005023956299,-0.5015203952789307,-0.5338962078094482
1782776467168806700,1.412806640625,-1.2125675678253174,-0.4697553813457489,-0.5345070958137512
1782776467178838000,1.422838134765625,-1.2113457918167114,-0.394008070230484,-0.5167919993400574
1782776467188795600,1.432795654296875,-1.1679743528366089,-0.39095374941825867,-0.49357911944389343
1782776467198826800,1.44282666015625,-1.091616153717041,-0.4386012554168701,-0.4715879559516907
1782776467208814800,1.45281494140625,-1.0482447147369385,-0.5485569834709167,-0.513737678527832
1782776467218815200,1.462815185546875,-1.1068878173828125,-0.8234463334083557,-0.6841690540313721
1782776467228804000,1.47280419921875,-1.2846496105194092,-1.214400053024292,-0.9828822016716003
1782776467238867200,1.4828671875,-1.547932505607605,-1.4984524250030518,-1.3494013547897339
1782776467248793000,1.49279296875,-1.7898352146148682,-1.5357152223587036,-1.6688838005065918
1782776467258823700,1.50282373046875,-1.9724838733673096,-1.357953429222107,-1.8820757865905762
1782776467268812500,1.5128125,-2.0977113246917725,-1.0586295127868652,-1.9724838733673096
1782776467278843100,1.522843017578125,-2.1392500400543213,-0.7354817390441895,-1.9645426273345947
1782776467288801500,1.532801513671875,-2.068389654159546,-0.475253164768219,-1.882686734199524
1782776467298832400,1.542832275390625,-1.9120081663131714,-0.2840523421764374,-1.740355134010315
1782776467308821200,1.5528212890625,-1.7244726419448853,-0.10934487730264664,-1.5332717895507812
1782776467318822700,1.56282275390625,-1.5430456399917603,0.06719517707824707,-1.235169529914856
1782776467328810200,1.572810302734375,-1.376279354095459,0.2015855312347412,-0.8472700715065002
1782776467338842000,1.582842041015625,-1.218676209449768,0.24434609711170197,-0.41233405470848083
1782776467348799200,1.59279931640625,-1.0580185651779175,0.1966986060142517,0.028099801391363144
1782776467358831000,1.6028310546875,-0.921184778213501,0.05742133408784866,0.41599923372268677
1782776467368819000,1.61281884765625,-0.8210029006004333,-0.1472185254096985,0.7122688889503479
1782776467378818800,1.62281884765625,-0.7678576111793518,-0.38728857040405273,0.9034696817398071
1782776467388807700,1.6328076171875,-0.7739662528038025,-0.637132465839386,0.9944885969161987
1782776467398838300,1.64283837890625,-0.8210029006004333,-0.8417723178863525,0.9938777685165405
1782776467408796700,1.652796630859375,-0.9101892113685608,-0.979216992855072,0.9260717034339905
1782776467418829300,1.662829345703125,-1.035416603088379,-1.0512990951538086,0.8008443117141724
1782776467428816100,1.672816162109375,-1.2095131874084473,-1.054964303970337,0.6218608021736145
1782776467438818600,1.682818603515625,-1.4196507930755615,-0.9767735004425049,0.40194934606552124
1782776467448805400,1.692805419921875,-1.632842779159546,-0.826500654220581,0.15760323405265808
1782776467458838000,1.702838134765625,-1.8179349899291992,-0.607810914516449,-0.08246681094169617
1782776467468794400,1.71279443359375,-1.9333884716033936,-0.3286454975605011,-0.27000242471694946
1782776467478825000,1.722824951171875,-1.9804251194000244,-0.03237585723400116,-0.3787364661693573
1782776467488813800,1.732813720703125,-1.9718730449676514,0.21991148591041565,-0.39706242084503174
1782776467498814000,1.74281396484375,-1.929112434387207,0.3933972120285034,-0.3335324227809906
1782776467508802800,1.752802734375,-1.8637498617172241,0.48685958981513977,-0.21074850857257843
1782776467518834700,1.762834716796875,-1.7757853269577026,0.4996877610683441,-0.05375614017248154
1782776467528822300,1.772822265625,-1.6743816137313843,0.42638394236564636,0.10995574295520782
1782776467538824000,1.782823974609375,-1.578475832939148,0.28955012559890747,0.251676470041275
1782776467548811500,1.7928115234375,-1.4947872161865234,0.13072516024112701,0.35552358627319336
1782776467558843100,1.802843017578125,-1.4214833974838257,-0.010995574295520782,0.41172316670417786
1782776467568800300,1.81280029296875,-1.3628404140472412,-0.09957103431224823,0.4129449129104614
1782776467578831000,1.8228310546875,-1.313360333442688,-0.12767083942890167,0.3695734739303589
1782776467588820000,1.832820068359375,-1.2486085891723633,-0.08979719132184982,0.24984388053417206
1782776467598820000,1.842820068359375,-1.2180652618408203,-0.04337143152952194,0.14782938361167908
1782776467608809000,1.85280908203125,-1.1948524713516235,0.007941247895359993,0.03420845419168472
1782776467618839600,1.862839599609375,-1.178359031677246,0.06108652427792549,-0.08368854224681854
1782776467628798000,1.8727978515625,-1.171028733253479,0.1111774742603302,-0.19975294172763824
1782776467638828500,1.88282861328125,-1.1704177856445312,0.1618792861700058,-0.30543261766433716
1782776467648817400,1.8928173828125,-1.1746938228607178,0.21502456068992615,-0.39706242084503174
1782776467658817800,1.90281787109375,-1.1759155988693237,0.2681698501110077,-0.4740314185619354
1782776467668806700,1.912806640625,-1.166752576828003,0.31581732630729675,-0.5351179838180542
1782776467678837800,1.922837646484375,-1.1343767642974854,0.37262779474258423,-0.5748242139816284
1782776467688795600,1.932795654296875,-1.0836749076843262,0.43737950921058655,-0.5992587804794312
1782776467698826800,1.94282666015625,-1.0238101482391357,0.49296826124191284,-0.6114761233329773
1782776467708815000,1.952815185546875,-0.9572258591651917,0.5302310585975647,-0.6243042945861816
1782776467718815700,1.962815673828125,-0.8704829812049866,0.5540547966957092,-0.627358615398407
1782776467728804000,1.97280419921875,-0.7635815739631653,0.5528330206871033,-0.6163630485534668
1782776467738835200,1.982835205078125,-0.637132465839386,0.5204572081565857,-0.5925393104553223
1782776467748793000,1.99279296875,-0.4948008358478546,0.4789183437824249,-0.5467243790626526
1782776467758824400,2.002824462890625,-0.34147366881370544,0.42577308416366577,-0.49296826124191284
1782776467768812800,2.012812744140625,-0.1918116807937622,0.394008070230484,-0.43188172578811646
1782776467778844000,2.022843994140625,-0.06536258012056351,0.37690386176109314,-0.3695734739303589
1782776467788801800,2.0328017578125,0.042760565876960754,0.35735616087913513,-0.3090978264808655
1782776467798832600,2.04283251953125,0.13316862285137177,0.33658674359321594,-0.252287358045578
1782776467808821000,2.052821044921875,0.20463985204696655,0.3225368559360504,-0.19792033731937408
1782776467818820900,2.06282080078125,0.2583959996700287,0.3127630054950714,-0.1472185254096985
1782776467828809700,2.072809814453125,0.29993483424186707,0.3023782968521118,-0.09407325088977814
1782776467838840600,2.082840576171875,0.33108896017074585,0.2828305959701538,-0.03176499158143997
1782776467848798700,2.092798828125,0.3543018400669098,0.2626720666885376,0.030543262138962746
1782776467858829800,2.102829833984375,0.37690386176109314,0.26511552929878235,0.0861319974064827
1782776467868818200,2.112818115234375,0.42638394236564636,0.30604347586631775,0.13988813757896423
1782776467878818800,2.12281884765625,0.5094616413116455,0.28588494658470154,0.18387043476104736
1782776467888807200,2.13280712890625,0.5925393104553223,0.11667526513338089,0.17592918872833252
1782776467898838000,2.142838134765625,0.5729916095733643,-0.19547687470912933,0.07757988572120667
1782776467908796200,2.152796142578125,0.4294382631778717,-0.5265658497810364,-0.11728613078594208
1782776467918827000,2.162826904296875,0.23640485107898712,-0.7055493593215942,-0.33292156457901
1782776467928816000,2.172816162109375,0.06719517707824707,-0.7189884185791016,-0.47708576917648315
1782776467938816000,2.18281591796875,-0.05803219974040985,-0.5974262356758118,-0.503963828086853
1782776467948805400,2.192805419921875,-0.1062905490398407,-0.3995058834552765,-0.4031710624694824
1782776467958837000,2.2028369140625,-0.06169738993048668,-0.20341812074184418,-0.1869247704744339
1782776467968794400,2.21279443359375,0.05375614017248154,-0.009162978269159794,0.12400564551353455
1782776467978826000,2.222825927734375,0.2064724564552307,0.23273965716362,0.4862487316131592
1782776467988813800,2.232813720703125,0.36651915311813354,0.46853363513946533,0.8295549750328064
1782776467998814700,2.242814697265625,0.5210680365562439,0.6304129362106323,1.1020009517669678
1782776468008802800,2.252802734375,0.7379252314567566,0.7299839854240417,1.3738359212875366
1782776468018834400,2.26283447265625,0.8344419002532959,0.7489207983016968,1.4899003505706787
1782776468028822300,2.272822265625,0.8729264140129089,0.7452555894851685,1.5680910348892212
1782776468038822100,2.282822265625,0.8717046976089478,0.7037167549133301,1.6206254959106445
1782776468048811500,2.2928115234375,0.8313875794410706,0.6243042945861816,1.6487252712249756
1782776468058841900,2.302841796875,0.749531626701355,0.47830748558044434,1.6407840251922607
1782776468068800300,2.31280029296875,0.607810914516449,0.24617868661880493,1.5961909294128418
1782776468078833200,2.322833251953125,0.3995058834552765,-0.009162978269159794,1.5063936710357666
1782776468088820000,2.332820068359375,0.10873401165008545,-0.3292563557624817,1.3420709371566772
1782776468098822000,2.34282177734375,-0.2541199326515198,-0.6786713004112244,1.0903944969177246
1782776468108809000,2.35280908203125,-0.6285803318023682,-0.9547823667526245,0.7721336483955383
1782776468118841600,2.362841552734375,-0.9615018963813782,-1.0659598112106323,0.45631635189056396
1782776468128798000,2.3727978515625,-1.2388347387313843,-1.0134254693984985,0.19853121042251587
1782776468138828800,2.382828857421875,-1.4856243133544922,-0.8063421249389648,0.036041051149368286
1782776468148817400,2.3928173828125,-1.6872098445892334,-0.49785518646240234,-0.036041051149368286
1782776468158817500,2.402817626953125,-1.7989981174468994,-0.16982053220272064,-0.025045474991202354
1782776468168806700,2.412806640625,-1.8087719678878784,0.12522737681865692,0.039706241339445114
1782776468178838300,2.42283837890625,-1.7232508659362793,0.37262779474258423,0.13561208546161652
1782776468188795600,2.432795654296875,-1.5711454153060913,0.5699372887611389,0.251676470041275
1782776468198827500,2.44282763671875,-1.4025466442108154,0.7061602473258972,0.3695734739303589
1782776468208814800,2.45281494140625,-1.2510520219802856,0.770301103591919,0.46670106053352356
1782776468218816300,2.462816162109375,-1.1441506147384644,0.7660250067710876,0.5229006409645081
1782776468228804000,2.47280419921875,-1.086118459701538,0.7385360598564148,0.5418374538421631
1782776468238835000,2.4828349609375,-1.0793988704681396,0.7189884185791016,0.5265658497810364
1782776468248793000,2.49279296875,-1.1117748022079468,0.6951646208763123,0.4789183437824249
1782776468258823700,2.50282373046875,-1.1716395616531372,0.6615670323371887,0.4147774875164032
1782776468268812800,2.512812744140625,-1.2492194175720215,0.6139195561408997,0.34208452701568604
1782776468278843100,2.522843017578125,-1.3347405195236206,0.5552765130996704,0.2620611786842346
1782776468288801500,2.532801513671875,-1.4275920391082764,0.485027015209198,0.182648703455925
1782776468298832400,2.542832275390625,-1.5082262754440308,0.39645153284072876,0.10323622822761536
1782776468308821000,2.552821044921875,-1.5754214525222778,0.2871066629886627,0.03237585723400116
1782776468318821400,2.5628212890625,-1.6187928915023804,0.18020524084568024,-0.02932153269648552
1782776468328810200,2.572810302734375,-1.6578882932662964,0.07696902006864548,-0.08429940044879913
1782776468338841300,2.58284130859375,-1.6963727474212646,-0.03481931984424591,-0.1472185254096985
1782776468348799200,2.59279931640625,-1.742187738418579,-0.15454891324043274,-0.21868975460529327
1782776468358830600,2.60283056640625,-1.7941112518310547,-0.29993483424186707,-0.313373863697052
1782776468368819000,2.61281884765625,-1.855197787284851,-0.4715879559516907,-0.4398229718208313
1782776468378818800,2.62281884765625,-1.9315558671951294,-0.6872233748435974,-0.5962044596672058
1782776468388807400,2.632807373046875,-2.031737804412842,-0.9279043078422546,-0.7825183868408203
1782776468398838300,2.64283837890625,-2.174069404602051,-1.1459832191467285,-0.9761626720428467
1782776468408796700,2.652796630859375,-2.3438899517059326,-1.2901474237442017,-1.1355985403060913
1782776468418827300,2.6628271484375,-2.5332581996917725,-1.2852604389190674,-1.2125675678253174
1782776468428816100,2.672816162109375,-2.8319711685180664,-1.072068452835083,-1.1423180103302002
1782776468438816300,2.682816162109375,-2.9999592304229736,-0.8894197940826416,-0.988990843296051
1782776468448805400,2.692805419921875,-3.1111366748809814,-0.7941248416900635,-0.7996225953102112
1782776468458835500,2.70283544921875,-3.155118942260742,-0.8234463334083557,-0.618195652961731
1782776468468794400,2.71279443359375,-3.1471776962280273,-0.9639453291893005,-0.47769662737846375
1782776468478826200,2.722826171875,-3.1148018836975098,-1.177748203277588,-0.3897320330142975
1782776468488813800,2.732813720703125,-3.0781500339508057,-1.4147639274597168,-0.35124751925468445
1782776468498814000,2.74281396484375,-3.0524935722351074,-1.632842779159546,-0.35124751925468445
1782776468508802800,2.752802734375,-3.0469958782196045,-1.7788395881652832,-0.35674530267715454
1782776468518833400,2.76283349609375,-3.070208787918091,-1.833817481994629,-0.34574973583221436
1782776468528822300,2.772822265625,-3.1276299953460693,-1.833817481994629,-0.3066543638706207
1782776468538822700,2.78282275390625,-3.210707664489746,-1.7690657377243042,-0.23029619455337524
1782776468548811500,2.7928115234375,-3.302948474884033,-1.703092336654663,-0.1466076523065567
1782776468558842000,2.802842041015625,-3.383582592010498,-1.6841554641723633,-0.08124507963657379
1782776468568800300,2.81280029296875,-3.43978214263916,-1.7238616943359375,-0.05009094998240471
1782776468578831000,2.8228310546875,-3.4819319248199463,-1.8820757865905762,-0.06414084881544113
1782776468588820000,2.832820068359375,-3.5295794010162354,-2.1930062770843506,-0.13011430203914642
1782776468598820000,2.842820068359375,-3.5967745780944824,-2.582738161087036,-0.23335053026676178
1782776468608808700,2.85280859375,-3.665802240371704,-2.9187140464782715,-0.36163222789764404
1782776468618839800,2.86283984375,-3.743382215499878,-3.129462718963623,-0.4893030524253845
1782776468628798000,2.8727978515625,-3.8148534297943115,-3.1728341579437256,-0.5998696684837341
1782776468638828800,2.882828857421875,-3.871663808822632,-3.079371690750122,-0.6872233748435974
1782776468648817400,2.8928173828125,-3.9089267253875732,-2.8826730251312256,-0.7556403279304504
1782776468658817800,2.90281787109375,-3.9119811058044434,-2.6224443912506104,-0.826500654220581
1782776468668806700,2.912806640625,-3.880826950073242,-2.364659309387207,-0.9272934198379517
1782776468678838000,2.922838134765625,-3.813631772994995,-2.1337523460388184,-1.062294602394104
1782776468688795400,2.93279541015625,-3.7287213802337646,-1.9077321290969849,-1.205847978591919
1782776468698826800,2.94282666015625,-3.6358699798583984,-1.6975945234298706,-1.33168625831604
1782776468708814800,2.95281494140625,-3.536909818649292,-1.5192219018936157,-1.4141530990600586
1782776468718815700,2.962815673828125,-3.4293975830078125,-1.340238332748413,-1.4208725690841675
1782776468728804000,2.97280419921875,-3.316387414932251,-1.1539244651794434,-1.3475687503814697
1782776468738835200,2.982835205078125,-3.1972687244415283,-0.9828822016716003,-1.2180652618408203
1782776468748793000,2.99279296875,-3.0689868927001953,-0.8539896011352539,-1.056796908378601
1782776468758824700,3.00282470703125,-2.9431488513946533,-0.7745771408081055,-0.8924741148948669
1782776468768812800,3.012812744140625,-2.8295278549194336,-0.7336491346359253,-0.7513642311096191
1782776468778844400,3.022844482421875,-2.729956865310669,-0.7177666425704956,-0.6481280326843262
1782776468788801500,3.032801513671875,-2.637716054916382,-0.6896668672561646,-0.5858197808265686
1782776468798833700,3.042833740234375,-2.5473079681396484,-0.6328563690185547,-0.5522221922874451
1782776468808821000,3.052821044921875,-2.4611761569976807,-0.5528330206871033,-0.5351179838180542
1782776468818821400,3.0628212890625,-2.3744332790374756,-0.45326200127601624,-0.5155702829360962
1782776468828809700,3.072809814453125,-2.285857677459717,-0.33658674359321594,-0.4807509481906891
1782776468838841300,3.08284130859375,-2.1930062770843506,-0.20891591906547546,-0.4343251883983612
1782776468848798500,3.092798583984375,-2.0977113246917725,-0.10506882518529892,-0.37140607833862305
1782776468858830600,3.10283056640625,-1.965153455734253,0.0659734457731247,-0.24434609711170197
1782776468868818200,3.112818115234375,-1.8961256742477417,0.18081611394882202,-0.1514945775270462
1782776468878819600,3.122819580078125,-1.8368717432022095,0.28649580478668213,-0.07269296050071716
1782776468888807200,3.13280712890625,-1.788002610206604,0.3805690407752991,-0.018936822190880775
1782776468898839000,3.142839111328125,-1.7458528280258179,0.45814892649650574,0.003054326167330146
1782776468908796200,3.152796142578125,-1.7061465978622437,0.513737678527832,0.0006108652451075613
1782776468918827800,3.162827880859375,-1.6603317260742188,0.5729916095733643,-0.018325956538319588
1782776468928816000,3.172816162109375,-1.6096298694610596,0.637132465839386,-0.042760565876960754
1782776468938816800,3.182816650390625,-1.5558737516403198,0.7012733221054077,-0.06902777403593063
1782776468948805000,3.19280517578125,-1.49906325340271,0.7605272531509399,-0.08918632566928864
1782776468958836700,3.202836669921875,-1.4410310983657837,0.808174729347229,-0.10506882518529892
1782776468968794000,3.212794189453125,-1.3781119585037231,0.8411614298820496,-0.11911872029304504
1782776468978825700,3.22282568359375,-1.3084733486175537,0.8307767510414124,-0.1313360333442688
1782776468988813800,3.232813720703125,-1.2467759847640991,0.7922922372817993,-0.14049901068210602
1782776468998814500,3.242814453125,-1.1924089193344116,0.7330383062362671,-0.13988813757896423
1782776469008802800,3.252802734375,-1.1551461219787598,0.6670648455619812,-0.13988813757896423
1782776469018834000,3.262833984375,-1.1478158235549927,0.588874101638794,-0.1508837193250656
1782776469028822300,3.272822265625,-1.1484266519546509,0.5216789245605469,-0.1661553531885147
1782776469038823200,3.2828232421875,-1.1276572942733765,0.48685958981513977,-0.1814269721508026
1782776469048811500,3.2928115234375,-1.0775662660598755,0.475253164768219,-0.19303341209888458
1782776469058842400,3.30284228515625,-1.0054842233657837,0.46547931432724,-0.21135938167572021
1782776469068800300,3.31280029296875,-0.921184778213501,0.44837507605552673,-0.24373523890972137
1782776469078831600,3.32283154296875,-0.8399397134780884,0.43799036741256714,-0.28649580478668213
1782776469088820000,3.332820068359375,-0.759305477142334,0.4331034719944,-0.33047810196876526
1782776469098821400,3.3428212890625,-0.6786713004112244,0.423329621553421,-0.36163222789764404
1782776469108809000,3.35280908203125,-0.5839871764183044,0.41172316670417786,-0.36163222789764404
1782776469118840800,3.3628408203125,-0.4605923891067505,0.4129449129104614,-0.3090978264808655
1782776469128798000,3.3727978515625,-0.3194825351238251,0.46547931432724,-0.2021963894367218
1782776469138829600,3.38282958984375,-0.18570303916931152,0.5381723046302795,-0.059864792972803116
1782776469148817400,3.3928173828125,-0.07819075137376785,0.5858197808265686,0.08491026610136032
1782776469158818800,3.40281884765625,0.00366519158706069,0.588874101638794,0.2174680233001709
1782776469168806700,3.412806640625,0.07819075137376785,0.5613851547241211,0.34208452701568604
1782776469178837500,3.42283740234375,0.15515977144241333,0.5149593949317932,0.44776421785354614
1782776469188795400,3.43279541015625,0.24617868661880493,0.44226643443107605,0.5363397002220154
1782776469198826500,3.442826416015625,0.36163222789764404,0.35674530267715454,0.6120869517326355
1782776469208814800,3.45281494140625,0.48869219422340393,0.2376265823841095,0.6737843751907349
1782776469218815700,3.462815673828125,0.5907067060470581,0.08491026610136032,0.7153232097625732
1782776469228804000,3.47280419921875,0.6090326309204102,-0.05375614017248154,0.7159340381622314
1782776469238866400,3.482866455078125,0.513737678527832,-0.1612684279680252,0.6426302194595337
1782776469248793000,3.49279296875,0.34758231043815613,-0.23090706765651703,0.46364670991897583
1782776469258824200,3.50282421875,0.16737708449363708,-0.2370157092809677,0.23396138846874237
1782776469268812500,3.5128125,0.03726277872920036,-0.15271630883216858,0.010995574295520782
1782776469278844000,3.522843994140625,-0.06230825558304787,0.010995574295520782,-0.17348572611808777
1782776469288801500,3.532801513671875,-0.08002334833145142,0.054367005825042725,-0.2076941877603531
1782776469298832600,3.54283251953125,-0.08735372871160507,0.001832595793530345,-0.21319197118282318
1782776469308821000,3.552821044921875,-0.08246681094169617,-0.12767083942890167,-0.23640485107898712
1782776469318821600,3.562821533203125,-0.07452555745840073,-0.2822197377681732,-0.27550023794174194
1782776469328810000,3.57281005859375,-0.11056660860776901,-0.4288274049758911,-0.31154128909111023
1782776469338841300,3.58284130859375,-0.17043140530586243,-0.5662720799446106,-0.3378084897994995
1782776469348799200,3.59279931640625,-0.22663100063800812,-0.6860016584396362,-0.3439171314239502
1782776469358830300,3.602830322265625,-0.2681698501110077,-0.7727445363998413,-0.3219259977340698
1782776469368818700,3.612818603515625,-0.3139847218990326,-0.8338310718536377,-0.2816088795661926
1782776469378819300,3.6228193359375,-0.37262779474258423,-0.8423831462860107,-0.23640485107898712
1782776469388807400,3.632807373046875,-0.43799036741256714,-0.7751879692077637,-0.19853121042251587
1782776469398839000,3.642839111328125,-0.5070181488990784,-0.6585127115249634,-0.18387043476104736
1782776469408796700,3.652796630859375,-0.5717698931694031,-0.5241223573684692,-0.19486601650714874
1782776469418827800,3.662827880859375,-0.6298020482063293,-0.394008070230484,-0.2278527319431305
1782776469428816100,3.672816162109375,-0.6762278079986572,-0.2822197377681732,-0.27000242471694946
1782776469438816800,3.682816650390625,-0.7134906053543091,-0.1771509200334549,-0.30115658044815063
1782776469448805400,3.692805419921875,-0.7263187766075134,-0.05803219974040985,-0.2877175211906433
1782776469458837000,3.7028369140625,-0.7073819637298584,0.09346238523721695,-0.23518311977386475
1782776469468794400,3.71279443359375,-0.675006091594696,0.23273965716362,-0.14966198801994324
1782776469478826000,3.722825927734375,-0.636521577835083,0.3280346393585205,-0.06780604273080826
1782776469488813800,3.732813720703125,-0.6114761233329773,0.3646865487098694,-0.006719517521560192
1782776469498814700,3.742814697265625,-0.5974262356758118,0.3628539443016052,0.03176499158143997
1782776469508802800,3.752802734375,-0.588874101638794,0.3536909818649292,0.05497787147760391
1782776469518833400,3.76283349609375,-0.5864306092262268,0.33719760179519653,0.06719517707824707
1782776469528822300,3.772822265625,-0.5913175344467163,0.3078760802745819,0.06841690838336945
1782776469538823200,3.7828232421875,-0.6126978397369385,0.25473082065582275,0.05864306539297104
1782776469548811500,3.7928115234375,-0.6389650702476501,0.1508837193250656,0.04703662544488907
1782776469558843000,3.8028427734375,-0.6688974499702454,-0.01771509274840355,0.04581489413976669
1782776469568800300,3.81280029296875,-0.7049384713172913,-0.2217440903186798,0.05009094998240471
1782776469578832000,3.822831787109375,-0.7562511563301086,-0.4392121136188507,0.042760565876960754
1782776469588820000,3.832820068359375,-0.8228355050086975,-0.6243042945861816,0.012217304669320583
1782776469598820600,3.842820556640625,-0.8808676600456238,-0.7232644557952881,-0.05009094998240471
1782776469608809000,3.85280908203125,-0.9242390990257263,-0.7232644557952881,-0.15454891324043274
1782776469618840300,3.86284033203125,-0.9560040831565857,-0.6389650702476501,-0.3084869384765625
1782776469628798000,3.8727978515625,-0.9590584635734558,-0.48808133602142334,-0.4954117238521576
1782776469638830000,3.882830078125,-0.9468411207199097,-0.2974913716316223,-0.6866125464439392
1782776469648817400,3.8928173828125,-0.9138544201850891,-0.0806342139840126,-0.8527678847312927
1782776469658817500,3.902817626953125,-0.8533787727355957,0.0806342139840126,-0.9908234477043152
1782776469668806700,3.912806640625,-0.7635815739631653,0.20097467303276062,-1.0812314748764038
1782776469678776000,3.922776123046875,-0.6359107494354248,0.342695415019989,-1.1178834438323975
1782776469688887000,3.932886962890625,-0.42577308416366577,0.46181413531303406,-1.1074986457824707
1782776469698827300,3.9428271484375,-0.29504790902137756,0.46242499351501465,-1.0543533563613892
1782776469708815000,3.952815185546875,-0.20036379992961884,0.41599923372268677,-0.9645562171936035
1782776469718816300,3.962816162109375,-0.1319468915462494,0.342695415019989,-0.8393288254737854
1782776469728804000,3.97280419921875,-0.08124507963657379,0.2669481039047241,-0.6939429044723511
1782776469738835700,3.982835693359375,-0.029932396486401558,0.1966986060142517,-0.5369505286216736
1782776469748793000,3.99279296875,0.02932153269648552,0.10934487730264664,-0.38240164518356323
1782776469758824200,4.00282421875,0.08552113175392151,0.009773843921720982,-0.22968533635139465
1782776469768812800,4.012812744140625,0.12522737681865692,-0.07757988572120667,-0.09040805697441101
1782776469778843600,4.02284375,0.13316862285137177,-0.17043140530586243,0.02076941914856434
1782776469788761300,4.03276123046875,0.12278391420841217,-0.26511552929878235,0.10262536257505417
1782776469798893800,4.042893798828125,0.10995574295520782,-0.33108896017074585,0.16554448008537292
1782776469808821200,4.0528212890625,0.07330382615327835,-0.40133845806121826,0.20036379992961884
1782776469818820900,4.06282080078125,0.031154127791523933,-0.4899139404296875,0.21624629199504852
1782776469828809700,4.072809814453125,-0.01466076634824276,-0.5589417219161987,0.23029619455337524
1782776469838840800,4.0828408203125,-0.06352998316287994,-0.6114761233329773,0.2431243658065796
1782776469848798700,4.092798828125,-0.11362093687057495,-0.6493497490882874,0.2632829248905182
1782776469858829800,4.102829833984375,-0.15515977144241333,-0.6682865619659424,0.2938261926174164
1782776469868818200,4.112818115234375,-0.18936823308467865,-0.6939429044723511,0.3274237811565399
1782776469878818800,4.12281884765625,-0.21807889640331268,-0.7373143434524536,0.36163222789764404
1782776469888807200,4.13280712890625,-0.23518311977386475,-0.7965682744979858,0.39706242084503174
1782776469898838300,4.14283837890625,-0.24984388053417206,-0.8704829812049866,0.4355469346046448
1782776469908796200,4.152796142578125,-0.26511552929878235,-0.940732479095459,0.475253164768219
1782776469918827800,4.162827880859375,-0.28527405858039856,-1.0097602605819702,0.5021312236785889
1782776469928816000,4.172816162109375,-0.3121521472930908,-1.0757336616516113,0.5143485069274902
1782776469938816800,4.182816650390625,-0.3488040566444397,-1.0989465713500977,0.5082398653030396
1782776469948805400,4.192805419921875,-0.3952298164367676,-1.0971139669418335,0.48685958981513977
1782776469958836500,4.20283642578125,-0.4489859640598297,-1.0726794004440308,0.45142942667007446
1782776469968794000,4.212794189453125,-0.5021312236785889,-1.0384708642959595,0.4043927788734436
1782776469978825500,4.222825439453125,-0.5412266254425049,-0.9938777685165405,0.3481931984424591
1782776469988813600,4.2328134765625,-0.5534439086914062,-0.9181304574012756,0.29077184200286865
1782776469998814500,4.242814453125,-0.5308418869972229,-0.7941248416900635,0.23579397797584534
1782776470008802800,4.252802734375,-0.4746423065662384,-0.6340781450271606,0.18387043476104736
1782776470018834000,4.262833984375,-0.4092797040939331,-0.5125159621238708,0.12339477986097336
1782776470028822300,4.272822265625,-0.37079519033432007,-0.5229006409645081,0.03726277872920036
1782776470038823200,4.2828232421875,-0.3695734739303589,-0.627358615398407,-0.07391469180583954
1782776470048811300,4.292811279296875,-0.394618958234787,-0.7611380815505981,-0.18570303916931152
1782776470058842600,4.302842529296875,-0.43676865100860596,-0.8350527882575989,-0.27000242471694946
1782776470068800500,4.312800537109375,-0.4893030524253845,-0.807563841342926,-0.30543261766433716
1782776470078832000,4.32283203125,-0.5241223573684692,-0.6719517707824707,-0.2889392673969269
1782776470088820000,4.332820068359375,-0.5283984541893005,-0.44654250144958496,-0.2070833146572113
1782776470098821400,4.3428212890625,-0.5112941861152649,-0.16004669666290283,-0.06658431142568588
1782776470108809000,4.35280908203125,-0.48258355259895325,0.15577064454555511,0.1215621829032898
1782776470118840800,4.3628408203125,-0.4386012554168701,0.607810914516449,0.4398229718208313
1782776470128798000,4.3727978515625,-0.4178318381309509,0.8063421249389648,0.6352998614311218
1782776470138829600,4.38282958984375,-0.384845107793808,0.9108000993728638,0.7959573864936829
1782776470148817400,4.3928173828125,-0.303600013256073,0.9358455538749695,0.9230173826217651
1782776470158818600,4.402818603515625,-0.17348572611808777,0.9193521738052368,1.0250319242477417
1782776470168806700,4.412806640625,-0.022602014243602753,0.8649851679801941,1.1001683473587036
1782776470178838300,4.42283837890625,0.13377949595451355,0.7843509912490845,1.1380419731140137
1782776470188795600,4.432795654296875,0.2620611786842346,0.6743952035903931,1.1227703094482422
1782776470198827300,4.4428271484375,0.3286454975605011,0.5216789245605469,1.0366383790969849
1782776470208814800,4.45281494140625,0.3500257730484009,0.3433062732219696,0.8881980776786804
1782776470218815000,4.46281494140625,0.3384193480014801,0.1514945775270462,0.6860016584396362
1782776470228804000,4.47280419921875,0.304210901260376,-0.027488935738801956,0.45326200127601624
1782776470238834700,4.482834716796875,0.23335053026676178,-0.14844025671482086,0.21502456068992615
1782776470248793000,4.49279296875,0.13744467496871948,-0.2015855312347412,-0.015882495790719986
1782776470258762500,4.502762451171875,0.018936822190880775,-0.2070833146572113,-0.21930062770843506
1782776470268833300,4.512833251953125,-0.10384709388017654,-0.13927727937698364,-0.3677408695220947
1782776470278904000,4.522904052734375,-0.21441370248794556,-0.006108652334660292,-0.4489859640598297
1782776470288761300,4.53276123046875,-0.29016098380088806,0.14049901068210602,-0.4642575979232788
1782776470298862800,4.54286279296875,-0.2981022298336029,0.2773328125476837,-0.41599923372268677
1782776470309709000,4.553708984375,-0.22663100063800812,0.38606682419776917,-0.3078760802745819
1782776470328810200,4.572810302734375,0.05864306539297104,0.5051855444908142,0.02871066704392433
1782776470338810000,4.58281005859375,0.2272418737411499,0.5009095072746277,0.21319197118282318
1782776470348850400,4.592850341796875,0.3836233615875244,0.4544837474822998,0.37568211555480957
1782776470358891500,4.6028916015625,0.5082398653030396,0.3891211748123169,0.4954117238521576
1782776470368818700,4.612818603515625,0.5864306092262268,0.33047810196876526,0.5644394755363464
1782776470378818800,4.62281884765625,0.6108652353286743,0.2785545587539673,0.5839871764183044
1782776470388807700,4.6328076171875,0.5955936312675476,0.22663100063800812,0.5577199459075928
1782776470398838300,4.64283837890625,0.5534439086914062,0.1875356286764145,0.48319441080093384
1782776470408796700,4.652796630859375,0.5088507533073425,0.17837265133857727,0.37751471996307373
1782776470418827500,4.66282763671875,0.4612032473087311,0.21502456068992615,0.2590068578720093
1782776470428816400,4.67281640625,0.40744712948799133,0.26511552929878235,0.1270599663257599
1782776470438816500,4.68281640625,0.37079519033432007,0.32986724376678467,0.0012217304902151227
1782776470448805400,4.692805419921875,0.3500257730484009,0.38606682419776917,-0.1062905490398407
1782776470458836500,4.70283642578125,0.3445279896259308,0.4141666293144226,-0.192422553896904
1782776470468794000,4.712794189453125,0.34697145223617554,0.4141666293144226,-0.25961771607398987
1782776470478825500,4.722825439453125,0.3274237811565399,0.3842342495918274,-0.33292156457901
1782776470488813600,4.7328134765625,0.2932153046131134,0.33292156457901,-0.4086688458919525
1782776470498814200,4.742814208984375,0.27611109614372253,0.3084869384765625,-0.4544837474822998
1782776470508802800,4.752802734375,0.26939156651496887,0.3017674386501312,-0.455705463886261
1782776470518834000,4.762833984375,0.26450464129447937,0.3170390725135803,-0.4129449129104614
1782776470528822300,4.772822265625,0.25534167885780334,0.3494149148464203,-0.34513887763023376
1782776470538823200,4.7828232421875,0.21624629199504852,0.37751471996307373,-0.24495697021484375
1782776470548811300,4.792811279296875,0.17104226350784302,0.3878994286060333,-0.21074850857257843
1782776470558842600,4.802842529296875,0.13561208546161652,0.3952298164367676,-0.20036379992961884
1782776470568800500,4.812800537109375,0.10812314599752426,0.40194934606552124,-0.21013765037059784
1782776470578831600,4.82283154296875,0.09957103431224823,0.3885102868080139,-0.24862214922904968
1782776470588820000,4.832820068359375,0.12278391420841217,0.3805690407752991,-0.28649580478668213
1782776470598820400,4.8428203125,0.17837265133857727,0.38240164518356323,-0.30970868468284607
1782776470608809000,4.85280908203125,0.23396138846874237,0.37140607833862305,-0.3188716471195221
1782776470618840000,4.862840087890625,0.27122417092323303,0.3445279896259308,-0.3127630054950714
1782776470628798200,4.872798095703125,0.27550023794174194,0.33597588539123535,-0.30604347586631775
1782776470638829000,4.8828291015625,0.26145032048225403,0.3194825351238251,-0.29138273000717163
1782776470648817400,4.8928173828125,0.25534167885780334,0.304210901260376,-0.25106561183929443
1782776470658818300,4.902818359375,0.2828305959701538,0.3384193480014801,-0.17287486791610718
1782776470668806700,4.912806640625,0.3549126982688904,0.4508185386657715,-0.06963863968849182
1782776470678837500,4.92283740234375,0.48747047781944275,0.5180137157440186,0.03298672288656235
1782776470688795400,4.93279541015625,0.6334672570228577,0.4196644127368927,0.10751228034496307
1782776470698826500,4.942826416015625,0.7165449261665344,0.20525072515010834,0.14049901068210602
1782776470708815000,4.952815185546875,0.6743952035903931,-0.027488935738801956,0.12217304855585098
1782776470718815500,4.9628154296875,0.5057964324951172,-0.23396138846874237,0.0403171069920063
1782776470728804000,4.97280419921875,0.24862214922904968,-0.36224308609962463,-0.08185594528913498
1782776470738834700,4.982834716796875,0.003054326167330146,-0.3396410644054413,-0.16554448008537292
1782776470748793000,4.99279296875,-0.14355333149433136,-0.19975294172763824,-0.16310101747512817
1782776470758824700,5.00282470703125,-0.16982053220272064,0.003054326167330146,-0.07635815441608429
1782776470768812500,5.0128125,-0.09651670604944229,0.2541199326515198,0.04642575979232788
1782776470778843000,5.0228427734375,0.05864306539297104,0.5027421116828918,0.1716531366109848
1782776470788801800,5.0328017578125,0.27488934993743896,0.6798930168151855,0.2675589919090271
1782776470798832000,5.04283203125,0.5064072608947754,0.7568620443344116,0.303600013256073
1782776470808821200,5.0528212890625,0.7183775305747986,0.7385360598564148,0.27611109614372253
1782776470818820000,5.062820068359375,0.8717046976089478,0.6762278079986572,0.21380282938480377
1782776470828809700,5.072809814453125,0.9566149711608887,0.5968153476715088,0.13744467496871948
1782776470838841600,5.082841552734375,0.9828822016716003,0.523511528968811,0.06352998316287994
1782776470848798700,5.092798828125,0.9767735004425049,0.44593164324760437,-0.003054326167330146
1782776470858829800,5.102829833984375,0.9615018963813782,0.35124751925468445,-0.06230825558304787
1782776470868818200,5.112818115234375,0.9450085163116455,0.23335053026676178,-0.1160643994808197
1782776470878818800,5.12281884765625,0.9132435321807861,0.05497787147760391,-0.18570303916931152
1782776470888807200,5.13280712890625,0.8662069439888,-0.13500121235847473,-0.24923302233219147
1782776470898839000,5.142839111328125,0.8032878041267395,-0.2742784917354584,-0.28466320037841797
1782776470908796200,5.152796142578125,0.7183775305747986,-0.3683517575263977,-0.29077184200286865
1782776470918828500,5.16282861328125,0.6304129362106323,-0.4764748811721802,-0.26939156651496887
1782776470928816000,5.172816162109375,0.5510004758834839,-0.5723807215690613,-0.22296582162380219
1782776470938817300,5.1828173828125,0.4862487316131592,-0.6163630485534668,-0.1514945775270462
1782776470948765200,5.19276513671875,0.4440990388393402,-0.5955936312675476,-0.05619960278272629
1782776470958898000,5.20289794921875,0.44776421785354614,-0.48869219422340393,0.13072516024112701
1782776470968794000,5.212794189453125,0.48685958981513977,-0.38667771220207214,0.28588494658470154
1782776470978826000,5.222825927734375,0.5216789245605469,-0.2687807083129883,0.45753806829452515
1782776470988814000,5.23281396484375,0.5619960427284241,-0.1362229436635971,0.6059783101081848
1782776470998815000,5.24281494140625,0.6200281977653503,-0.018936822190880775,0.7104362845420837
1782776471008802800,5.252802734375,0.6713408827781677,0.05192354694008827,0.7617489695549011
1782776471018834000,5.262833984375,0.6829473376274109,0.06414084881544113,0.759916365146637
1782776471028822300,5.272822265625,0.656069278717041,0.02687807008624077,0.7055493593215942
1782776471038823000,5.282822998046875,0.6108652353286743,-0.01771509274840355,0.6108652353286743
1782776471048811300,5.292811279296875,0.5650503635406494,-0.03787364438176155,0.48685958981513977
1782776471058842600,5.302842529296875,0.5302310585975647,-0.045204028487205505,0.3396410644054413
1782776471068800500,5.312800537109375,0.5161811113357544,-0.03420845419168472,0.17470745742321014
1782776471078831900,5.322831787109375,0.5192354321479797,-0.00427605677396059,0.001832595793530345
1782776471088820000,5.332820068359375,0.5265658497810364,0.021991148591041565,-0.1667662113904953
1782776471098820600,5.342820556640625,0.5302310585975647,0.03237585723400116,-0.3121521472930908
1782776471108809000,5.35280908203125,0.5259549617767334,0.019547687843441963,-0.4202753007411957
1782776471118840000,5.362840087890625,0.5112941861152649,-0.01160643994808197,-0.4746423065662384
1782776471128798000,5.3727978515625,0.4807509481906891,-0.042760565876960754,-0.4795292317867279
1782776471138829000,5.3828291015625,0.43188172578811646,-0.08185594528913498,-0.46364670991897583
1782776471148817400,5.3928173828125,0.3732386529445648,-0.12950342893600464,-0.4386012554168701
1782776471158818000,5.402818115234375,0.3121521472930908,-0.1716531366109848,-0.4043927788734436
1782776471168806700,5.412806640625,0.24862214922904968,-0.19975294172763824,-0.3640756905078888
1782776471178837500,5.42283740234375,0.19792033731937408,-0.21807889640331268,-0.323147714138031
1782776471188795400,5.43279541015625,0.15821409225463867,-0.24373523890972137,-0.2791654169559479
1782776471198826500,5.442826416015625,0.11911872029304504,-0.28955012559890747,-0.2321287989616394
1782776471208814800,5.45281494140625,0.07696902006864548,-0.3494149148464203,-0.1869247704744339
1782776471218815500,5.4628154296875,0.030543262138962746,-0.39584067463874817,-0.15393804013729095
1782776471228804000,5.47280419921875,-0.001832595793530345,-0.41233405470848083,-0.13011430203914642
1782776471238863400,5.48286328125,-0.01038470957428217,-0.38179078698158264,-0.10934487730264664
1782776471248793000,5.49279296875,-0.006719517521560192,-0.3194825351238251,-0.09651670604944229
1782776471258823700,5.50282373046875,0.003054326167330146,-0.24129177629947662,-0.09529497474431992
1782776471268812500,5.5128125,0.006108652334660292,-0.16859880089759827,-0.10384709388017654
1782776471278812700,5.522812744140625,-0.00366519158706069,-0.0708603709936142,-0.12522737681865692
1782776471288893000,5.532892822265625,0.0006108652451075613,0.07391469180583954,-0.15271630883216858
1782776471298832600,5.54283251953125,0.02932153269648552,0.14049901068210602,-0.17287486791610718
1782776471308821000,5.552821044921875,0.04153883829712868,0.08796459436416626,-0.19853121042251587
1782776471318821000,5.562821044921875,0.00855211354792118,-0.004886921960860491,-0.25473082065582275
1782776471328810200,5.572810302734375,-0.06536258012056351,-0.13805554807186127,-0.37690386176109314
1782776471338840600,5.582840576171875,-0.1771509200334549,-0.31642818450927734,-0.5791002511978149
1782776471348799200,5.59279931640625,-0.32070425152778625,-0.4612032473087311,-0.8222246170043945
1782776471358829600,5.60282958984375,-0.4447098970413208,-0.4392121136188507,-1.0207557678222656
1782776471368818700,5.612818603515625,-0.513737678527832,-0.23945917189121246,-1.1258246898651123
1782776471378818600,5.622818603515625,-0.53328537940979,0.02626720629632473,-1.1129964590072632
1782776471388807700,5.6328076171875,-0.45814892649650574,0.43188172578811646,-0.8753699064254761
1782776471398839600,5.642839599609375,-0.3683517575263977,0.6383541822433472,-0.5913175344467163
1782776471408796700,5.652796630859375,-0.2724458873271942,0.7544185519218445,-0.25106561183929443
1782776471418828300,5.662828369140625,-0.1716531366109848,0.8038986921310425,0.11178833991289139
1782776471428816100,5.672816162109375,-0.08185594528913498,0.7727445363998413,0.4447098970413208
1782776471438817500,5.682817626953125,-0.018936822190880775,0.6762278079986572,0.7006624341011047
1782776471448805400,5.692805419921875,0.02626720629632473,0.5455026626586914,0.8613200187683105
1782776471458805500,5.702805419921875,0.03726277872920036,0.39095374941825867,0.9395107626914978
1782776471468886000,5.712885986328125,0.024434609338641167,0.2382374405860901,0.9523389339447021
1782776471478825500,5.722825439453125,-0.003054326167330146,0.1007927656173706,0.9095783233642578
1782776471488813600,5.7328134765625,-0.029932396486401558,-0.014049900695681572,0.8008443117141724
1782776471498813700,5.742813720703125,-0.051312681287527084,-0.11484266817569733,0.6194173693656921
1782776471508802800,5.752802734375,-0.08307767659425735,-0.20036379992961884,0.3805690407752991
1782776471518833400,5.76283349609375,-0.13988813757896423,-0.24923302233219147,0.11545353382825851
1782776471528822500,5.772822509765625,-0.22602014243602753,-0.24129177629947662,-0.13500121235847473
1782776471538822700,5.78282275390625,-0.31642818450927734,-0.14844025671482086,-0.3341432809829712
1782776471548811500,5.7928115234375,-0.39217549562454224,0.030543262138962746,-0.4349360466003418
1782776471558781000,5.802781005859375,-0.44104471802711487,0.24373523890972137,-0.4288274049758911
1782776471568892000,5.812891845703125,-0.45753806829452515,0.4300491213798523,-0.3219259977340698
1782776471578832100,5.82283203125,-0.4331034719944,0.5528330206871033,-0.13744467496871948
1782776471588820000,5.832820068359375,-0.38179078698158264,0.5931501388549805,0.09346238523721695
1782776471598821000,5.842821044921875,-0.31581732630729675,0.5681046843528748,0.3274237811565399
1782776471608809000,5.85280908203125,-0.21868975460529327,0.4954117238521576,0.5412266254425049
1782776471618778600,5.862778564453125,-0.11239920556545258,0.38179078698158264,0.7055493593215942
1782776471629564400,5.873564453125,-0.021991148591041565,0.24373523890972137,0.7861835956573486
1782776471648817400,5.8928173828125,0.10812314599752426,0.05925392732024193,0.7110471725463867
1782776471658848800,5.902848876953125,0.15027284622192383,0.05497787147760391,0.6017022728919983
1782776471668806700,5.912806640625,0.17837265133857727,0.06963863968849182,0.4746423065662384
1782776471678831000,5.9228310546875,0.20463985204696655,0.09162978827953339,0.3543018400669098
1782776471688788700,5.932788818359375,0.22663100063800812,0.11972958594560623,0.2480112910270691
1782776471698820000,5.942820068359375,0.24007004499435425,0.15393804013729095,0.15760323405265808
1782776471708808400,5.952808349609375,0.24678955972194672,0.1820378452539444,0.09529497474431992
1782776471718809000,5.96280908203125,0.25473082065582275,0.21319197118282318,0.06291911751031876
1782776471728797400,5.97279736328125,0.26511552929878235,0.24129177629947662,0.04459316283464432
1782776471738828800,5.982828857421875,0.2816088795661926,0.26083946228027344,0.029932396486401558
1782776471748786200,5.9927861328125,0.31459560990333557,0.2877175211906433,0.025045474991202354
1782776471758817800,6.00281787109375,0.36163222789764404,0.3280346393585205,0.030543262138962746
1782776471768806000,6.012805908203125,0.4129449129104614,0.36590829491615295,0.045204028487205505
1782776471778837200,6.022837158203125,0.4697553813457489,0.4056145250797272,0.06352998316287994
1782776471788795000,6.032794921875,0.5247332453727722,0.43249258399009705,0.09162978827953339
1782776471798826500,6.042826416015625,0.5858197808265686,0.4349360466003418,0.12767083942890167
1782776471808814300,6.052814453125,0.7012733221054077,0.39095374941825867,0.18997909128665924
1782776471818814200,6.062814208984375,0.789237916469574,0.36163222789764404,0.23335053026676178
1782776471828802800,6.072802734375,0.8765916228294373,0.34574973583221436,0.2626720666885376
1782776471838834200,6.082834228515625,0.9633345007896423,0.33047810196876526,0.27000242471694946
1782776471848791800,6.092791748046875,1.062294602394104,0.2987131178379059,0.2687807083129883
1782776471858823200,6.1028232421875,1.1759155988693237,0.27611109614372253,0.2730567753314972
1782776471868811500,6.1128115234375,1.303586483001709,0.3219259977340698,0.29077184200286865
1782776471878811600,6.122811767578125,1.4428637027740479,0.46792277693748474,0.3072652220726013
1782776471888800500,6.132800537109375,1.6047430038452148,0.6151412725448608,0.31031954288482666
1782776471898831000,6.1428310546875,1.7629570960998535,0.5668829679489136,0.27122417092323303
1782776471908789500,6.15278955078125,1.843591332435608,0.27061331272125244,0.16493362188339233
1782776471918821400,6.1628212890625,1.7916678190231323,-0.08796459436416626,-0.010995574295520782
1782776471928809500,6.1728095703125,1.613295078277588,-0.31642818450927734,-0.2217440903186798
1782776471938809900,6.182809814453125,1.3603968620300293,-0.3335324227809906,-0.42149701714515686
1782776471948798700,6.192798828125,1.1594222784042358,-0.17409659922122955,-0.5406157374382019
1782776471958798600,6.202798583984375,1.045190453529358,0.03481931984424591,-0.5687155723571777
1782776471968879000,6.212879150390625,0.9963212013244629,0.20952677726745605,-0.5320636034011841
1782776471978819600,6.222819580078125,1.0024298429489136,0.3445279896259308,-0.44654250144958496
1782776471988807000,6.232806884765625,1.0555751323699951,0.46303585171699524,-0.3170390725135803
1782776471998808300,6.242808349609375,1.1368201971054077,0.5931501388549805,-0.14966198801994324
1782776472008796200,6.252796142578125,1.2388347387313843,0.7446447610855103,0.02382374368607998
1782776472018828000,6.262828125,1.350012183189392,0.9083566069602966,0.1716531366109848
1782776472028815600,6.272815673828125,1.4581353664398193,1.053742527961731,0.2590068578720093
1782776472038815700,6.282815673828125,1.5558737516403198,1.1527026891708374,0.28466320037841797
1782776472048804900,6.292804931640625,1.632842779159546,1.1985175609588623,0.26633724570274353
1782776472058835200,6.302835205078125,1.6890424489974976,1.19607412815094,0.22479841113090515
1782776472068793600,6.312793701171875,1.719585657119751,1.1508700847625732,0.16737708449363708
1782776472078824200,6.32282421875,1.7201964855194092,1.043968677520752,0.09468411654233932
1782776472088813000,6.33281298828125,1.7006487846374512,0.8710938692092896,0.015882495790719986
1782776472098813400,6.3428134765625,1.6768250465393066,0.6487388610839844,-0.051312681287527084
1782776472108802300,6.35280224609375,1.6371188163757324,0.413555771112442,-0.10018189996480942
1782776472118833400,6.36283349609375,1.5638149976730347,0.18509216606616974,-0.1362229436635971
1782776472128791300,6.372791259765625,1.4453071355819702,-0.02015855349600315,-0.19364428520202637
1782776472138823000,6.382822998046875,1.301142930984497,-0.1918116807937622,-0.2834414839744568
1782776472148810800,6.392810791015625,1.149037480354309,-0.28955012559890747,-0.3805690407752991
1782776472158812200,6.402812255859375,1.0024298429489136,-0.26572638750076294,-0.46853363513946533
1782776472168799700,6.4127998046875,0.8704829812049866,-0.15332718193531036,-0.5351179838180542
1782776472178831600,6.42283154296875,0.7635815739631653,0.02015855349600315,-0.5681046843528748
1782776472188788700,6.432788818359375,0.6976081132888794,0.22907446324825287,-0.5546656250953674
1782776472198820600,6.442820556640625,0.6878342628479004,0.44776421785354614,-0.475253164768219
1782776472208808200,6.45280810546875,0.7415903806686401,0.6481280326843262,-0.33658674359321594
1782776472218807800,6.462807861328125,0.8332201838493347,0.788016140460968,-0.17287486791610718
1782776472228797400,6.47279736328125,0.9761626720428467,0.8588765263557434,0.013439035043120384
1782776472238827800,6.482827880859375,1.0512990951538086,0.8491026759147644,0.08857546001672745
1782776472248786400,6.492786376953125,1.0958921909332275,0.8038986921310425,0.1215621829032898
1782776472258816800,6.502816650390625,1.112385630607605,0.7409795522689819,0.11911872029304504
1782776472268806000,6.512805908203125,1.0983357429504395,0.6701191663742065,0.09651670604944229
1782776472278837800,6.522837646484375,1.0543533563613892,0.5821545720100403,0.054367005825042725
1782776472288795000,6.532794921875,0.9975429177284241,0.4697553813457489,0.003054326167330146
1782776472298826200,6.542826171875,0.9340129494667053,0.34086281061172485,-0.056810468435287476
1782776472308814300,6.552814453125,0.8765916228294373,0.2168571650981903,-0.12034045159816742
1782776472318815200,6.562815185546875,0.836885392665863,0.11239920556545258,-0.16493362188339233
1782776472328803300,6.57280322265625,0.8124507665634155,0.033597588539123535,-0.18020524084568024
1782776472338835700,6.582835693359375,0.8008443117141724,-0.02321287989616394,-0.1612684279680252
1782776472348792600,6.59279248046875,0.79840087890625,-0.0659734457731247,-0.11972958594560623
1782776472358824400,6.602824462890625,0.7947356700897217,-0.10751228034496307,-0.07635815441608429
1782776472368812000,6.61281201171875,0.788627028465271,-0.15882496535778046,-0.029932396486401558
1782776472378812700,6.622812744140625,0.7812966704368591,-0.2125810980796814,0.024434609338641167
1782776472388800800,6.63280078125,0.769079327583313,-0.2632829248905182,0.08002334833145142
1782776472398832400,6.642832275390625,0.7489207983016968,-0.3090978264808655,0.12278391420841217
1782776472408790000,6.6527900390625,0.7195992469787598,-0.34636059403419495,0.1466076523065567
1782776472418821400,6.6628212890625,0.6872233748435974,-0.37629300355911255,0.15454891324043274
1782776472428809700,6.672809814453125,0.6548475623130798,-0.4080579876899719,0.1563815027475357
1782776472438810400,6.682810302734375,0.618195652961731,-0.4593706727027893,0.14966198801994324
1782776472448798500,6.692798583984375,0.5729916095733643,-0.5198463201522827,0.1362229436635971
1782776472458830000,6.702830078125,0.5308418869972229,-0.5748242139816284,0.12461651116609573
1782776472468787700,6.71278759765625,0.5027421116828918,-0.6438519954681396,0.1215621829032898
1782776472478787600,6.72278759765625,0.48258355259895325,-0.7440338730812073,0.12767083942890167
1782776472488828000,6.732827880859375,0.4660901725292206,-0.8594874143600464,0.1362229436635971
1782776472498899200,6.742899169921875,0.4453207552433014,-1.0018190145492554,0.14049901068210602
1782776472508796200,6.752796142578125,0.4337143301963806,-1.1197160482406616,0.1362229436635971
1782776472518827500,6.76282763671875,0.4447098970413208,-1.207680583000183,0.13500121235847473
1782776472528815600,6.772815673828125,0.4740314185619354,-1.302364706993103,0.16004669666290283
1782776472538816800,6.782816650390625,0.5009095072746277,-1.3255776166915894,0.19303341209888458
1782776472548804900,6.792804931640625,0.5369505286216736,-1.224173903465271,0.22602014243602753
1782776472558836500,6.80283642578125,0.5876523852348328,-1.0311405658721924,0.24862214922904968
1782776472568793600,6.812793701171875,0.6591235995292664,-0.7947356700897217,0.2583959996700287
1782776472578793700,6.822793701171875,0.7470881938934326,-0.5687155723571777,0.23273965716362
1782776472589728000,6.83372802734375,0.9230173826217651,-0.32131510972976685,0.05925392732024193
1782776472608802300,6.85280224609375,1.1099421977996826,-0.29626965522766113,-0.3219259977340698
1782776472618833000,6.8628330078125,1.2003501653671265,-0.42088615894317627,-0.6218608021736145
1782776472628791300,6.872791259765625,1.2596040964126587,-0.5992587804794312,-0.8600982427597046
1782776472638822000,6.88282177734375,1.291369080543518,-0.7000515460968018,-0.9236282706260681
1782776472648810800,6.892810791015625,1.2559388875961304,-0.5949827432632446,-0.6017022728919983
1782776472658780400,6.902780517578125,1.1734721660614014,-0.4440990388393402,-0.1722639948129654
1782776472668820500,6.912820556640625,1.0910053253173828,-0.24434609711170197,0.3445279896259308
1782776472678860800,6.92286083984375,1.026253581047058,-0.042760565876960754,0.8509352803230286
1782776472688880000,6.932880126953125,0.9859365224838257,0.07757988572120667,1.2675453424453735
1782776472698820600,6.942820556640625,0.99876469373703,0.1062905490398407,1.5625933408737183
1782776472708808200,6.95280810546875,1.0787880420684814,0.11911872029304504,1.7562376260757446
1782776472718808300,6.962808349609375,1.208902359008789,0.0861319974064827,1.8466455936431885
1782776472728797400,6.97279736328125,1.3536773920059204,-0.025045474991202354,1.813048005104065
1782776472738828000,6.982828125,1.5094480514526367,-0.17959438264369965,1.6658295392990112
1782776472748786400,6.992786376953125,1.6591099500656128,-0.3066543638706207,1.4269812107086182
1782776472758817800,7.00281787109375,1.7696765661239624,-0.3738495409488678,1.122159481048584
1782776472768806000,7.012805908203125,1.8112154006958008,-0.40133845806121826,0.778853178024292
1782776472778836500,7.02283642578125,1.7776178121566772,-0.384845107793808,0.42638394236564636
1782776472788795000,7.032794921875,1.6847662925720215,-0.32681289315223694,0.09773843735456467
1782776472798825500,7.042825439453125,1.567480206489563,-0.20586158335208893,-0.16493362188339233
1782776472808814600,7.052814697265625,1.4282029867172241,-0.025045474991202354,-0.35613444447517395
1782776472818813400,7.0628134765625,1.302364706993103,0.2064724564552307,-0.45631635189056396
1782776472828802800,7.072802734375,1.2443325519561768,0.45814892649650574,-0.4447098970413208
1782776472838834700,7.082834716796875,1.2705997228622437,0.7018841505050659,-0.3341432809829712
1782776472848791800,7.092791748046875,1.3548991680145264,0.9169087409973145,-0.16249015927314758
1782776472858823700,7.10282373046875,1.4666874408721924,1.0598511695861816,0.02871066704392433
1782776472868811500,7.1128115234375,1.5735888481140137,1.1325441598892212,0.19425514340400696
1782776472878781700,7.12278173828125,1.7140878438949585,1.160033106803894,0.3646865487098694
1782776472888821800,7.13282177734375,1.8539760112762451,1.1551461219787598,0.5161811113357544
1782776472898893000,7.14289306640625,1.9724838733673096,1.1282681226730347,0.6090326309204102
1782776472908789500,7.15278955078125,2.0677788257598877,1.0873401165008545,0.6285803318023682
1782776472918822000,7.16282177734375,2.1392500400543213,1.0525208711624146,0.5839871764183044
1782776472928809500,7.1728095703125,2.1734585762023926,1.0348057746887207,0.5002986192703247
1782776472938809900,7.182809814453125,2.175291061401367,1.0286970138549805,0.39706242084503174
1782776472948798700,7.192798828125,2.1600193977355957,1.0012081861495972,0.2932153046131134
1782776472958829300,7.202829345703125,2.1569652557373047,0.949895441532135,0.19853121042251587
1782776472968747300,7.212747314453125,2.1642956733703613,0.8698720932006836,0.13500121235847473
1782776472978818300,7.222818359375,2.1514673233032227,0.7721336483955383,0.10751228034496307
1782776472989753600,7.233753662109375,2.0891592502593994,0.6499606370925903,0.11239920556545258
1782776473008796200,7.252796142578125,2.0164661407470703,0.6096435189247131,0.1661553531885147
1782776473018826500,7.262826416015625,1.9620991945266724,0.5833762884140015,0.1820378452539444
1782776473028815600,7.272815673828125,1.9144517183303833,0.5424483418464661,0.16859880089759827
1782776473038815500,7.2828154296875,1.8680258989334106,0.4789183437824249,0.11789698898792267
1782776473048804900,7.292804931640625,1.8350391387939453,0.4098905920982361,0.06291911751031876
1782776473058836500,7.30283642578125,1.814880609512329,0.3744603991508484,0.024434609338641167
1782776473068793900,7.3127939453125,1.8106045722961426,0.36529740691185,0.012217304669320583
1782776473078825500,7.322825439453125,1.8191566467285156,0.40256020426750183,0.03298672288656235
1782776473088813000,7.33281298828125,1.8380935192108154,0.4349360466003418,0.05803219974040985
1782776473098814700,7.342814697265625,1.8637498617172241,0.47342056035995483,0.08552113175392151
1782776473108802300,7.35280224609375,1.890017032623291,0.5259549617767334,0.11972958594560623
1782776473118834200,7.362834228515625,1.9071213006973267,0.5681046843528748,0.1459967941045761
1782776473128791300,7.372791259765625,1.919338583946228,0.5968153476715088,0.16493362188339233
1782776473138823000,7.382822998046875,1.9113973379135132,0.6432411074638367,0.16859880089759827
1782776473148811000,7.39281103515625,1.8961256742477417,0.7220427393913269,0.1514945775270462
1782776473158812200,7.402812255859375,1.8869627714157104,0.8228355050086975,0.1160643994808197
1782776473168799700,7.4127998046875,1.8961256742477417,0.9138544201850891,0.07819075137376785
1782776473178831600,7.42283154296875,1.8985692262649536,0.9712757468223572,0.03848451003432274
1782776473188788700,7.432788818359375,1.8881844282150269,0.9975429177284241,-0.003054326167330146
1782776473198820900,7.44282080078125,1.8710802793502808,1.0024298429489136,-0.036041051149368286
1782776473208808200,7.45280810546875,1.8503108024597168,1.006095051765442,-0.0555887371301651
1782776473218809600,7.4628095703125,1.8277088403701782,1.0097602605819702,-0.05742133408784866
1782776473228797400,7.47279736328125,1.8093829154968262,1.0109820365905762,-0.033597588539123535
1782776473238857500,7.482857421875,1.8057177066802979,1.0500773191452026,0.021380282938480377
1782776473248786200,7.4927861328125,1.8179349899291992,1.1649199724197388,0.09773843735456467
1782776473258818000,7.502818115234375,1.86191725730896,1.2962560653686523,0.1667662113904953
1782776473268806000,7.512805908203125,1.9370536804199219,1.3243558406829834,0.2125810980796814
1782776473278806000,7.522805908203125,2.0036380290985107,1.2162326574325562,0.21441370248794556
1782776473288886300,7.53288623046875,2.0054705142974854,1.0042624473571777,0.152105450630188
1782776473298826800,7.54282666015625,1.920560359954834,0.7189884185791016,0.015271631069481373
1782776473308814300,7.552814453125,1.7904460430145264,0.4245513379573822,-0.1875356286764145
1782776473318815700,7.562815673828125,1.6658295392990112,0.22846360504627228,-0.4001167416572571
1782776473328803300,7.57280322265625,1.587027907371521,0.21868975460529327,-0.5424483418464661
1782776473338835200,7.582835205078125,1.540602207183838,0.34086281061172485,-0.5772676467895508
1782776473348792600,7.59279248046875,1.5357152223587036,0.5247332453727722,-0.4996877610683441
1782776473358824200,7.60282421875,1.5613715648651123,0.7141014933586121,-0.34758231043815613
1782776473368812000,7.61281201171875,1.5968017578125,0.8802568316459656,-0.15515977144241333
1782776473378813400,7.6228134765625,1.645671010017395,1.0366383790969849,0.03787364438176155
1782776473388801000,7.632801025390625,1.7153096199035645,1.1618657112121582,0.20097467303276062
1782776473398801200,7.64280126953125,1.8154915571212769,1.2406673431396484,0.32559117674827576
1782776473408881400,7.65288134765625,1.9382754564285278,1.2345587015151978,0.40256020426750183
1782776473418820900,7.66282080078125,2.0757200717926025,1.1606439352035522,0.4398229718208313
1782776473428809700,7.672809814453125,2.22171688079834,1.0488556623458862,0.4453207552433014
1782776473438809300,7.682809326171875,2.364659309387207,0.9346238374710083,0.4294382631778717
1782776473448798700,7.692798828125,2.495995283126831,0.8222246170043945,0.40622538328170776
1782776473458829000,7.7028291015625,2.5980098247528076,0.6921103000640869,0.3732386529445648
1782776473468747300,7.712747314453125,2.6529877185821533,0.5271766781806946,0.32559117674827576
1782776473478880500,7.722880615234375,2.6340508460998535,0.3335324227809906,0.251676470041275
1782776473488807000,7.732806884765625,2.5302038192749023,0.08979719132184982,0.13744467496871948
1782776473498808600,7.74280859375,2.244929790496826,-0.3494149148464203,-0.09285151958465576
1782776473508796200,7.752796142578125,2.0360138416290283,-0.5345070958137512,-0.19792033731937408
1782776473518828000,7.762828125,1.855197787284851,-0.5491678714752197,-0.24434609711170197
1782776473528815600,7.772815673828125,1.7146987915039062,-0.45814892649650574,-0.23029619455337524
1782776473538817000,7.782817138671875,1.6200146675109863,-0.32620203495025635,-0.16859880089759827
1782776473548804900,7.792804931640625,1.585806131362915,-0.16493362188339233,-0.06963863968849182
1782776473558836500,7.80283642578125,1.6059647798538208,0,0.04153883829712868
1782776473568793600,7.812793701171875,1.655444860458374,0.16554448008537292,0.12522737681865692
1782776473578825700,7.82282568359375,1.7140878438949585,0.30970868468284607,0.18020524084568024
1782776473588813000,7.83281298828125,1.7580702304840088,0.4141666293144226,0.20036379992961884
1782776473598814700,7.842814697265625,1.7763961553573608,0.4911356568336487,0.19608774781227112
1782776473608802000,7.852802001953125,1.7635679244995117,0.5552765130996704,0.1814269721508026
1782776473618834200,7.862834228515625,1.7287486791610718,0.6206390857696533,0.16798794269561768
1782776473628791300,7.872791259765625,1.6780468225479126,0.6542366743087769,0.1563815027475357
1782776473638823000,7.882822998046875,1.607797384262085,0.6346889734268188,0.14538592100143433
1782776473648811000,7.89281103515625,1.531439185142517,0.5791002511978149,0.1466076523065567
1782776473658812200,7.902812255859375,1.46424400806427,0.5027421116828918,0.17104226350784302
1782776473668799700,7.9127998046875,1.3921618461608887,0.39584067463874817,0.19853121042251587
1782776473678831900,7.922831787109375,1.3164145946502686,0.2590068578720093,0.2076941877603531
1782776473688788700,7.932788818359375,1.2394455671310425,0.1215621829032898,0.18814650177955627
1782776473698820600,7.942820556640625,1.1649199724197388,0.018936822190880775,0.15332718193531036
1782776473708808400,7.952808349609375,1.0958921909332275,-0.01466076634824276,0.1258382350206375
1782776473718809600,7.9628095703125,1.0335839986801147,0.015271631069481373,0.12217304855585098
1782776473728797400,7.97279736328125,0.9755517840385437,0.06352998316287994,0.1466076523065567
1782776473738829000,7.9828291015625,0.9175195693969727,0.08674286305904388,0.18509216606616974
1782776473748786200,7.9927861328125,0.8619308471679688,0.07330382615327835,0.2272418737411499
1782776473758818300,8.002818359375,0.8155050873756409,0.02932153269648552,0.27550023794174194
1782776473768806000,8.012805908203125,0.7715228199958801,-0.03298672288656235,0.3286454975605011
1782776473778806000,8.022805908203125,0.7171558141708374,-0.12950342893600464,0.3683517575263977
1782776473788846300,8.032846435546874,0.6615670323371887,-0.25595253705978394,0.39095374941825867
1782776473798856200,8.042856201171874,0.6090326309204102,-0.3695734739303589,0.403781920671463
1782776473808875500,8.05287548828125,0.5497786998748779,-0.4434881806373596,0.4056145250797272
1782776473818815000,8.06281494140625,0.4948008358478546,-0.4856378734111786,0.3885102868080139
1782776473828802800,8.072802734375,0.44654250144958496,-0.5229006409645081,0.3579670190811157
1782776473838834000,8.082833984375,0.3995058834552765,-0.5564982295036316,0.31520646810531616
1782776473848791800,8.092791748046874,0.36102136969566345,-0.5436700582504272,0.27550023794174194
1782776473858823000,8.102822998046875,0.34513887763023376,-0.43799036741256714,0.24434609711170197
1782776473868771800,8.112771728515625,0.34208452701568604,-0.3695734739303589,0.2015855312347412
1782776473878903600,8.122903564453125,0.3170390725135803,-0.4239404797554016,0.12339477986097336
1782776473888800500,8.132800537109375,0.25473082065582275,-0.4911356568336487,-0.01038470957428217
1782776473898831600,8.14283154296875,0.14966198801994324,-0.5907067060470581,-0.21013765037059784
1782776473908789500,8.15278955078125,0.03237585723400116,-0.6517932415008545,-0.4092797040939331
1782776473918820400,8.1628203125,-0.13011430203914642,-0.5308418869972229,-0.607810914516449
1782776473928809500,8.1728095703125,-0.18081611394882202,-0.304210901260376,-0.6261368989944458
1782776473938810600,8.182810546875,-0.16737708449363708,-0.09773843735456467,-0.5540547966957092
1782776473948798700,8.192798828125,-0.09712757170200348,0.029932396486401558,-0.394618958234787
1782776473958830000,8.202830078125,-0.00366519158706069,0.11239920556545258,-0.18875735998153687
1782776473968787500,8.212787353515624,0.07269296050071716,0.31093040108680725,0.11239920556545258
1782776473978819300,8.2228193359375,0.1270599663257599,0.3805690407752991,0.36651915311813354
1782776473988807200,8.23280712890625,0.20341812074184418,0.3683517575263977,0.484416127204895
1782776473998808300,8.242808349609374,0.3390302062034607,0.42210787534713745,0.5247332453727722
1782776474008796200,8.252796142578125,0.4599815309047699,0.4282165467739105,0.46731191873550415
1782776474018828000,8.262828125,0.5253441333770752,0.4544837474822998,0.47280970215797424
