time,seconds_elapsed,z,y,x
1782776419938861000,0.172861083984375,-0.11362838745117188,-0.31929683685302734,0.8021794557571411
1782776419948758000,0.182758056640625,-0.10264301300048828,-0.31197667121887207,0.6642751693725586
1782776419958767600,0.192767578125,-0.2139606475830078,-0.29009008407592773,0.5345820188522339
1782776419968746800,0.202746826171875,-0.42275428771972656,-0.31590819358825684,0.40836846828460693
1782776419978756600,0.212756591796875,-0.7593631744384766,-0.31075334548950195,0.3503444194793701
1782776419988766200,0.22276611328125,-1.096419334411621,-0.22995495796203613,0.3251457214355469
1782776419998745600,0.23274560546875,-1.3785114288330078,-0.1471560001373291,0.3698793649673462
1782776420008755500,0.24275537109375,-1.5793943405151367,-0.07311415672302246,0.39426934719085693
1782776420018765000,0.25276513671875,-1.7138943672180176,-0.034432172775268555,0.48862624168395996
1782776420028775000,0.26277490234375,-1.8614401817321777,0.03444337844848633,0.6161240339279175
1782776420038754300,0.27275439453125,-2.010490894317627,0.15168094635009766,0.7844958305358887
1782776420048764000,0.282763916015625,-2.1685385704040527,0.2679271697998047,0.9009560346603394
1782776420058773800,0.292773681640625,-2.2284374237060547,0.3944356441497803,1.000292420387268
1782776420068753000,0.3027529296875,-2.058959484100342,0.47504734992980957,0.9540630578994751
1782776420078762800,0.3127626953125,-1.8447327613830566,0.5129883289337158,0.8391827344894409
1782776420088772400,0.3227724609375,-1.7123889923095703,0.45194268226623535,0.7424792051315308
1782776420098751700,0.332751708984375,-1.6137094497680664,0.400390625,0.6722913980484009
1782776420108761600,0.34276171875,-1.677785873413086,0.4220912456512451,0.6413036584854126
1782776420118771200,0.352771240234375,-1.6124258041381836,0.4480006694793701,0.3796156644821167
1782776420128750600,0.36275048828125,-1.3148956298828125,0.44191789627075195,0.15398019552230835
1782776420138760200,0.37276025390625,-0.9192934036254883,0.36989259719848633,-0.039297401905059814
1782776420148770000,0.38277001953125,-0.46631813049316406,0.2845463752746582,-0.10989177227020264
1782776420158749200,0.392749267578125,0.07656002044677734,0.19826889038085938,-0.24423325061798096
1782776420168759000,0.402759033203125,0.5659561157226562,0.20875072479248047,-0.2580713629722595
1782776420178768600,0.4127685546875,0.9121370315551758,0.17948341369628906,-0.2240639328956604
1782776420188748000,0.422748046875,1.0191307067871094,0.15273094177246094,-0.15404534339904785
1782776420198758000,0.4327578125,1.0206108093261719,0.20076489448547363,-0.3753212094306946
1782776420208767500,0.442767578125,0.8877201080322266,0.42197418212890625,-0.9155266880989075
1782776420218747000,0.452746826171875,0.567112922668457,0.4897122383117676,-1.3374460935592651
1782776420228756700,0.4627568359375,0.24539661407470703,0.38152265548706055,-1.322312355041504
1782776420238766300,0.472766357421875,0.08617401123046875,0.29047441482543945,-0.7459402084350586
1782776420248745700,0.482745849609375,0.3388490676879883,0.30741214752197266,0.14858323335647583
1782776420258755600,0.492755615234375,1.1942110061645508,0.296097993850708,0.9611524939537048
1782776420268765200,0.50276513671875,2.1942596435546875,0.09479117393493652,1.5285720825195312
1782776420278775000,0.512775146484375,3.394102096557617,-0.11485528945922852,1.8457778692245483
1782776420288754200,0.522754150390625,4.235796928405762,-0.2801496982574463,1.6820008754730225
1782776420298763800,0.532763671875,4.626020431518555,-0.5431668758392334,1.2237765789031982
1782776420308773600,0.542773681640625,4.586238861083984,-0.911186933517456,0.5503295660018921
1782776420318753000,0.5527529296875,4.181018829345703,-1.3121227025985718,-0.09750735759735107
1782776420328763000,0.562762939453125,3.40781307220459,-1.6477973461151123,-0.6986935138702393
1782776420338772500,0.5727724609375,2.4589004516601562,-1.803502082824707,-1.1939903497695923
1782776420348752000,0.582751953125,1.3902368545532227,-1.81300687789917,-1.5144484043121338
1782776420358761700,0.59276171875,0.375579833984375,-1.6265356540679932,-1.6969032287597656
1782776420368771300,0.602771240234375,-0.5363788604736328,-1.4614044427871704,-1.797684907913208
1782776420378750500,0.61275048828125,-1.244415283203125,-1.3089604377746582,-1.8692131042480469
1782776420388760300,0.62276025390625,-1.7618565559387207,-1.123582363128662,-1.9114503860473633
1782776420398770000,0.63277001953125,-2.042102813720703,-1.0414763689041138,-1.825176477432251
1782776420408749300,0.642749267578125,-2.045283317565918,-1.0001128911972046,-1.6200672388076782
1782776420418759200,0.65275927734375,-1.808781623840332,-0.9398972988128662,-1.2209293842315674
1782776420428768800,0.662768798828125,-1.3285341262817383,-0.8945177793502808,-0.6050646305084229
1782776420438748200,0.672748046875,-0.7485179901123047,-0.8484104871749878,0.09561127424240112
1782776420448758000,0.682758056640625,-0.08690071105957031,-0.8539658784866333,0.7860223650932312
1782776420458767600,0.692767578125,0.51434326171875,-0.8485499620437622,1.3566921949386597
1782776420468746800,0.702746826171875,1.2131853103637695,-0.7813761234283447,1.7658486366271973
1782776420478756600,0.712756591796875,1.882059097290039,-0.7975625991821289,1.9197471141815186
1782776420488766200,0.72276611328125,2.4485883712768555,-0.9384363889694214,1.7046465873718262
1782776420498745600,0.73274560546875,2.600494384765625,-1.1961818933486938,1.1824839115142822
1782776420508755500,0.74275537109375,2.4062395095825195,-1.484840750694275,0.5592778921127319
1782776420518765000,0.75276513671875,1.9463310241699219,-1.6817678213119507,-0.09166145324707031
1782776420528775000,0.76277490234375,1.2927637100219727,-1.8096420764923096,-0.6261849999427795
1782776420538754300,0.77275439453125,0.5967168807983398,-1.8989684581756592,-1.0730589628219604
1782776420548764000,0.782763916015625,-0.062137603759765625,-1.9610285758972168,-1.3902819156646729
1782776420558773800,0.792773681640625,-0.6995906829833984,-1.9835693836212158,-1.5414406061172485
1782776420568753000,0.8027529296875,-1.372178554534912,-1.9407801628112793,-1.504844307899475
1782776420578762800,0.8127626953125,-1.9522333145141602,-1.7988951206207275,-1.3484511375427246
1782776420588772400,0.8227724609375,-2.487215518951416,-1.5408987998962402,-1.0519111156463623
1782776420598751700,0.832751708984375,-2.926945209503174,-1.2631019353866577,-0.6720165014266968
1782776420608761600,0.84276171875,-3.1472959518432617,-1.0400848388671875,-0.3505135774612427
1782776420618771200,0.852771240234375,-3.196659564971924,-0.7811028957366943,-0.049132704734802246
1782776420628750600,0.86275048828125,-3.0779104232788086,-0.6713922023773193,0.09971356391906738
1782776420638760400,0.872760498046875,-2.8087477684020996,-0.6130461692810059,0.10939252376556396
1782776420648770000,0.88277001953125,-2.5978970527648926,-0.6633143424987793,0.05225038528442383
1782776420658749200,0.892749267578125,-2.4174861907958984,-0.7427473068237305,0.02240300178527832
1782776420668759000,0.902759033203125,-2.198575496673584,-0.7963056564331055,-0.09151852130889893
1782776420678768600,0.9127685546875,-1.9199728965759277,-0.8668231964111328,-0.27597296237945557
1782776420688748000,0.922748046875,-1.5098071098327637,-0.932405948638916,-0.4150988459587097
1782776420698758000,0.9327578125,-1.0443429946899414,-0.9863338470458984,-0.35452568531036377
1782776420708767500,0.942767578125,-0.7217073440551758,-1.0420093536376953,-0.211808443069458
1782776420718747000,0.952746826171875,-0.3882255554199219,-1.0318937301635742,-0.11926424503326416
1782776420728756700,0.9627568359375,-0.11984729766845703,-0.9626500606536865,0.05260419845581055
1782776420738766300,0.972766357421875,0.11040973663330078,-0.874424934387207,0.2847416400909424
1782776420748745700,0.982745849609375,0.31476306915283203,-0.8014791011810303,0.4766923189163208
1782776420758755600,0.992755615234375,0.4713430404663086,-0.788503885269165,0.6309807300567627
1782776420768765200,1.00276513671875,0.6377029418945312,-0.5926439762115479,0.7186737060546875
1782776420778775000,1.012775146484375,0.8252162933349609,-0.3644442558288574,0.7175655364990234
1782776420788754200,1.022754150390625,0.819951057434082,-0.20262622833251953,0.6045053005218506
1782776420798763800,1.032763671875,0.774958610534668,-0.2890133857727051,0.5966912508010864
1782776420808773600,1.042773681640625,0.6048355102539062,-0.34621596336364746,0.41173624992370605
1782776420818753000,1.0527529296875,0.45580291748046875,-0.3237628936767578,0.01852583885192871
1782776420828762600,1.0627626953125,0.2508058547973633,-0.12458968162536621,-0.5108672380447388
1782776420838772500,1.0727724609375,-0.15726566314697266,0.06343340873718262,-0.7708652019500732
1782776420848751900,1.082751953125,-0.553065299987793,0.1267850399017334,-0.6143009662628174
1782776420858761500,1.092761474609375,-0.7862691879272461,0.1943831443786621,0.006601572036743164
1782776420868771300,1.102771240234375,-0.7050151824951172,0.3481309413909912,0.7427219152450562
1782776420878750500,1.11275048828125,-0.14651966094970703,0.5496935844421387,1.471564531326294
1782776420888760000,1.122760009765625,0.6710996627807617,0.6528801918029785,1.8906582593917847
1782776420898770000,1.13277001953125,1.3811445236206055,0.6000168323516846,2.1091504096984863
1782776420908749300,1.142749267578125,2.077622413635254,0.478334903717041,2.0929908752441406
1782776420918759000,1.152759033203125,2.5546560287475586,0.3522322177886963,1.6506702899932861
1782776420928768800,1.162768798828125,2.7606239318847656,0.1886899471282959,1.0366079807281494
1782776420938748200,1.172748046875,2.6961164474487305,-0.019277334213256836,0.5235283374786377
1782776420948758000,1.182758056640625,2.456197738647461,-0.18629717826843262,0.1241614818572998
1782776420958767600,1.192767578125,2.2853336334228516,-0.22000384330749512,-0.16004395484924316
1782776420968746800,1.202746826171875,2.2408676147460938,-0.10292196273803711,-0.21331918239593506
1782776420978756600,1.212756591796875,2.2216129302978516,0.07142758369445801,0.03482460975646973
1782776420988766200,1.22276611328125,2.095743179321289,0.23020970821380615,0.4774034023284912
1782776420998745600,1.23274560546875,1.7811832427978516,0.37832629680633545,0.8747622966766357
1782776421008755500,1.24275537109375,1.276841163635254,0.4864410161972046,1.1075685024261475
1782776421018765000,1.25276513671875,0.6251392364501953,0.5623342990875244,1.152029037475586
1782776421028775000,1.26277490234375,0.0940542221069336,0.5414457321166992,1.1481001377105713
1782776421038754300,1.27275439453125,-0.28476810455322266,0.4868326187133789,1.1743032932281494
1782776421048764000,1.282763916015625,-0.5226316452026367,0.45369672775268555,1.234487533569336
1782776421058728200,1.292728271484375,-0.614466667175293,0.3675081729888916,1.3345096111297607
1782776421068707300,1.302707275390625,-0.6675539016723633,0.25251317024230957,1.3733738660812378
1782776421078717200,1.31271728515625,-0.6872148513793945,0.15237903594970703,1.343471884727478
1782776421088726800,1.322726806640625,-0.7168359756469727,0.13425564765930176,1.4281851053237915
1782776421098706200,1.3327060546875,-0.833439826965332,0.08641171455383301,1.5258504152297974
1782776421108715800,1.3427158203125,-0.9517908096313477,-0.028126955032348633,1.5081502199172974
1782776421118725600,1.3527255859375,-1.0659723281860352,-0.10874462127685547,1.3832550048828125
1782776421128705000,1.362705078125,-1.078873634338379,-0.21999549865722656,1.1340333223342896
1782776421138714600,1.372714599609375,-0.9890527725219727,-0.32165098190307617,0.9588650465011597
1782776421148724500,1.382724365234375,-0.7474803924560547,-0.343914270401001,0.26690006256103516
1782776421158703600,1.39270361328125,-0.5962657928466797,-0.3728867769241333,-0.16332721710205078
1782776421168713200,1.402713134765625,-0.5455760955810547,-0.39617717266082764,-0.31302905082702637
1782776421178723000,1.41272314453125,-0.5980463027954102,-0.40374648571014404,-0.41074109077453613
1782776421188702500,1.422702392578125,-0.6642112731933594,-0.38346147537231445,-0.459942102432251
1782776421198712300,1.43271240234375,-0.8397979736328125,-0.30237603187561035,-0.49574995040893555
1782776421208722000,1.442721923828125,-1.0334644317626953,-0.23114848136901855,-0.4245469570159912
1782776421218701300,1.452701416015625,-1.2631030082702637,-0.13097000122070312,-0.2916297912597656
1782776421228711200,1.462711181640625,-1.469883918762207,-0.041281700134277344,-0.16950774192810059
1782776421238720800,1.472720703125,-1.6512126922607422,0.07192111015319824,-0.07837653160095215
1782776421248700200,1.4827001953125,-1.81524658203125,0.13415265083312988,-0.019086360931396484
1782776421258709800,1.492709716796875,-1.9866623878479004,0.17586421966552734,0.026085615158081055
1782776421268719400,1.50271923828125,-2.15618896484375,0.22585630416870117,0.05571269989013672
1782776421278729200,1.512729248046875,-2.305298328399658,0.2522299289703369,0.046427249908447266
1782776421288708600,1.52270849609375,-2.441756248474121,0.32070493698120117,0.08770918846130371
1782776421298718200,1.53271826171875,-2.518178939819336,0.3248734474182129,0.06496286392211914
1782776421308728000,1.54272802734375,-2.5779471397399902,0.3392372131347656,0.00038051605224609375
1782776421318707500,1.55270751953125,-2.5636138916015625,0.2880833148956299,-0.15245437622070312
1782776421328717300,1.56271728515625,-2.403043746948242,0.2577793598175049,-0.3326148986816406
1782776421338727000,1.572726806640625,-2.175058364868164,0.20755767822265625,-0.6173144578933716
1782776421348706000,1.5827060546875,-1.8147683143615723,0.1775660514831543,-0.87035071849823
1782776421358716000,1.5927158203125,-1.4435648918151855,0.18111872673034668,-1.0668491125106812
1782776421368725500,1.6027255859375,-1.1135120391845703,0.23076438903808594,-1.168792963027954
1782776421378705000,1.612704833984375,-0.8388538360595703,0.23328280448913574,-1.2819546461105347
1782776421388714800,1.62271484375,-0.6385059356689453,0.21812915802001953,-1.4772229194641113
1782776421398724400,1.632724365234375,-0.521519660949707,0.2415602207183838,-1.635620355606079
1782776421408703700,1.642703857421875,-0.45416927337646484,0.27480173110961914,-1.6789302825927734
1782776421418713600,1.652713623046875,-0.34523963928222656,0.3829960823059082,-1.5990777015686035
1782776421428723200,1.66272314453125,-0.16262340545654297,0.4728667736053467,-1.4269860982894897
1782776421438702300,1.672702392578125,0.06231975555419922,0.4559803009033203,-1.2903788089752197
1782776421448712200,1.682712158203125,0.43581104278564453,0.4467000961303711,-1.2286875247955322
1782776421458721800,1.6927216796875,0.7924327850341797,0.4193131923675537,-1.2536866664886475
1782776421468701200,1.702701171875,1.0477008819580078,0.35478711128234863,-1.3985185623168945
1782776421478711000,1.7127109375,1.1742925643920898,0.49243927001953125,-1.8454854488372803
1782776421488720600,1.722720703125,1.1600656509399414,0.5328116416931152,-1.6346794366836548
1782776421498700000,1.732699951171875,0.9620199203491211,0.4857470989227295,-1.3123632669448853
1782776421508710000,1.7427099609375,0.7492408752441406,0.3799586296081543,-0.7484811544418335
1782776421518719500,1.752719482421875,0.6668081283569336,0.28675365447998047,0.09045100212097168
1782776421528729300,1.762729248046875,1.0292549133300781,0.2786397933959961,0.8950746059417725
1782776421538708500,1.77270849609375,1.901057243347168,0.33694911003112793,1.5973352193832397
1782776421548718300,1.78271826171875,3.082857131958008,0.3531055450439453,2.271660327911377
1782776421558728200,1.792728271484375,4.110166549682617,0.2472994327545166,2.554884195327759
1782776421568707300,1.802707275390625,4.829051971435547,0.025624752044677734,2.4075725078582764
1782776421578717000,1.812717041015625,5.047120094299316,-0.26406168937683105,1.94282066822052
1782776421588726800,1.822726806640625,4.789628982543945,-0.6318204402923584,1.310840129852295
1782776421598706200,1.8327060546875,4.178342819213867,-0.8889858722686768,0.6534818410873413
1782776421608715800,1.8427158203125,3.405003547668457,-1.1066982746124268,-0.0077773332595825195
1782776421618725600,1.8527255859375,2.4822607040405273,-1.3016891479492188,-0.5951573252677917
1782776421628705000,1.862705078125,1.473536491394043,-1.3441979885101318,-0.9615458250045776
1782776421638714600,1.872714599609375,0.5811738967895508,-1.2573224306106567,-1.0539884567260742
1782776421648724500,1.882724365234375,-0.2586631774902344,-1.0783491134643555,-1.013692021369934
1782776421658703600,1.89270361328125,-0.8666181564331055,-0.9370503425598145,-0.9148331880569458
1782776421668713200,1.902713134765625,-1.2910919189453125,-0.7655919790267944,-0.8267946839332581
1782776421678723000,1.91272314453125,-1.5461044311523438,-0.5561919212341309,-0.743759274482727
1782776421688702500,1.922702392578125,-1.7337493896484375,-0.44559717178344727,-0.5063515901565552
1782776421698712300,1.93271240234375,-1.7834587097167969,-0.433135986328125,-0.2292429804801941
1782776421708722200,1.94272216796875,-1.7136144638061523,-0.4276256561279297,0.2889155149459839
1782776421718701300,1.952701416015625,-1.6092076301574707,-0.4191765785217285,1.100205659866333
1782776421728711200,1.962711181640625,-1.226048469543457,-0.32360005378723145,1.671971082687378
1782776421738720800,1.972720703125,-0.5252218246459961,-0.14319610595703125,2.0691328048706055
1782776421748700200,1.9827001953125,0.3479957580566406,-0.044890403747558594,2.4184141159057617
1782776421758709800,1.992709716796875,1.4204511642456055,-0.05584430694580078,2.6916022300720215
1782776421768719400,2.00271923828125,2.317000389099121,-0.23078322410583496,2.5102944374084473
1782776421778729200,2.012729248046875,3.0572290420532227,-0.5259068012237549,1.7980238199234009
1782776421788708600,2.02270849609375,3.4488210678100586,-0.8880581855773926,0.9510688781738281
1782776421798718200,2.03271826171875,3.353109359741211,-1.2922472953796387,0.053917527198791504
1782776421808728000,2.04272802734375,2.92244815826416,-1.602901577949524,-0.6949264407157898
1782776421818707500,2.05270751953125,2.2001094818115234,-1.7341010570526123,-1.1338881254196167
1782776421828717300,2.06271728515625,1.2917633056640625,-1.7107787132263184,-1.2889139652252197
1782776421838727000,2.072726806640625,0.4078969955444336,-1.6085892915725708,-1.2083064317703247
1782776421848706000,2.0827060546875,-0.3949470520019531,-1.3774902820587158,-0.8480596542358398
1782776421858716000,2.0927158203125,-1.1999263763427734,-1.1069409847259521,-0.32889628410339355
1782776421868725500,2.1027255859375,-1.798682689666748,-0.8626682758331299,0.067344069480896
1782776421878705000,2.112704833984375,-2.2492971420288086,-0.6706554889678955,0.3089596629142761
1782776421888714800,2.12271484375,-2.6102519035339355,-0.5330531597137451,0.4445374608039856
1782776421898724400,2.132724365234375,-2.887681484222412,-0.5015671253204346,0.36990177631378174
1782776421908703700,2.142703857421875,-3.135028839111328,-0.5436840057373047,0.32428330183029175
1782776421918713600,2.152713623046875,-3.3322672843933105,-0.6200501918792725,0.213628888130188
1782776421928723200,2.16272314453125,-3.4631571769714355,-0.7107863426208496,0.07528287172317505
1782776421938702300,2.172702392578125,-3.5408949851989746,-0.8180534839630127,-0.0923113226890564
1782776421948712200,2.182712158203125,-3.472839832305908,-0.9116475582122803,-0.23160582780838013
1782776421958721800,2.1927216796875,-3.2623276710510254,-0.9631726741790771,-0.3165042996406555
1782776421968701200,2.202701171875,-2.842721939086914,-1.0100913047790527,-0.29959845542907715
1782776421978711000,2.2127109375,-2.305316925048828,-1.0400502681732178,-0.19431543350219727
1782776421988720600,2.222720703125,-1.7598862648010254,-1.0493450164794922,-0.05739116668701172
1782776421998700000,2.232699951171875,-1.2868762016296387,-1.062232255935669,0.10331034660339355
1782776422008710000,2.2427099609375,-0.9067325592041016,-1.0150198936462402,0.3190896511077881
1782776422018719500,2.252719482421875,-0.6135272979736328,-0.9445271492004395,0.45526230335235596
1782776422028729300,2.262729248046875,-0.44008541107177734,-0.9076685905456543,0.4666728973388672
1782776422038708500,2.27270849609375,-0.3212738037109375,-0.8698985576629639,0.45893967151641846
1782776422048718300,2.28271826171875,-0.3096761703491211,-0.8700776100158691,0.5070064067840576
1782776422058728200,2.292728271484375,-0.43169212341308594,-0.8222310543060303,0.5613329410552979
1782776422068707300,2.302707275390625,-0.5534257888793945,-0.8095057010650635,0.6186823844909668
1782776422078717000,2.312717041015625,-0.6873703002929688,-0.7584273815155029,0.7114717960357666
1782776422088726800,2.322726806640625,-0.7335853576660156,-0.6955249309539795,0.8713958263397217
1782776422098706200,2.3327060546875,-0.7118730545043945,-0.652367115020752,1.0593507289886475
1782776422108715800,2.3427158203125,-0.5413188934326172,-0.6275548934936523,1.1889095306396484
1782776422118725600,2.3527255859375,-0.3178853988647461,-0.6421182155609131,1.2554891109466553
1782776422128705000,2.362705078125,-0.04668712615966797,-0.6790494918823242,1.2201828956604004
1782776422138714600,2.372714599609375,0.1667957305908203,-0.6988546848297119,1.0199425220489502
1782776422148724500,2.382724365234375,0.26278114318847656,-0.5331873893737793,0.418904185295105
1782776422158703600,2.39270361328125,0.15329933166503906,-0.27370762825012207,-0.1797116994857788
1782776422168713200,2.402713134765625,-0.10792732238769531,-0.16470050811767578,-0.26897764205932617
1782776422178723000,2.41272314453125,-0.4060230255126953,-0.11890912055969238,0.28107523918151855
1782776422188702500,2.422702392578125,-0.7434873580932617,-0.03989696502685547,1.1840770244598389
1782776422198712300,2.43271240234375,-0.7207002639770508,0.08065319061279297,2.1345818042755127
1782776422208722000,2.442721923828125,-0.383880615234375,0.23012018203735352,2.8843231201171875
1782776422218701300,2.452701416015625,0.3901681900024414,0.15089178085327148,3.331305980682373
1782776422228711200,2.462711181640625,1.2136974334716797,-0.13942170143127441,3.65893816947937
1782776422238720800,2.472720703125,2.132444381713867,-0.5387661457061768,3.609912872314453
1782776422248700200,2.4827001953125,2.9071741104125977,-0.9521329402923584,2.9480810165405273
1782776422258709800,2.492709716796875,3.3787288665771484,-1.2363883256912231,1.9200255870819092
1782776422268719400,2.50271923828125,3.565755844116211,-1.4125531911849976,0.9787940979003906
1782776422278729200,2.512729248046875,3.4414968490600586,-1.5113626718521118,0.20753765106201172
1782776422288708600,2.52270849609375,3.0804405212402344,-1.391572117805481,0.08571147918701172
1782776422298718200,2.53271826171875,2.612645149230957,-1.1700115203857422,0.25185132026672363
1782776422308728000,2.54272802734375,2.018960952758789,-0.8923696279525757,0.4884955883026123
1782776422318707500,2.55270751953125,1.4020671844482422,-0.6575723886489868,0.7610808610916138
1782776422328717300,2.56271728515625,0.7850275039672852,-0.4897902011871338,1.1059834957122803
1782776422338727000,2.572726806640625,0.2936067581176758,-0.3587716817855835,1.4488954544067383
1782776422348706000,2.5827060546875,-0.12180805206298828,-0.26346075534820557,1.810549259185791
1782776422358716000,2.5927158203125,-0.3201160430908203,-0.22926926612854004,2.0301430225372314
1782776422368725500,2.6027255859375,-0.3813514709472656,-0.2659413814544678,2.147177219390869
1782776422378705000,2.612704833984375,-0.38927268981933594,-0.3147587776184082,2.2804906368255615
1782776422388714800,2.62271484375,-0.38475513458251953,-0.4947279691696167,2.3965489864349365
1782776422398724400,2.632724365234375,-0.42507457733154297,-0.6773300170898438,2.474975109100342
1782776422408703700,2.642703857421875,-0.43534183502197266,-0.8509217500686646,2.515976667404175
1782776422418713600,2.652713623046875,-0.4889068603515625,-1.0562193393707275,2.4388675689697266
1782776422428723200,2.66272314453125,-0.5713634490966797,-1.262209415435791,2.3576858043670654
1782776422438702300,2.672702392578125,-0.64971923828125,-1.4722694158554077,2.181328296661377
1782776422448712200,2.682712158203125,-0.7047271728515625,-1.62581467628479,1.9438753128051758
1782776422458721800,2.6927216796875,-0.7699069976806641,-1.7719968557357788,1.7058300971984863
1782776422468701200,2.702701171875,-0.7928562164306641,-1.886033535003662,1.4740960597991943
1782776422478711000,2.7127109375,-0.742497444152832,-1.9483604431152344,1.1954312324523926
1782776422488720600,2.722720703125,-0.6185007095336914,-1.9426541328430176,0.9577939510345459
1782776422498700000,2.732699951171875,-0.50506591796875,-1.9482874870300293,0.722100019454956
1782776422508710000,2.7427099609375,-0.3863401412963867,-1.9262456893920898,0.5518307685852051
1782776422518719500,2.752719482421875,-0.3047332763671875,-1.8687770366668701,0.41290950775146484
1782776422528729300,2.762729248046875,-0.25954151153564453,-1.768133521080017,0.29750776290893555
1782776422538708500,2.77270849609375,-0.2858161926269531,-1.6552095413208008,0.1496131420135498
1782776422548718300,2.78271826171875,-0.3840818405151367,-1.0570341348648071,-0.270111083984375
1782776422558728200,2.792728271484375,-0.4816446304321289,-0.6390609741210938,-0.5483343601226807
1782776422568707300,2.802707275390625,-0.5631866455078125,-0.31651318073272705,-0.6863336563110352
1782776422578717000,2.812717041015625,-0.6548118591308594,-0.19291460514068604,-0.7183747291564941
1782776422588726800,2.822726806640625,-0.7292213439941406,-0.06077742576599121,-0.6841428279876709
1782776422598646500,2.832646484375,-0.7510595321655273,0.09145712852478027,-0.6763420104980469
1782776422608717300,2.84271728515625,-0.7830495834350586,0.1862882375717163,-0.6512598991394043
1782776422618786800,2.852786865234375,-0.7896327972412109,0.301289439201355,-0.632300615310669
1782776422628705000,2.862705078125,-0.7159214019775391,0.42567312717437744,-0.5717720985412598
1782776422638655000,2.872655029296875,-0.6098508834838867,0.5550414323806763,-0.4625983238220215
1782776422648785400,2.882785400390625,-0.49042510986328125,0.6933276653289795,-0.34307003021240234
1782776422658703600,2.89270361328125,-0.35510730743408203,0.8224155902862549,-0.20802640914916992
1782776422668713500,2.90271337890625,-0.19138240814208984,0.9946191310882568,-0.14136171340942383
1782776422678663400,2.912663330078125,-0.09193897247314453,1.1333345174789429,-0.10316872596740723
1782776422688793900,2.9227939453125,-0.08736038208007812,1.2287529706954956,-0.05053257942199707
1782776422698712300,2.93271240234375,-0.19204425811767578,1.3320698738098145,-0.015945911407470703
1782776422709890800,2.943890869140625,-0.3504638671875,1.4176279306411743,0.021760940551757812
1782776422728711200,2.962711181640625,-0.7031040191650391,1.3736730813980103,-0.08705878257751465
1782776422738720800,2.972720703125,-0.8856973648071289,1.240225911140442,-0.3571889400482178
1782776422748700200,2.9827001953125,-0.9484367370605469,1.030677080154419,-0.659644365310669
1782776422758709800,2.992709716796875,-0.8938884735107422,0.8145794868469238,-0.9499932527542114
1782776422768659700,3.00265966796875,-0.7292547225952148,0.6105161905288696,-1.1360987424850464
1782776422778790100,3.0127900390625,-0.40683746337890625,0.39360320568084717,-1.2543761730194092
1782776422788708600,3.02270849609375,0.0061092376708984375,0.04545712471008301,-1.190597414970398
1782776422798718200,3.03271826171875,0.3183889389038086,-0.18549036979675293,-1.0829373598098755
1782776422808728000,3.04272802734375,0.547882080078125,-0.23800921440124512,-0.9132764339447021
1782776422818707500,3.05270751953125,0.7112922668457031,-0.15099406242370605,-0.8795832395553589
1782776422828717000,3.062717041015625,0.7974128723144531,0.028697490692138672,-1.0582058429718018
1782776422838727000,3.072726806640625,0.7581033706665039,0.17439556121826172,-1.138209581375122
1782776422848706000,3.0827060546875,0.5741796493530273,0.1997685432434082,-0.982631266117096
1782776422858715600,3.092715576171875,0.3161296844482422,0.19798588752746582,-0.6128731966018677
1782776422868725500,3.1027255859375,0.06866264343261719,0.23891043663024902,-0.0842738151550293
1782776422878705000,3.112704833984375,0.10054302215576172,0.36923956871032715,0.4594203233718872
1782776422888714500,3.122714599609375,0.40930938720703125,0.4172029495239258,0.9758080244064331
1782776422898724400,3.132724365234375,0.8890781402587891,0.44778013229370117,1.334430456161499
1782776422908703700,3.142703857421875,1.2972917556762695,0.4264492988586426,1.5300849676132202
1782776422918713300,3.15271337890625,1.7505197525024414,0.34392523765563965,1.2923635244369507
1782776422928663600,3.16266357421875,1.9460954666137695,0.13404440879821777,0.8476554155349731
1782776422938794000,3.1727939453125,1.8472404479980469,-0.22628402709960938,0.20524060726165771
1782776422948652500,3.182652587890625,1.4826164245605469,-0.5438804626464844,-0.5101737976074219
1782776422958783000,3.192782958984375,0.8229074478149414,-0.7934370040893555,-1.0691472291946411
1782776422968701200,3.202701171875,0.07040214538574219,-0.9544817209243774,-1.4091436862945557
1782776422978711000,3.2127109375,-0.5995044708251953,-0.9488118886947632,-1.528276801109314
1782776422988721000,3.222720947265625,-1.1594982147216797,-0.8550463914871216,-1.452790379524231
1782776422998700000,3.232699951171875,-1.5868005752563477,-0.7177368402481079,-1.2222390174865723
1782776423008710000,3.2427099609375,-1.8581957817077637,-0.5099968910217285,-0.9166201949119568
1782776423018719500,3.252719482421875,-2.0511608123779297,-0.22564435005187988,-0.5866822600364685
1782776423028729300,3.262729248046875,-2.1350836753845215,-0.019516706466674805,-0.3992024064064026
1782776423038708700,3.272708740234375,-2.098680019378662,0.14556479454040527,-0.33336108922958374
1782776423048718300,3.28271826171875,-2.1531944274902344,0.2366480827331543,-0.3743988871574402
1782776423058728200,3.292728271484375,-2.188815116882324,0.32354164123535156,-0.5491260886192322
1782776423068707300,3.302707275390625,-2.3591394424438477,0.38077402114868164,-0.6933144330978394
1782776423078717000,3.312717041015625,-2.6480183601379395,0.401078462600708,-0.8242095112800598
1782776423088726800,3.322726806640625,-2.8311476707458496,0.28670310974121094,-0.926525890827179
1782776423098706200,3.3327060546875,-3.087116241455078,0.20363783836364746,-0.7854675054550171
1782776423108716000,3.342716064453125,-2.976553440093994,0.18976044654846191,-0.31652361154556274
1782776423118725600,3.3527255859375,-2.414855480194092,0.21976375579833984,0.41221266984939575
1782776423128705000,3.362705078125,-1.0749292373657227,0.26743626594543457,1.377049207687378
1782776423138715000,3.37271484375,0.5038738250732422,0.39651012420654297,2.3298983573913574
1782776423148724500,3.382724365234375,2.2913331985473633,0.3649158477783203,2.9159841537475586
1782776423158703600,3.39270361328125,4.181468963623047,0.22220826148986816,3.037290573120117
1782776423168713500,3.40271337890625,5.575151443481445,-0.12153935432434082,2.7374320030212402
1782776423178723000,3.41272314453125,6.214832305908203,-0.5098025798797607,2.185256004333496
1782776423188702500,3.422702392578125,6.159787178039551,-0.7518690824508667,1.4310040473937988
1782776423198712300,3.43271240234375,5.534090995788574,-0.9199331998825073,0.5373729467391968
1782776423208722000,3.442721923828125,4.553323745727539,-1.0182185173034668,-0.10512077808380127
1782776423218701300,3.452701416015625,3.168102264404297,-1.2096338272094727,-0.4285210371017456
1782776423228711200,3.462711181640625,1.5786323547363281,-1.198807954788208,-0.4638165235519409
1782776423238720800,3.472720703125,0.35596275329589844,-1.0236643552780151,-0.36798983812332153
1782776423248700200,3.4827001953125,-0.6692361831665039,-0.8533874750137329,-0.1499432921409607
1782776423258709800,3.492709716796875,-1.5230565071105957,-0.7272922992706299,0.13219106197357178
1782776423268719400,3.50271923828125,-2.229897975921631,-0.5925947427749634,0.37781858444213867
1782776423278729200,3.512729248046875,-2.761509418487549,-0.48014211654663086,0.6055112481117249
1782776423288708600,3.52270849609375,-3.1927309036254883,-0.36919426918029785,0.746717095375061
1782776423298718200,3.53271826171875,-3.431166172027588,-0.2852511405944824,0.7860103845596313
1782776423308728000,3.54272802734375,-3.4580979347229004,-0.20476579666137695,0.8422979116439819
1782776423318707500,3.55270751953125,-3.375126361846924,-0.2754502296447754,0.8932665586471558
1782776423328717300,3.56271728515625,-3.1636037826538086,-0.34589219093322754,1.0033944845199585
1782776423338727000,3.572726806640625,-2.7958970069885254,-0.3865327835083008,1.1633015871047974
1782776423348706000,3.5827060546875,-2.4104208946228027,-0.44553303718566895,1.3884305953979492
1782776423358716000,3.5927158203125,-2.079056739807129,-0.554124116897583,1.5554780960083008
1782776423368725500,3.6027255859375,-1.7922749519348145,-0.7194387912750244,1.5828579664230347
1782776423378705000,3.612704833984375,-1.5287513732910156,-0.9120533466339111,1.521252155303955
1782776423388714800,3.62271484375,-1.276937484741211,-1.0443631410598755,1.4767341613769531
1782776423398724400,3.632724365234375,-0.9819250106811523,-1.1013669967651367,1.5054020881652832
1782776423408703700,3.642703857421875,-0.6701107025146484,-1.1376473903656006,1.6906898021697998
1782776423418713600,3.652713623046875,-0.3624715805053711,-1.1717203855514526,1.8985528945922852
1782776423428723200,3.66272314453125,-0.08960247039794922,-1.207555890083313,1.9699811935424805
1782776423438702300,3.672702392578125,0.23278522491455078,-1.2631862163543701,1.9924436807632446
1782776423448652500,3.682652587890625,0.45911693572998047,-1.2896548509597778,2.047276020050049
1782776423458723300,3.692723388671875,0.6762676239013672,-1.2772976160049438,2.1644370555877686
1782776423469658600,3.70365869140625,0.7792015075683594,-1.2555924654006958,2.209914207458496
1782776423488720600,3.722720703125,0.9671707153320312,-1.1162821054458618,2.286224365234375
1782776423498700000,3.732699951171875,0.976536750793457,-1.0704838037490845,2.4185945987701416
1782776423508710000,3.7427099609375,0.8642520904541016,-1.0876961946487427,2.5533361434936523
1782776423518719500,3.752719482421875,0.6806411743164062,-1.0339266061782837,2.6661276817321777
1782776423528729300,3.762729248046875,0.4686317443847656,-0.9938349723815918,2.6783454418182373
1782776423538648800,3.77264892578125,0.20629024505615234,-0.9980030059814453,2.6285200119018555
1782776423549555700,3.7835556640625,-0.1118764877319336,-1.0205265283584595,2.5611977577209473
1782776423568707300,3.802707275390625,-0.7575368881225586,-1.190685510635376,2.791351795196533
1782776423578717200,3.81271728515625,-0.976262092590332,-1.392075538635254,3.0251784324645996
1782776423588726800,3.822726806640625,-0.8335514068603516,-1.5843391418457031,3.091418743133545
1782776423598706200,3.8327060546875,-0.39894771575927734,-1.7454265356063843,3.018548011779785
1782776423608716000,3.842716064453125,0.16459083557128906,-1.962730050086975,2.7072834968566895
1782776423618666000,3.852666015625,0.6508035659790039,-2.2351763248443604,2.2300586700439453
1782776423628796700,3.862796630859375,1.0450401306152344,-2.4547266960144043,1.6626697778701782
1782776423638715000,3.87271484375,1.162750244140625,-2.605623245239258,1.0907293558120728
1782776423648664600,3.88266455078125,0.996790885925293,-2.6948392391204834,0.5592631101608276
1782776423658795300,3.892795166015625,0.6892814636230469,-2.739156723022461,0.18993866443634033
1782776423668713500,3.90271337890625,0.4164886474609375,-2.7257802486419678,-0.08263778686523438
1782776423678723000,3.91272314453125,0.27544593811035156,-2.664426803588867,-0.22995483875274658
1782776423688702500,3.922702392578125,0.36130809783935547,-2.541212558746338,-0.21879982948303223
1782776423698712300,3.93271240234375,0.5791406631469727,-2.4041872024536133,-0.1835474967956543
1782776423708722000,3.942721923828125,0.8671846389770508,-2.2914483547210693,-0.10354280471801758
1782776423718701300,3.952701416015625,1.1211748123168945,-2.2463419437408447,-0.11339545249938965
1782776423728711200,3.962711181640625,1.2944049835205078,-2.2328124046325684,-0.27274656295776367
1782776423738720800,3.972720703125,1.3160667419433594,-2.2267308235168457,-0.5385661125183105
1782776423748700000,3.982699951171875,1.278742790222168,-2.177177906036377,-0.7773406505584717
1782776423758709800,3.992709716796875,1.3396902084350586,-2.075484275817871,-0.8994009494781494
1782776423768719400,4.00271923828125,1.5186777114868164,-1.8909152746200562,-0.8842854499816895
1782776423778729200,4.012729248046875,1.8013458251953125,-1.7312217950820923,-0.7381608486175537
1782776423788708600,4.02270849609375,2.07198429107666,-1.5766997337341309,-0.5908651351928711
1782776423798718200,4.03271826171875,2.3749961853027344,-1.444699764251709,-0.5591127872467041
1782776423808728000,4.04272802734375,2.635809898376465,-1.3748915195465088,-0.589209794998169
1782776423818707500,4.05270751953125,2.85585880279541,-1.2816256284713745,-0.6429996490478516
1782776423828717000,4.062717041015625,3.051553726196289,-1.2155661582946777,-0.6410007476806641
1782776423838727000,4.072726806640625,3.2367029190063477,-1.165111780166626,-0.6563575267791748
1782776423848706000,4.0827060546875,3.322399139404297,-1.1763100624084473,-0.6309852600097656
1782776423858656300,4.09265625,3.250248908996582,-1.1276822090148926,-0.5865356922149658
1782776423869517300,4.103517333984375,3.0923643112182617,-1.0872411727905273,-0.5353827476501465
1782776423888714500,4.122714599609375,2.808565139770508,-0.9904723763465881,-0.29248499870300293
1782776423898664700,4.132664794921875,2.6045541763305664,-0.9773001670837402,-0.09651947021484375
1782776423908795100,4.142795166015625,2.336087226867676,-0.9764915108680725,0.12172913551330566
1782776423918713600,4.152713623046875,1.9884376525878906,-0.9788888692855835,0.28473639488220215
1782776423928723200,4.16272314453125,1.5900030136108398,-0.9844095706939697,0.36846375465393066
1782776423938702300,4.172702392578125,1.1357593536376953,-1.0680880546569824,0.3720841407775879
1782776423948652500,4.182652587890625,0.6811380386352539,-1.1093389987945557,0.3689560890197754
1782776423958783000,4.192782958984375,0.1837005615234375,-1.1546671390533447,0.3163330554962158
1782776423968701200,4.202701171875,-0.28894901275634766,-1.2169556617736816,0.24495291709899902
1782776423978711000,4.2127109375,-0.659022331237793,-1.2373052835464478,0.18268060684204102
1782776423988720600,4.222720703125,-1.0110464096069336,-1.2301403284072876,0.12028670310974121
1782776423998700000,4.232699951171875,-1.3106293678283691,-1.1706080436706543,0.11646890640258789
1782776424008710000,4.2427099609375,-1.5545668601989746,-1.0791715383529663,0.17649483680725098
1782776424018719500,4.252719482421875,-1.7482357025146484,-0.951932430267334,0.2436375617980957
1782776424028729300,4.262729248046875,-1.9158382415771484,-0.5130906105041504,0.16604924201965332
1782776424038708700,4.272708740234375,-1.991663932800293,-0.22671031951904297,0.18258118629455566
1782776424048718300,4.28271826171875,-2.039149761199951,-0.05473947525024414,0.38552141189575195
1782776424058728200,4.292728271484375,-2.0396203994750977,0.10407567024230957,0.5896642208099365
1782776424068707300,4.302707275390625,-2.0339107513427734,0.2545890808105469,0.7783191204071045
1782776424078717000,4.312717041015625,-2.067431926727295,0.4342184066772461,1.018721342086792
1782776424088726800,4.322726806640625,-2.0948586463928223,0.5644915103912354,1.1357591152191162
1782776424098706200,4.3327060546875,-2.135446071624756,0.695242166519165,1.2427561283111572
1782776424108715800,4.3427158203125,-2.246486186981201,0.7468342781066895,1.2559947967529297
1782776424118725600,4.3527255859375,-2.336696147918701,0.7413194179534912,1.228994607925415
1782776424128705000,4.362705078125,-2.3893470764160156,0.6665642261505127,1.190798044204712
1782776424138714600,4.372714599609375,-2.4478702545166016,0.5746104717254639,1.0378224849700928
1782776424148724500,4.382724365234375,-2.459786891937256,0.47032904624938965,0.7874016761779785
1782776424158703600,4.39270361328125,-2.442607879638672,0.4155423641204834,0.4712529182434082
1782776424168713200,4.402713134765625,-2.3705854415893555,0.3534128665924072,0.14113426208496094
1782776424178723000,4.41272314453125,-2.0333685874938965,0.41975998878479004,-0.06273198127746582
1782776424188702500,4.422702392578125,-1.7923121452331543,0.382340669631958,-0.20217978954315186
1782776424198712300,4.43271240234375,-1.620607852935791,0.43912220001220703,-0.18452799320220947
1782776424208722000,4.442721923828125,-1.6168255805969238,0.516716480255127,-0.11373615264892578
1782776424218701300,4.452701416015625,-1.6446809768676758,0.6468908786773682,-0.10012340545654297
1782776424228711200,4.462711181640625,-1.6562719345092773,0.7423598766326904,-0.05495500564575195
1782776424238720800,4.472720703125,-1.6206703186035156,0.7810487747192383,0.060135602951049805
1782776424248700200,4.4827001953125,-1.4616217613220215,0.7382504940032959,0.30601561069488525
1782776424258709800,4.492709716796875,-1.1224732398986816,0.5253314971923828,0.4620206356048584
1782776424268719600,4.5027197265625,-0.6369800567626953,0.26990556716918945,0.5445414781570435
1782776424278729200,4.512729248046875,0.04287433624267578,-0.03367877006530762,0.5039743185043335
1782776424288708600,4.52270849609375,0.7171335220336914,-0.3085799217224121,0.3533538579940796
1782776424298718200,4.53271826171875,1.2145299911499023,-0.5615112781524658,0.07070457935333252
1782776424308728000,4.54272802734375,1.5402050018310547,-0.7533764839172363,-0.3053380250930786
1782776424318707500,4.55270751953125,1.5490751266479492,-0.7925124168395996,-0.6767749786376953
1782776424328717300,4.56271728515625,1.1438322067260742,-0.8622889518737793,-0.8689254522323608
1782776424338727000,4.572726806640625,0.4647397994995117,-0.9483838081359863,-0.8773476481437683
1782776424348706000,4.5827060546875,-0.2690467834472656,-0.9200491905212402,-0.9367498159408569
1782776424358716000,4.5927158203125,-0.8444976806640625,-0.877155065536499,-0.9133595824241638
1782776424368725500,4.6027255859375,-1.1462812423706055,-1.0457334518432617,-0.9367254972457886
1782776424378705000,4.612704833984375,-1.1498842239379883,-1.346245288848877,-1.1912049055099487
1782776424388714800,4.62271484375,-0.9387807846069336,-1.694771647453308,-1.6628800630569458
1782776424398724400,4.632724365234375,-0.706028938293457,-1.8800121545791626,-2.097447633743286
1782776424408703700,4.642703857421875,-0.43523120880126953,-1.9047154188156128,-2.520885944366455
1782776424418713600,4.652713623046875,-0.3098335266113281,-1.794978141784668,-2.7836551666259766
1782776424428723200,4.66272314453125,-0.5078487396240234,-1.6899954080581665,-3.0285911560058594
1782776424438702300,4.672702392578125,-1.0232114791870117,-1.5266388654708862,-3.056697368621826
1782776424448712200,4.682712158203125,-1.4876298904418945,-1.327810525894165,-3.0922036170959473
1782776424458721800,4.6927216796875,-1.878798484802246,-1.054004430770874,-3.0266947746276855
1782776424468701200,4.702701171875,-2.0886192321777344,-0.822462797164917,-2.9487204551696777
1782776424478711000,4.7127109375,-1.9997243881225586,-0.6355412006378174,-2.689423084259033
1782776424488720600,4.722720703125,-1.704786777496338,-0.3996107578277588,-2.37168550491333
1782776424498700000,4.732699951171875,-1.1328167915344238,-0.14325976371765137,-1.945557713508606
1782776424508710000,4.7427099609375,-0.3503398895263672,0.1409900188446045,-1.6052881479263306
1782776424518719500,4.752719482421875,0.718653678894043,0.40607404708862305,-1.2938103675842285
1782776424528729300,4.762729248046875,1.9134035110473633,0.6016087532043457,-0.8977689146995544
1782776424538708700,4.772708740234375,2.9309778213500977,0.6354539394378662,-0.7087410688400269
1782776424548718300,4.78271826171875,3.8104496002197266,0.6651170253753662,-0.6265878677368164
1782776424558728200,4.792728271484375,4.424769401550293,0.5516068935394287,-0.8412833213806152
1782776424568707300,4.802707275390625,4.740398406982422,0.347430944442749,-1.169363021850586
1782776424578717000,4.812717041015625,4.654045104980469,0.06403017044067383,-1.616011619567871
1782776424588726800,4.822726806640625,4.177494049072266,-0.11970758438110352,-2.0829153060913086
1782776424598706200,4.8327060546875,3.5073623657226562,-0.14857983589172363,-2.6756486892700195
1782776424608715800,4.8427158203125,2.6138830184936523,-0.4296562671661377,-2.6024234294891357
1782776424618725600,4.8527255859375,1.5971765518188477,-0.6740702390670776,-2.5280325412750244
1782776424628705000,4.862705078125,0.6286201477050781,-0.6870650053024292,-2.672719955444336
1782776424638714600,4.872714599609375,-0.27797508239746094,-0.630742073059082,-2.8437507152557373
1782776424648724500,4.882724365234375,-1.1214017868041992,-0.557398796081543,-2.921900749206543
1782776424658703600,4.89270361328125,-1.7685976028442383,-0.5723283290863037,-2.9852352142333984
1782776424668713200,4.902713134765625,-2.0481972694396973,-0.6190972328186035,-3.0292747020721436
1782776424678723000,4.91272314453125,-1.9418392181396484,-0.7216329574584961,-3.0975608825683594
1782776424688702500,4.922702392578125,-1.9886717796325684,-0.8337987661361694,-3.1308045387268066
1782776424698712300,4.93271240234375,-2.205317497253418,-0.8203252553939819,-3.196943759918213
1782776424708722000,4.942721923828125,-2.5558433532714844,-0.7756109237670898,-3.138195276260376
1782776424718701300,4.952701416015625,-3.049116611480713,-0.7087104320526123,-3.1060280799865723
1782776424728711200,4.962711181640625,-3.5397024154663086,-0.6462302207946777,-3.044053077697754
1782776424738720800,4.972720703125,-3.780942916870117,-0.5007491111755371,-2.771334648132324
1782776424748700200,4.9827001953125,-3.912729263305664,-0.3535432815551758,-2.551344633102417
1782776424758709800,4.992709716796875,-3.799306869506836,-0.2799103260040283,-2.3765835762023926
1782776424768719600,5.0027197265625,-3.5423636436462402,-0.21269607543945312,-2.1980528831481934
1782776424778729200,5.012729248046875,-2.9686121940612793,-0.0692753791809082,-2.046208381652832
1782776424788708600,5.02270849609375,-2.089388370513916,0.06771731376647949,-1.9184116125106812
1782776424798718200,5.03271826171875,-1.106328010559082,0.002200603485107422,-1.899077296257019
1782776424808728000,5.04272802734375,-0.004851341247558594,-0.10545825958251953,-1.9671040773391724
1782776424818707500,5.05270751953125,0.6891975402832031,-0.14073729515075684,-2.2137889862060547
1782776424828717300,5.06271728515625,1.1471319198608398,-0.06017637252807617,-2.430748701095581
1782776424838727000,5.072726806640625,1.3221101760864258,0.09749197959899902,-2.624387741088867
1782776424848706000,5.0827060546875,1.3156251907348633,0.18302321434020996,-2.8008079528808594
1782776424858716000,5.0927158203125,1.327754020690918,0.2397470474243164,-2.8782238960266113
1782776424868725500,5.1027255859375,1.4475126266479492,0.35216736793518066,-2.7779459953308105
1782776424878705000,5.112704833984375,1.6225385665893555,0.4916377067565918,-2.4629733562469482
1782776424888714800,5.12271484375,1.7456169128417969,0.670621395111084,-2.0529589653015137
1782776424898724400,5.132724365234375,1.9555721282958984,0.8926055431365967,-1.7140065431594849
1782776424908703700,5.142703857421875,2.186020851135254,1.1663323640823364,-1.3542940616607666
1782776424918713600,5.152713623046875,2.3100881576538086,1.4812889099121094,-0.8901891708374023
1782776424928723700,5.1627236328125,2.39080810546875,1.7853440046310425,-0.44396400451660156
1782776424938702300,5.172702392578125,2.4667282104492188,2.0500645637512207,-0.11877560615539551
1782776424948712200,5.182712158203125,2.5406389236450195,2.328207015991211,0.08326935768127441
1782776424958722000,5.19272216796875,2.588451385498047,2.5164589881896973,0.17693877220153809
1782776424968701200,5.202701171875,2.5306396484375,2.619743824005127,0.23555374145507812
1782776424978711000,5.2127109375,2.3685855865478516,2.603503465652466,0.18387556076049805
1782776424988720600,5.222720703125,2.106487274169922,2.470083236694336,0.11209750175476074
1782776424998700000,5.232699951171875,1.8394889831542969,2.3009204864501953,0.03147721290588379
1782776425008710000,5.2427099609375,1.591231346130371,2.1733932495117188,-0.024173736572265625
1782776425018719500,5.252719482421875,1.3281593322753906,2.1128451824188232,0.03776717185974121
1782776425028729300,5.262729248046875,1.1690540313720703,2.112433910369873,0.21804499626159668
1782776425038708700,5.272708740234375,1.0889701843261719,2.0591111183166504,0.4003129005432129
1782776425048718300,5.28271826171875,1.081639289855957,1.9509005546569824,0.4956226348876953
1782776425058728200,5.292728271484375,1.0631980895996094,1.780625581741333,0.38736748695373535
1782776425068707300,5.302707275390625,0.948939323425293,1.6271257400512695,0.0765378475189209
1782776425078717000,5.312717041015625,0.6218719482421875,1.4367471933364868,-0.16516447067260742
1782776425088726800,5.322726806640625,0.21474647521972656,1.151071310043335,-0.24351167678833008
1782776425098706200,5.3327060546875,-0.10781669616699219,0.7493318319320679,-0.3020923137664795
1782776425108715800,5.3427158203125,-0.2895183563232422,0.2500876188278198,-0.45563602447509766
1782776425118725600,5.3527255859375,-0.17333698272705078,-0.2525043487548828,-0.7468478679656982
1782776425128705000,5.362705078125,0.39656829833984375,-0.8863557577133179,-1.2874901294708252
1782776425138714600,5.372714599609375,1.1194868087768555,-1.2689950466156006,-1.6289269924163818
1782776425148724500,5.382724365234375,2.081300735473633,-1.5830847024917603,-2.022848129272461
1782776425158703600,5.39270361328125,3.1258811950683594,-1.761810302734375,-2.346475601196289
1782776425168713200,5.402713134765625,4.176277160644531,-1.7696812152862549,-2.590890884399414
1782776425178723000,5.41272314453125,4.845547676086426,-1.7215774059295654,-2.7903575897216797
1782776425188702500,5.422702392578125,5.006343841552734,-1.709984302520752,-2.8594741821289062
1782776425198712300,5.43271240234375,4.571322441101074,-1.6865633726119995,-2.980276346206665
1782776425208722000,5.442721923828125,3.6134119033813477,-1.7748501300811768,-3.3094053268432617
1782776425218701300,5.452701416015625,2.4863481521606445,-1.8252241611480713,-3.49522066116333
1782776425228711200,5.462711181640625,1.0934209823608398,-1.8257050514221191,-3.6480438709259033
1782776425238720800,5.472720703125,-0.11524486541748047,-1.8316223621368408,-3.81128191947937
1782776425248700200,5.4827001953125,-1.0642290115356445,-1.8273561000823975,-3.9546658992767334
1782776425258709800,5.492709716796875,-1.8396167755126953,-1.7169098854064941,-3.9199275970458984
1782776425268719400,5.50271923828125,-2.4225621223449707,-1.5545690059661865,-3.713992118835449
1782776425278790400,5.512790283203125,-2.866055965423584,-1.3971993923187256,-3.2957444190979004
1782776425288708600,5.52270849609375,-3.128904342651367,-1.199918270111084,-2.6881942749023438
1782776425298718200,5.53271826171875,-3.137416362762451,-0.982628345489502,-1.9765815734863281
1782776425308728000,5.54272802734375,-2.803462505340576,-0.6902068853378296,-1.1576645374298096
1782776425318707500,5.55270751953125,-1.9550795555114746,-0.37212157249450684,-0.5025861263275146
1782776425328717300,5.56271728515625,-0.7769222259521484,-0.16313719749450684,0.0350799560546875
1782776425338727000,5.572726806640625,0.8247184753417969,-0.057526350021362305,0.4544670581817627
1782776425348706000,5.5827060546875,2.453489303588867,-0.15139639377593994,0.3472564220428467
1782776425358716000,5.5927158203125,3.7426538467407227,-0.46609365940093994,-0.3521888256072998
1782776425368725500,5.6027255859375,4.242563247680664,-0.9917647242546082,-1.3197455406188965
1782776425378705000,5.612704833984375,3.995244026184082,-1.4512956142425537,-2.422421932220459
1782776425388714800,5.62271484375,3.036770820617676,-1.7908103466033936,-3.3369243144989014
1782776425398724400,5.632724365234375,1.721414566040039,-1.809457540512085,-3.8730721473693848
1782776425408703700,5.642703857421875,0.39713191986083984,-1.6169331073760986,-4.0189409255981445
1782776425418713600,5.652713623046875,-0.7278738021850586,-1.308546781539917,-3.722552537918091
1782776425428723200,5.66272314453125,-1.5982675552368164,-1.0244240760803223,-2.957538604736328
1782776425438702300,5.672702392578125,-2.291748046875,-0.6012332439422607,-2.0282249450683594
1782776425448712200,5.682712158203125,-2.836207389831543,-0.15735530853271484,-1.14473557472229
1782776425458722000,5.69272216796875,-3.0944266319274902,0.27576375007629395,-0.5975418090820312
1782776425468701200,5.702701171875,-3.2681779861450195,0.5931531190872192,-0.13918495178222656
1782776425478711000,5.7127109375,-3.283992290496826,0.808638334274292,0.12784957885742188
1782776425488720600,5.722720703125,-3.056340217590332,0.9882605075836182,0.2641019821166992
1782776425498700000,5.732699951171875,-2.756321430206299,1.1433908939361572,0.3433704376220703
1782776425508710000,5.7427099609375,-2.466823101043701,1.169348955154419,0.36722707748413086
1782776425518719500,5.752719482421875,-2.122466564178467,1.153092861175537,0.2635331153869629
1782776425528729300,5.762729248046875,-1.6838092803955078,1.0908682346343994,0.0018460750579833984
1782776425538708700,5.772708740234375,-1.1179604530334473,1.0009034872055054,-0.2995903491973877
1782776425548718300,5.78271826171875,-0.47302722930908203,0.9294693470001221,-0.5327982902526855
1782776425558728200,5.792728271484375,0.11443042755126953,0.8684325218200684,-0.6344966888427734
1782776425568707300,5.802707275390625,0.6564559936523438,0.8569455146789551,-0.7378079891204834
1782776425578717000,5.812717041015625,1.1084270477294922,0.9203071594238281,-0.852576732635498
1782776425588726800,5.822726806640625,1.4374284744262695,0.9884134531021118,-0.8067638874053955
1782776425598706200,5.8327060546875,1.6075077056884766,1.0571409463882446,-0.6572866439819336
1782776425608715800,5.8427158203125,1.6241559982299805,1.1104736328125,-0.4785463809967041
1782776425618725600,5.8527255859375,1.6221380233764648,1.0598816871643066,-0.4077646732330322
1782776425628705000,5.862705078125,1.4872865676879883,0.8938823938369751,-0.4796938896179199
1782776425638714600,5.872714599609375,1.377950668334961,0.7241686582565308,-0.7452070713043213
1782776425648724500,5.882724365234375,1.262782096862793,0.5303839445114136,-1.0558807849884033
1782776425658703600,5.89270361328125,1.2255496978759766,0.4179866313934326,-1.3101552724838257
1782776425668713200,5.902713134765625,1.1865930557250977,0.3107936382293701,-1.3161472082138062
1782776425678723000,5.91272314453125,1.178506851196289,0.302013635635376,-1.3404659032821655
1782776425688702500,5.922702392578125,1.102217674255371,0.4696509838104248,-1.455301284790039
1782776425698712300,5.93271240234375,0.84881591796875,0.6657860279083252,-1.3554940223693848
1782776425708722000,5.942721923828125,0.4357175827026367,0.6614854335784912,-0.8101511001586914
1782776425718701300,5.952701416015625,0.06441974639892578,0.5232275724411011,-0.21358323097229004
1782776425728711200,5.962711181640625,-0.18203067779541016,0.32707011699676514,0.1968848705291748
1782776425738720800,5.972720703125,-0.07614994049072266,0.22230017185211182,0.4143195152282715
1782776425748700200,5.9827001953125,0.5111770629882812,0.12180483341217041,0.34308505058288574
1782776425758709800,5.992709716796875,1.533956527709961,-0.07777941226959229,0.13995957374572754
1782776425768719400,6.00271923828125,2.462510108947754,-0.3081066608428955,-0.021038293838500977
1782776425778657000,6.012656982421875,3.339303970336914,-0.5415594577789307,-0.3189351558685303
1782776425788708600,6.02270849609375,3.943248748779297,-0.75490403175354,-0.6274278163909912
1782776425798718200,6.03271826171875,4.264035224914551,-1.0414412021636963,-1.0433493852615356
1782776425808728000,6.04272802734375,4.327679634094238,-1.2429113388061523,-1.5103329420089722
1782776425818707500,6.05270751953125,3.790379524230957,-1.5041104555130005,-1.9696253538131714
1782776425828717300,6.06271728515625,2.882073402404785,-1.6395014524459839,-2.244410753250122
1782776425838727000,6.072726806640625,1.925053596496582,-1.6009867191314697,-2.2865543365478516
1782776425848706000,6.0827060546875,0.9296579360961914,-1.476700782775879,-2.181408643722534
1782776425858716000,6.0927158203125,0.045136451721191406,-1.3769069910049438,-2.076014757156372
1782776425868725500,6.1027255859375,-0.7753353118896484,-1.3373764753341675,-2.180915594100952
1782776425878705000,6.112704833984375,-1.2148427963256836,-1.2819396257400513,-2.3648593425750732
1782776425888714800,6.12271484375,-1.4093475341796875,-1.2670252323150635,-2.4420669078826904
1782776425898724400,6.132724365234375,-1.5376644134521484,-1.2555240392684937,-2.1816253662109375
1782776425908703700,6.142703857421875,-1.5965461730957031,-1.2149279117584229,-1.75714111328125
1782776425918713600,6.152713623046875,-1.6089024543762207,-1.1176615953445435,-1.2347984313964844
1782776425928723200,6.16272314453125,-1.5613884925842285,-0.8732255697250366,-0.6871123313903809
1782776425938702300,6.172702392578125,-1.2209491729736328,-0.5771191120147705,-0.1989881992340088
1782776425948712200,6.182712158203125,-0.5304241180419922,-0.27938294410705566,0.21162796020507812
1782776425958722000,6.19272216796875,0.35581302642822266,-0.1403822898864746,0.5382113456726074
1782776425968701200,6.202701171875,1.3894767761230469,-0.07749152183532715,0.7824170589447021
1782776425978711000,6.2127109375,2.3226070404052734,-0.04091930389404297,0.7953915596008301
1782776425988720600,6.222720703125,3.2118024826049805,-0.1277782917022705,0.502842903137207
1782776425998700000,6.232699951171875,3.7807130813598633,-0.3379330635070801,0.06549572944641113
1782776426008710000,6.2427099609375,3.850851058959961,-0.6905198097229004,-0.384458065032959
1782776426018719500,6.252719482421875,3.449258804321289,-1.0275012254714966,-0.9583984613418579
1782776426028729300,6.262729248046875,2.5920047760009766,-1.274666428565979,-1.4520293474197388
1782776426038708700,6.272708740234375,1.3536176681518555,-1.4227228164672852,-1.7346960306167603
1782776426048718300,6.28271826171875,0.08700942993164062,-1.4124748706817627,-1.8894613981246948
1782776426058728200,6.292728271484375,-1.0431852340698242,-1.319085717201233,-1.9151818752288818
1782776426068707300,6.302707275390625,-1.9683842658996582,-1.2368133068084717,-1.824636697769165
1782776426078717200,6.31271728515625,-2.6755781173706055,-1.1831096410751343,-1.6346311569213867
1782776426088726800,6.322726806640625,-3.083016872406006,-1.1061835289001465,-1.4822293519973755
1782776426098706200,6.3327060546875,-3.312593936920166,-1.0283695459365845,-1.466073989868164
1782776426108716000,6.342716064453125,-3.3095083236694336,-0.9830108880996704,-1.5284838676452637
1782776426118725600,6.3527255859375,-3.1596736907958984,-0.9300453662872314,-1.5074799060821533
1782776426128705000,6.362705078125,-3.025613307952881,-0.9019629955291748,-1.5275310277938843
1782776426138714600,6.372714599609375,-2.978677749633789,-0.8936150074005127,-1.5932533740997314
1782776426148724500,6.382724365234375,-3.0212244987487793,-0.8757520914077759,-1.7052419185638428
1782776426158703600,6.39270361328125,-3.091064929962158,-0.8226944208145142,-1.8266730308532715
1782776426168713200,6.402713134765625,-3.0848894119262695,-0.7843828201293945,-1.8946893215179443
1782776426178723000,6.41272314453125,-2.966848373413086,-0.6991627216339111,-1.791377067565918
1782776426188702500,6.422702392578125,-2.7876710891723633,-0.672985315322876,-1.6246967315673828
1782776426198712300,6.43271240234375,-2.64231014251709,-0.6177618503570557,-1.4792468547821045
1782776426208722000,6.442721923828125,-2.4047956466674805,-0.5080845355987549,-1.3770395517349243
1782776426218701300,6.452701416015625,-2.0827832221984863,-0.3312711715698242,-1.2356116771697998
1782776426228711200,6.462711181640625,-1.738105297088623,-0.14989924430847168,-1.012887954711914
1782776426238720800,6.472720703125,-1.4421839714050293,-0.0632016658782959,-0.7400883436203003
1782776426248700000,6.482699951171875,-1.1395525932312012,-0.003058195114135742,-0.49364280700683594
1782776426258709800,6.492709716796875,-0.7224063873291016,0.11112189292907715,-0.2727193832397461
1782776426268719400,6.50271923828125,-0.008297920227050781,0.24128150939941406,-0.09341025352478027
1782776426278729200,6.512729248046875,0.7979841232299805,0.45687246322631836,0.10064530372619629
1782776426288708600,6.52270849609375,1.758723258972168,0.6019372940063477,0.3764035701751709
1782776426308706000,6.5427060546875,3.051694869995117,0.9101588726043701,0.6611387729644775
1782776426318685400,6.552685546875,3.389676094055176,1.0664699077606201,0.6429543495178223
1782776426328695000,6.562695068359375,3.434445381164551,1.2598702907562256,0.46245384216308594
1782776426338705000,6.572704833984375,2.998723030090332,1.4161317348480225,0.3669850826263428
1782776426348684000,6.58268408203125,2.4368810653686523,1.423729419708252,0.270923376083374
1782776426358693600,6.592693603515625,1.9077959060668945,1.5005950927734375,0.33939313888549805
1782776426368703500,6.602703369140625,1.695317268371582,1.6337003707885742,0.5202479362487793
1782776426378683000,6.612682861328125,1.9355525970458984,1.7085957527160645,0.815056324005127
1782776426388692700,6.622692626953125,2.68715763092041,1.6767892837524414,1.2456004619598389
1782776426398702300,6.632702392578125,3.5159616470336914,1.5758686065673828,1.7367537021636963
1782776426408681700,6.642681640625,4.277534484863281,1.4073479175567627,2.0501489639282227
1782776426418691600,6.652691650390625,4.794394493103027,1.3409676551818848,2.2696733474731445
1782776426428701200,6.662701171875,4.968050956726074,1.2520785331726074,2.2601234912872314
1782776426438680600,6.6726806640625,4.5907182693481445,1.0539569854736328,1.894261121749878
1782776426448690200,6.682690185546875,3.547618865966797,0.5552046298980713,1.1834542751312256
1782776426458700000,6.692699951171875,2.073047637939453,-0.003317594528198242,0.239060640335083
1782776426468679200,6.70267919921875,0.7282228469848633,-0.6107982397079468,-0.7929277420043945
1782776426478689000,6.71268896484375,-0.5446348190307617,-1.2054593563079834,-1.7572475671768188
1782776426488698600,6.72269873046875,-1.6109519004821777,-1.6993484497070312,-2.424229860305786
1782776426498678000,6.732677978515625,-2.4787673950195312,-1.8263211250305176,-2.688920021057129
1782776426508688000,6.74268798828125,-2.8678207397460938,-1.7183964252471924,-2.698481559753418
1782776426518697500,6.752697509765625,-3.016383171081543,-1.5181100368499756,-2.613586664199829
1782776426528707300,6.762707275390625,-2.9770116806030273,-1.3659237623214722,-2.3484067916870117
1782776426538686700,6.772686767578125,-2.75461483001709,-1.172765851020813,-1.92616868019104
1782776426548696300,6.7826962890625,-2.333784580230713,-0.9797195196151733,-1.3296928405761719
1782776426558706200,6.7927060546875,-1.8264617919921875,-0.7799597978591919,-0.6979224681854248
1782776426568685300,6.802685302734375,-1.3240714073181152,-0.5842349529266357,-0.11714005470275879
1782776426578695000,6.81269482421875,-0.6032228469848633,-0.39510369300842285,0.24611830711364746
1782776426588704800,6.822704833984375,0.19277000427246094,-0.3699643611907959,0.3121371269226074
1782776426598684200,6.83268408203125,0.9825363159179688,-0.5012831687927246,0.14580965042114258
1782776426608693800,6.84269384765625,1.5724077224731445,-0.6278905868530273,-0.19216060638427734
1782776426618703600,6.85270361328125,1.972376823425293,-0.71721351146698,-0.5591087341308594
1782776426628683000,6.86268310546875,2.11318302154541,-0.7531096935272217,-0.9742574691772461
1782776426638692600,6.872692626953125,1.7228727340698242,-0.7773988246917725,-1.2783312797546387
1782776426648702500,6.882702392578125,1.247035026550293,-0.8865114450454712,-1.6941425800323486
1782776426658681600,6.892681640625,0.46869659423828125,-0.9781150817871094,-2.0981311798095703
1782776426668691200,6.902691162109375,-0.2866659164428711,-0.9335644245147705,-2.4364960193634033
1782776426678701000,6.912701171875,-0.7709722518920898,-0.6660977602005005,-2.5182952880859375
1782776426688680400,6.922680419921875,-1.1542258262634277,-0.3968219757080078,-2.280536413192749
1782776426698690300,6.932690185546875,-1.2652182579040527,-0.1809384822845459,-1.9011749029159546
1782776426708700000,6.942699951171875,-1.1762104034423828,0.07079672813415527,-1.4670653343200684
1782776426718679300,6.95267919921875,-1.056417465209961,0.31058287620544434,-1.2108426094055176
1782776426728689200,6.962689208984375,-0.9207983016967773,0.4026215076446533,-0.992895245552063
1782776426738698800,6.97269873046875,-0.9646120071411133,0.44124269485473633,-0.7591363191604614
1782776426748678100,6.98267822265625,-1.0160961151123047,0.4617140293121338,-0.7268127202987671
1782776426758687700,6.992687744140625,-1.1433115005493164,0.4249587059020996,-0.8146593570709229
1782776426768697300,7.002697265625,-1.1896281242370605,0.45368456840515137,-0.9079538583755493
1782776426778707200,7.012707275390625,-1.1248397827148438,0.43715357780456543,-0.9887135028839111
1782776426790954200,7.024954345703125,-0.8900518417358398,0.37026214599609375,-1.048369288444519
1782776426808706000,7.0427060546875,-0.21207332611083984,0.36198997497558594,-0.9851316213607788
1782776426818685400,7.052685546875,0.0827627182006836,0.3539888858795166,-1.0360701084136963
1782776426828695300,7.0626953125,0.27091312408447266,0.3192894458770752,-1.0311169624328613
1782776426838705000,7.072704833984375,0.2932310104370117,0.3035268783569336,-0.9913621544837952
1782776426848684000,7.08268408203125,0.2655315399169922,0.2714049816131592,-1.0782315731048584
1782776426858694000,7.09269384765625,0.02421855926513672,0.20694327354431152,-1.1267945766448975
1782776426868703500,7.102703369140625,-0.1447887420654297,0.2048206329345703,-1.1907836198806763
1782776426878683000,7.112682861328125,0.04139137268066406,0.19968223571777344,-0.9303600192070007
1782776426888692700,7.122692626953125,-0.3172473907470703,0.10502314567565918,-0.953070878982544
1782776426898702300,7.132702392578125,-0.3409595489501953,0.2930772304534912,-1.3612849712371826
1782776426908681700,7.142681640625,0.17940425872802734,0.3902699947357178,-1.6562473773956299
1782776426918691600,7.152691650390625,1.0866146087646484,0.2658579349517822,-1.5284405946731567
1782776426928701200,7.162701171875,1.6712760925292969,0.3032238483428955,-1.485204815864563
