time,seconds_elapsed,z,y,x
1782776453559104800,0.182104736328125,-0.5301456451416016,-2.1113061904907227,-0.24986720085144043
1782776453569129500,0.19212939453125,-1.0489683151245117,-1.8906044960021973,0.1702190637588501
1782776453579139300,0.202139404296875,-1.485060691833496,-1.6755452156066895,0.422590434551239
1782776453589149000,0.21214892578125,-1.80690336227417,-1.5297188758850098,0.45930027961730957
1782776453599128000,0.222128173828125,-2.1151580810546875,-1.4507031440734863,0.36182403564453125
1782776453609138000,0.232137939453125,-2.2601051330566406,-1.4609472751617432,0.18114209175109863
1782776453619147500,0.2421474609375,-2.319880485534668,-1.4972403049468994,-0.011869311332702637
1782776453629127000,0.252126953125,-2.2846217155456543,-1.5621495246887207,-0.19855433702468872
1782776453639136800,0.26213671875,-2.134779930114746,-1.5817866325378418,-0.3459241986274719
1782776453649146400,0.272146484375,-1.8455710411071777,-1.5526530742645264,-0.5259823799133301
1782776453659125800,0.282125732421875,-1.5674843788146973,-1.5208337306976318,-0.6244488954544067
1782776453669135600,0.292135498046875,-1.2880406379699707,-1.4350101947784424,-0.6423922777175903
1782776453679145200,0.302145263671875,-0.9999303817749023,-1.329808235168457,-0.5714318752288818
1782776453689124600,0.31212451171875,-0.8468942642211914,-1.2438530921936035,-0.46221017837524414
1782776453699134200,0.32213427734375,-0.7754354476928711,-1.1672697067260742,-0.3517046570777893
1782776453709143800,0.332143798828125,-0.7228460311889648,-1.0504605770111084,-0.2601724863052368
1782776453719123200,0.342123291015625,-0.6243753433227539,-0.895676851272583,-0.19612360000610352
1782776453729133000,0.352133056640625,-0.5278139114379883,-0.7865333557128906,-0.15841341018676758
1782776453739143000,0.362142822265625,-0.43068408966064453,-0.684842586517334,-0.17576706409454346
1782776453749122000,0.3721220703125,-0.33037567138671875,-0.6245229244232178,-0.2122427225112915
1782776453759132000,0.3821318359375,-0.2081594467163086,-0.5717470645904541,-0.24362444877624512
1782776453769141800,0.392141845703125,-0.16251754760742188,-0.5337331295013428,-0.2726958990097046
1782776453779151400,0.4021513671875,-0.2393016815185547,-0.4268348217010498,-0.06088268756866455
1782776453789130500,0.412130615234375,-0.29496288299560547,-0.3722269535064697,0.16731524467468262
1782776453799140400,0.422140380859375,-0.16047096252441406,-0.38065409660339355,0.37220609188079834
1782776453809150000,0.43214990234375,0.019298553466796875,-0.451793909072876,0.6445496082305908
1782776453819129300,0.44212939453125,0.21672630310058594,-0.490673303604126,0.8177093267440796
1782776453829139200,0.45213916015625,0.44783782958984375,-0.5997037887573242,0.8968716859817505
1782776453839148800,0.462148681640625,0.666712760925293,-0.6881179809570312,0.8731114864349365
1782776453849128200,0.472128173828125,0.8449993133544922,-0.826427698135376,0.7423924207687378
1782776453859138000,0.482137939453125,0.9699325561523438,-1.0276648998260498,0.5742028951644897
1782776453869147600,0.492147705078125,1.081099510192871,-1.1188573837280273,0.28474223613739014
1782776453879127000,0.502126953125,1.091670036315918,-1.0097239017486572,-0.1998535394668579
1782776453889136600,0.51213671875,0.7798852920532227,-0.5225410461425781,-0.8323530554771423
1782776453899146500,0.522146484375,0.3178110122680664,-0.29720616340637207,-0.9585981965065002
1782776453909125600,0.532125732421875,0.01857280731201172,-0.49633073806762695,-0.24439477920532227
1782776453919135500,0.542135498046875,-0.013890266418457031,-0.6590602397918701,0.7892425060272217
1782776453929145000,0.55214501953125,0.2962455749511719,-0.6836714744567871,1.4688249826431274
1782776453939124500,0.56212451171875,1.3335180282592773,-0.5629327297210693,1.646547555923462
1782776453949134300,0.57213427734375,2.349869728088379,-0.7116262912750244,1.662803053855896
1782776453959144000,0.58214404296875,2.9990625381469727,-1.0689094066619873,1.5814852714538574
1782776453969123300,0.592123291015625,3.2810468673706055,-1.3844232559204102,1.2109562158584595
1782776453979133200,0.60213330078125,3.211385726928711,-1.6399295330047607,0.8090517520904541
1782776453989142800,0.612142822265625,3.0045957565307617,-1.853898525238037,0.509742021560669
1782776453999122200,0.6221220703125,2.8801984786987305,-2.0249128341674805,0.36100828647613525
1782776454009131800,0.6321318359375,2.82236385345459,-2.1020278930664062,0.3325650691986084
1782776454019141400,0.642141357421875,2.740553855895996,-2.078659772872925,0.341556191444397
1782776454029151200,0.652151123046875,2.5744028091430664,-1.9907257556915283,0.3352358341217041
1782776454039130600,0.662130615234375,2.353816032409668,-1.8928834199905396,0.287540078163147
1782776454049140200,0.67214013671875,2.0534887313842773,-1.7218948602676392,0.3468528985977173
1782776454059150000,0.682150146484375,1.6481447219848633,-1.5986132621765137,0.46227288246154785
1782776454069129500,0.69212939453125,1.1492013931274414,-1.5581598281860352,0.5035727024078369
1782776454079139300,0.702139404296875,0.7122287750244141,-1.5681284666061401,0.4620072841644287
1782776454089149000,0.71214892578125,0.3261680603027344,-1.570886492729187,0.47231435775756836
1782776454099128000,0.722128173828125,-0.0009708404541015625,-1.5388883352279663,0.586158037185669
1782776454109138000,0.732137939453125,-0.17004013061523438,-1.4508860111236572,0.7900696992874146
1782776454119147500,0.7421474609375,-0.33109092712402344,-1.3509206771850586,1.0078116655349731
1782776454129127000,0.752126953125,-0.513575553894043,-1.293452501296997,1.179246425628662
1782776454139136800,0.76213671875,-0.7258586883544922,-1.2435765266418457,1.3048990964889526
1782776454149146400,0.772146484375,-1.1329479217529297,-0.5736949443817139,0.9333453178405762
1782776454159125800,0.782125732421875,-1.4464240074157715,-0.3049802780151367,0.5669341087341309
1782776454169135600,0.792135498046875,-1.6141290664672852,-0.2886238098144531,0.17887425422668457
1782776454179145200,0.802145263671875,-1.5913896560668945,-0.37303757667541504,-0.25701451301574707
1782776454189124600,0.81212451171875,-1.456942081451416,-0.5374889373779297,-0.6504735946655273
1782776454199134200,0.82213427734375,-1.3305621147155762,-0.7039568424224854,-1.0343290567398071
1782776454209143800,0.832143798828125,-1.2521114349365234,-0.777350664138794,-1.4204272031784058
1782776454219123200,0.842123291015625,-1.2895445823669434,-0.8186416625976562,-1.7003297805786133
1782776454229133000,0.852133056640625,-1.4176874160766602,-0.8206310272216797,-1.8856253623962402
1782776454239143000,0.862142822265625,-1.5850138664245605,-0.7350473403930664,-1.971745252609253
1782776454249122000,0.8721220703125,-1.7620000839233398,-0.6102727651596069,-1.932572364807129
1782776454259132000,0.8821318359375,-1.9241924285888672,-0.3956315517425537,-1.6893095970153809
1782776454269141800,0.892141845703125,-2.059741973876953,-0.130659818649292,-1.3291771411895752
1782776454279151400,0.9021513671875,-2.070955753326416,0.09764218330383301,-1.0581560134887695
1782776454289130500,0.912130615234375,-2.037755012512207,0.2333385944366455,-0.8050198554992676
1782776454299140400,0.922140380859375,-2.0568413734436035,0.3034353256225586,-0.6338955163955688
1782776454309150000,0.93214990234375,-2.0449576377868652,0.37500762939453125,-0.600165605545044
1782776454319129300,0.94212939453125,-1.9690017700195312,0.41552186012268066,-0.5333216190338135
1782776454329139200,0.95213916015625,-1.8605504035949707,0.43344593048095703,-0.4641951322555542
1782776454339148800,0.962148681640625,-1.5739212036132812,0.403684139251709,-0.4598299264907837
1782776454349128200,0.972128173828125,-1.1788597106933594,0.33882975578308105,-0.5077211856842041
1782776454359138000,0.982137939453125,-0.8188333511352539,0.19523906707763672,-0.576828122138977
1782776454369147600,0.992147705078125,-0.5587911605834961,0.01983356475830078,-0.7101988792419434
1782776454379127000,1.002126953125,-0.3006706237792969,-0.0715172290802002,-0.9367163181304932
1782776454389137000,1.012136962890625,-0.09458732604980469,-0.13176703453063965,-1.1560018062591553
1782776454399146500,1.022146484375,0.047659873962402344,-0.16435647010803223,-1.3362150192260742
1782776454409125600,1.032125732421875,0.19574832916259766,-0.1892075538635254,-1.5466713905334473
1782776454419135500,1.042135498046875,0.39113616943359375,-0.22655320167541504,-1.755609393119812
1782776454429145000,1.05214501953125,0.5626850128173828,-0.2938656806945801,-1.9099863767623901
1782776454439124500,1.06212451171875,0.7855224609375,-0.28452515602111816,-2.0460569858551025
1782776454449134300,1.07213427734375,1.014486312866211,-0.2875351905822754,-2.088308572769165
1782776454459144200,1.082144287109375,1.2763490676879883,-0.2810838222503662,-2.0967965126037598
1782776454469123300,1.092123291015625,1.4544954299926758,-0.2553863525390625,-2.027541399002075
1782776454479133200,1.10213330078125,1.71392822265625,-0.1818535327911377,-1.9946587085723877
1782776454489142800,1.112142822265625,2.008838653564453,-0.11748838424682617,-1.9375293254852295
1782776454499122200,1.1221220703125,2.200336456298828,-0.05985116958618164,-1.9303877353668213
1782776454509131800,1.1321318359375,2.165003776550293,0.19210529327392578,-2.1822493076324463
1782776454519141400,1.142141357421875,1.8314571380615234,0.540381908416748,-2.391714096069336
1782776454529151200,1.152151123046875,1.3698310852050781,0.720660924911499,-2.1926848888397217
1782776454539130600,1.162130615234375,0.9979791641235352,0.7577004432678223,-1.6605384349822998
1782776454549140200,1.17214013671875,0.8512449264526367,0.7280876636505127,-0.8622943162918091
1782776454559150000,1.182150146484375,0.9995155334472656,0.6559672355651855,0.0068291425704956055
1782776454569129500,1.19212939453125,1.5479707717895508,0.6473181247711182,0.694560170173645
1782776454579139300,1.202139404296875,2.438817024230957,0.6012215614318848,1.0616475343704224
1782776454589149000,1.21214892578125,3.235812187194824,0.4183335304260254,1.178019404411316
1782776454599128000,1.222128173828125,4.045902252197266,0.22892165184020996,0.9797918796539307
1782776454609138000,1.232137939453125,4.582343101501465,-0.035950422286987305,0.5705435276031494
1782776454619147500,1.2421474609375,4.730861663818359,-0.32873260974884033,-0.016006946563720703
1782776454629127000,1.252126953125,4.570783615112305,-0.6149271726608276,-0.8543286323547363
1782776454639136800,1.26213671875,3.9349517822265625,-0.844100832939148,-1.4942023754119873
1782776454649146400,1.272146484375,2.771153450012207,-1.0066635608673096,-1.896493673324585
1782776454659125800,1.282125732421875,1.4511137008666992,-0.9445550441741943,-2.0721945762634277
1782776454669137000,1.292136962890625,0.29853248596191406,-0.6970692873001099,-2.2866146564483643
1782776454679146500,1.302146484375,-0.7244729995727539,-0.4764043092727661,-2.3884589672088623
1782776454689126000,1.3121259765625,-1.6917510032653809,-0.29268836975097656,-2.393249750137329
1782776454699135700,1.3221357421875,-2.4741930961608887,-0.1765918731689453,-2.3549561500549316
1782776454709145300,1.332145263671875,-3.047853469848633,-0.1007392406463623,-2.2631587982177734
1782776454719124700,1.342124755859375,-3.346060276031494,-0.0598146915435791,-1.8899811506271362
1782776454729134600,1.352134521484375,-3.4576873779296875,-0.058084726333618164,-1.411942481994629
1782776454739144200,1.362144287109375,-3.279900074005127,-0.08625578880310059,-0.7292535901069641
1782776454749123300,1.372123291015625,-2.415745735168457,-0.0940542221069336,-0.15241551399230957
1782776454759133200,1.38213330078125,-1.2444963455200195,-0.1496424674987793,0.45415401458740234
1782776454769143000,1.39214306640625,-0.10614585876464844,-0.17905282974243164,1.0591866970062256
1782776454779152600,1.402152587890625,0.9864177703857422,-0.18358397483825684,1.3958112001419067
1782776454789132000,1.412132080078125,1.9455909729003906,-0.20841288566589355,1.312445878982544
1782776454799141600,1.4221416015625,2.5976428985595703,-0.3070967197418213,0.8634587526321411
1782776454809151500,1.4321513671875,2.820026397705078,-0.518700361251831,0.2664363384246826
1782776454819131000,1.442130859375,2.5447826385498047,-0.8476130962371826,-0.3686251640319824
1782776454829217000,1.452217041015625,1.6515827178955078,-1.105432152748108,-0.8743090629577637
1782776454839150300,1.462150390625,0.7760095596313477,-1.2128227949142456,-1.3570501804351807
1782776454849129700,1.472129638671875,0.053687095642089844,-1.2124062776565552,-1.645033597946167
1782776454859139300,1.482139404296875,-0.42786502838134766,-1.1611723899841309,-1.8575217723846436
1782776454869149200,1.492149169921875,-0.7609701156616211,-1.0879653692245483,-1.8655294179916382
1782776454879128600,1.502128662109375,-1.1006011962890625,-1.0147641897201538,-1.7208030223846436
1782776454889138200,1.51213818359375,-1.4002513885498047,-0.9470832347869873,-1.5594477653503418
1782776454899147800,1.522147705078125,-1.7344636917114258,-0.8054022789001465,-1.3925453424453735
1782776454909127200,1.532127197265625,-2.022332191467285,-0.6342427730560303,-1.1998040676116943
1782776454919137000,1.542136962890625,-2.2608284950256348,-0.49466872215270996,-1.035808801651001
1782776454929146600,1.552146728515625,-2.438716411590576,-0.3442544937133789,-0.9022022485733032
1782776454939126000,1.5621259765625,-2.5304441452026367,-0.2575721740722656,-0.9111851453781128
1782776454949136000,1.572135986328125,-2.5179481506347656,-0.18775177001953125,-1.013684868812561
1782776454959145500,1.5821455078125,-2.4392967224121094,-0.134232759475708,-1.1410913467407227
1782776454969124600,1.59212451171875,-2.3209571838378906,-0.10412955284118652,-1.2643643617630005
1782776454979134500,1.602134521484375,-2.1510863304138184,-0.11179709434509277,-1.3088382482528687
1782776454989144000,1.61214404296875,-1.929269790649414,-0.1197655200958252,-1.313331961631775
1782776454999123500,1.62212353515625,-1.6770997047424316,-0.07792305946350098,-1.2366771697998047
1782776455009133300,1.63213330078125,-1.461503028869629,-0.037363529205322266,-1.0972155332565308
1782776455019143000,1.642142822265625,-1.2993707656860352,0.020248889923095703,-0.9482675790786743
1782776455029152800,1.65215283203125,-1.1284842491149902,0.09222126007080078,-0.8611435890197754
1782776455039132200,1.662132080078125,-0.9824981689453125,0.1520400047302246,-0.7848361730575562
1782776455049141800,1.672141845703125,-0.8925619125366211,0.15361666679382324,-0.6801810264587402
1782776455059151600,1.682151611328125,-0.8898868560791016,0.1852436065673828,-0.5776783227920532
1782776455069130800,1.692130859375,-0.8666210174560547,0.15373802185058594,-0.47570371627807617
1782776455079140600,1.702140625,-0.8492746353149414,0.133927583694458,-0.3721170425415039
1782776455089150200,1.712150146484375,-0.5484247207641602,0.12722110748291016,-0.2151651382446289
1782776455099129600,1.722129638671875,-0.1774282455444336,0.09865880012512207,-0.009892463684082031
1782776455109139500,1.732139404296875,0.09888553619384766,-0.017295122146606445,0.21966147422790527
1782776455119149000,1.742149169921875,0.2605552673339844,-0.1257946491241455,0.3074965476989746
1782776455129128400,1.75212841796875,0.46512603759765625,-0.2601330280303955,0.22138524055480957
1782776455139138300,1.76213818359375,0.6067037582397461,-0.45560646057128906,0.03664660453796387
1782776455149148000,1.77214794921875,0.7495965957641602,-0.6280956268310547,-0.23872137069702148
1782776455159127000,1.782126953125,0.8506135940551758,-0.5890800952911377,-0.7303942441940308
1782776455169137000,1.792136962890625,0.8194084167480469,-0.2994117736816406,-1.3426814079284668
1782776455179146500,1.802146484375,0.49352359771728516,0.026342391967773438,-1.643810510635376
1782776455189126000,1.8121259765625,0.09358978271484375,0.11957836151123047,-1.385196566581726
1782776455199135700,1.8221357421875,-0.08603668212890625,0.14139914512634277,-0.7094694375991821
1782776455209145300,1.832145263671875,-0.15312862396240234,0.16793465614318848,0.18815898895263672
1782776455219124700,1.842124755859375,0.26523590087890625,0.23401737213134766,0.9401226043701172
1782776455229134600,1.852134521484375,0.9257688522338867,0.24822115898132324,1.4517309665679932
1782776455239144400,1.86214453125,1.5916061401367188,0.12595272064208984,1.7474923133850098
1782776455249123600,1.87212353515625,2.1177730560302734,-0.12665700912475586,1.9055075645446777
1782776455259133200,1.88213330078125,2.4557037353515625,-0.43405938148498535,1.86506986618042
1782776455269143000,1.89214306640625,2.522928237915039,-0.6896140575408936,1.563910722732544
1782776455279152600,1.902152587890625,2.4723615646362305,-0.9285807609558105,1.2057154178619385
1782776455289132000,1.912132080078125,2.3686161041259766,-1.1247460842132568,0.7951724529266357
1782776455299142000,1.922141845703125,2.243305206298828,-1.2496973276138306,0.34978795051574707
1782776455309151500,1.9321513671875,2.130138397216797,-1.343806266784668,-0.05259823799133301
1782776455319131000,1.942130859375,1.926344871520996,-1.3647102117538452,-0.3258323669433594
1782776455329140500,1.952140380859375,1.5288419723510742,-1.3375558853149414,-0.42044544219970703
1782776455339150300,1.962150390625,1.0192289352416992,-1.242283582687378,-0.4314239025115967
1782776455349129700,1.972129638671875,0.5008926391601562,-1.0842506885528564,-0.3596010208129883
1782776455359139300,1.982139404296875,0.010519981384277344,-0.8913170099258423,-0.14859604835510254
1782776455369149200,1.992149169921875,-0.3605213165283203,-0.7264820337295532,0.2473304271697998
1782776455379128600,2.002128662109375,-0.5357837677001953,-0.6077241897583008,0.7076280117034912
1782776455389138200,2.01213818359375,-0.6339054107666016,-0.4985494613647461,1.1725478172302246
1782776455399147800,2.022147705078125,-0.6187839508056641,-0.40334463119506836,1.6459765434265137
1782776455409127200,2.032127197265625,-0.605433464050293,-0.30009961128234863,2.094890832901001
1782776455419137000,2.042136962890625,-0.5331363677978516,-0.19359612464904785,2.7197682857513428
1782776455429146600,2.052146728515625,-0.3814849853515625,-0.11328601837158203,3.3508780002593994
1782776455439126000,2.0621259765625,-0.1912832260131836,-0.13582468032836914,3.733877420425415
1782776455449135900,2.072135986328125,0.0010700225830078125,-0.24345874786376953,3.7384347915649414
1782776455459145700,2.082145751953125,0.09692764282226562,-0.4321277141571045,3.388381242752075
1782776455469124600,2.09212451171875,0.16473102569580078,-0.6833648681640625,2.6440865993499756
1782776455479134500,2.102134521484375,0.08025360107421875,-0.9465123414993286,1.6333179473876953
1782776455489144000,2.11214404296875,-0.12227058410644531,-1.1810606718063354,0.8568658828735352
1782776455499123500,2.12212353515625,-0.30158233642578125,-1.2805722951889038,0.23496031761169434
1782776455509133300,2.13213330078125,-0.4328594207763672,-1.3137786388397217,-0.22832989692687988
1782776455519143000,2.142142822265625,-0.5849666595458984,-1.307448387145996,-0.5487837791442871
1782776455529152800,2.15215283203125,-0.7119779586791992,-1.2037566900253296,-0.7224701642990112
1782776455539132200,2.162132080078125,-0.8046331405639648,-1.046067476272583,-0.7224316596984863
1782776455549141800,2.172141845703125,-0.8587760925292969,-0.8385436534881592,-0.5226074457168579
1782776455559151600,2.182151611328125,-0.8873920440673828,-0.6231250762939453,-0.11320137977600098
1782776455569130800,2.192130859375,-0.9547948837280273,-0.40767931938171387,0.33945250511169434
1782776455579140600,2.202140625,-1.0734777450561523,-0.27128052711486816,0.7724974155426025
1782776455589150200,2.212150146484375,-1.2400221824645996,-0.1655580997467041,0.9465529918670654
1782776455599129600,2.222129638671875,-1.4392714500427246,-0.13878679275512695,1.0189940929412842
1782776455609139500,2.232139404296875,-1.7135887145996094,-0.2007303237915039,0.9771378040313721
1782776455619149000,2.242149169921875,-2.0143117904663086,-0.2769927978515625,0.8506326675415039
1782776455629128400,2.25212841796875,-2.213404655456543,-0.3668966293334961,0.6549365520477295
1782776455639138300,2.26213818359375,-2.4002819061279297,-0.4647209644317627,0.4153268337249756
1782776455649148000,2.27214794921875,-2.4750399589538574,-0.5736546516418457,0.19193363189697266
1782776455659127000,2.282126953125,-2.479132652282715,-0.6486053466796875,-0.04862022399902344
1782776455669137000,2.292136962890625,-2.3697781562805176,-0.6864972114562988,-0.2702455520629883
1782776455679146500,2.302146484375,-2.238051414489746,-0.7349793910980225,-0.46572279930114746
1782776455689126000,2.3121259765625,-1.9759230613708496,-0.7686710357666016,-0.7209823131561279
1782776455699135700,2.3221357421875,-1.728652000427246,-0.745736837387085,-0.8816264867782593
1782776455709145300,2.332145263671875,-1.6170520782470703,-0.7378373146057129,-1.0669797658920288
1782776455719124700,2.342124755859375,-1.5565705299377441,-0.7135939598083496,-1.2363184690475464
1782776455729134600,2.352134521484375,-1.4797945022583008,-0.7215626239776611,-1.4308596849441528
1782776455739144200,2.362144287109375,-1.276207447052002,-0.7035913467407227,-1.6437093019485474
1782776455749123600,2.37212353515625,-1.0125741958618164,-0.6706559658050537,-1.8202275037765503
1782776455759133200,2.38213330078125,-0.5904245376586914,-0.6223850250244141,-1.9171297550201416
1782776455769143000,2.39214306640625,-0.1801280975341797,-0.5369417667388916,-1.9380191564559937
1782776455779152600,2.402152587890625,0.2661581039428711,-0.5250883102416992,-1.9177029132843018
1782776455789132000,2.412132080078125,0.7023839950561523,-0.5172722339630127,-1.9350357055664062
1782776455799142000,2.422141845703125,1.1376447677612305,-0.35252833366394043,-2.212118625640869
1782776455809151500,2.4321513671875,1.4992914199829102,-0.054505348205566406,-2.6277265548706055
1782776455819131000,2.442130859375,1.79693603515625,0.1786055564880371,-2.848193407058716
1782776455829039900,2.452039794921875,1.8631534576416016,0.2562131881713867,-2.782630443572998
1782776455839150300,2.462150390625,1.8022699356079102,0.1694486141204834,-2.4646410942077637
1782776455849129700,2.472129638671875,1.6846189498901367,-0.011467695236206055,-1.893826961517334
1782776455859139300,2.482139404296875,1.8087310791015625,-0.22156763076782227,-1.1764079332351685
1782776455869149200,2.492149169921875,2.4264793395996094,-0.19062542915344238,-0.35601210594177246
1782776455879128600,2.502128662109375,3.398294448852539,-0.057086944580078125,0.4497276544570923
1782776455889138200,2.51213818359375,4.565757751464844,0.21138429641723633,1.2016048431396484
1782776455899147800,2.522147705078125,5.779519081115723,0.39835190773010254,1.9009193181991577
1782776455909127200,2.532127197265625,6.451798439025879,0.36339354515075684,2.0608811378479004
1782776455919137000,2.542136962890625,6.592563629150391,0.12379074096679688,1.6646244525909424
1782776455929146600,2.552146728515625,6.111345291137695,-0.245833158493042,0.8901658058166504
1782776455939126000,2.5621259765625,4.930483818054199,-0.606366753578186,0.03868365287780762
1782776455949136000,2.572135986328125,3.496108055114746,-0.8621476888656616,-0.7070581912994385
1782776455959145700,2.582145751953125,2.145143508911133,-1.0144981145858765,-1.2228553295135498
1782776455969124600,2.59212451171875,1.0178470611572266,-1.0013474225997925,-1.5849292278289795
1782776455979134500,2.602134521484375,0.06945323944091797,-0.9538319110870361,-1.7172592878341675
1782776455989144000,2.61214404296875,-0.7473001480102539,-0.8535411357879639,-1.695248007774353
1782776455999123500,2.62212353515625,-1.5591926574707031,-0.6947979927062988,-1.6643141508102417
1782776456009133300,2.63213330078125,-2.19619083404541,-0.5382864475250244,-1.7080767154693604
1782776456019143000,2.642142822265625,-2.6895389556884766,-0.3698413372039795,-1.6691244840621948
1782776456029152800,2.65215283203125,-3.111158847808838,-0.26596975326538086,-1.4680811166763306
1782776456039132200,2.662132080078125,-3.3084983825683594,-0.2705106735229492,-0.9160131812095642
1782776456049141800,2.672141845703125,-3.476118564605713,-0.32088518142700195,-0.07959258556365967
1782776456059151600,2.682151611328125,-3.089750289916992,-0.3251988887786865,0.7207443714141846
1782776456069130800,2.692130859375,-2.098911762237549,-0.15772628784179688,1.6337699890136719
1782776456079140600,2.702140625,-0.7894754409790039,-0.007706165313720703,2.3864827156066895
1782776456089150200,2.712150146484375,0.7342319488525391,-0.047696590423583984,2.9455666542053223
1782776456099129600,2.722129638671875,2.2750768661499023,-0.3617110252380371,3.091203212738037
1782776456109139500,2.732139404296875,3.5025510787963867,-0.8336498737335205,2.5673110485076904
1782776456119149000,2.742149169921875,3.8774824142456055,-1.3958756923675537,1.552422046661377
1782776456129128400,2.75212841796875,3.599061965942383,-1.864267349243164,0.4157297611236572
1782776456139138300,2.76213818359375,2.9524688720703125,-2.276027202606201,-0.6217342615127563
1782776456149148000,2.77214794921875,2.2806501388549805,-2.4391109943389893,-1.255744457244873
1782776456159127000,2.782126953125,1.7523536682128906,-2.477762222290039,-1.6021686792373657
1782776456169137000,2.792136962890625,1.2579450607299805,-2.4366347789764404,-1.7387409210205078
1782776456179146500,2.802146484375,0.6488237380981445,-2.364051342010498,-1.5743818283081055
1782776456189126000,2.8121259765625,0.04114341735839844,-2.2417147159576416,-1.2103914022445679
1782776456199135700,2.8221357421875,-0.5239734649658203,-2.0307393074035645,-0.8023068904876709
1782776456209145300,2.832145263671875,-1.1228785514831543,-1.7710202932357788,-0.2469642162322998
1782776456219124700,2.842124755859375,-1.5604853630065918,-1.6118285655975342,0.32384371757507324
1782776456229134600,2.852134521484375,-1.8098201751708984,-1.5032389163970947,0.8101654052734375
1782776456239144200,2.862144287109375,-1.703923225402832,-1.3875670433044434,1.2411644458770752
1782776456249123300,2.872123291015625,-1.3996872901916504,-1.3926708698272705,1.6272540092468262
1782776456259133200,2.88213330078125,-0.9846405982971191,-1.4347994327545166,1.9960238933563232
1782776456269143000,2.89214306640625,-0.5027427673339844,-1.5520453453063965,2.1949687004089355
1782776456279152600,2.902152587890625,0.021012306213378906,-1.7197785377502441,2.2582695484161377
1782776456289132000,2.912132080078125,0.4754915237426758,-1.9595342874526978,2.173091173171997
1782776456299141600,2.9221416015625,0.7638130187988281,-2.223987579345703,1.966127634048462
1782776456309151500,2.9321513671875,0.8524103164672852,-2.504096031188965,1.747610092163086
1782776456319131000,2.942130859375,0.7640838623046875,-2.676077127456665,1.5361254215240479
1782776456329140500,2.952140380859375,0.5615978240966797,-2.816586494445801,1.403820276260376
1782776456339150300,2.962150390625,0.24977684020996094,-2.9580202102661133,1.317507266998291
1782776456349129700,2.972129638671875,-0.11666202545166016,-3.029232978820801,1.2684390544891357
1782776456359139300,2.982139404296875,-0.45508575439453125,-3.03470516204834,1.2986857891082764
1782776456369149200,2.992149169921875,-0.7311453819274902,-3.0086960792541504,1.3920974731445312
1782776456379128600,3.002128662109375,-0.958655834197998,-2.9727208614349365,1.5011041164398193
1782776456389138000,3.012137939453125,-1.1894760131835938,-2.956841468811035,1.500495195388794
1782776456399147800,3.022147705078125,-1.4255566596984863,-2.9506611824035645,1.3771400451660156
1782776456409127200,3.032127197265625,-1.645860195159912,-2.8171091079711914,0.9394373893737793
1782776456419137000,3.042136962890625,-1.9509339332580566,-2.7711377143859863,0.49242210388183594
1782776456429146600,3.052146728515625,-2.3064050674438477,-2.784135580062866,0.36058640480041504
1782776456439126000,3.0621259765625,-2.9612441062927246,-2.745439052581787,0.5765750408172607
1782776456449135900,3.072135986328125,-3.6379151344299316,-2.6009583473205566,1.088365077972412
1782776456459145500,3.0821455078125,-4.135896682739258,-2.4638311862945557,1.8854939937591553
1782776456469124600,3.09212451171875,-4.427837371826172,-2.43257212638855,2.921543836593628
1782776456479134500,3.102134521484375,-4.228460311889648,-2.4876973628997803,4.113049507141113
1782776456489144000,3.11214404296875,-3.4181151390075684,-2.6890926361083984,5.049468994140625
1782776456499123500,3.12212353515625,-1.7859225273132324,-2.982435941696167,5.356034278869629
1782776456509133300,3.13213330078125,0.004974365234375,-3.8000500202178955,5.834481716156006
1782776456519143000,3.142142822265625,1.6602468490600586,-4.461272716522217,6.023073673248291
1782776456529152800,3.15215283203125,3.0717086791992188,-5.0383195877075195,5.301263332366943
1782776456539132200,3.162132080078125,3.794100761413574,-5.404444217681885,4.242766380310059
1782776456549141800,3.172141845703125,4.02702522277832,-5.616297721862793,3.004298686981201
1782776456559151600,3.182151611328125,3.9756860733032227,-5.754892826080322,1.9042012691497803
1782776456569130800,3.192130859375,3.774521827697754,-5.9043169021606445,0.9768130779266357
1782776456579140600,3.202140625,3.6205129623413086,-6.017053604125977,0.259793758392334
1782776456589150200,3.212150146484375,3.5309648513793945,-5.910292625427246,-0.1801462173461914
1782776456599129600,3.222129638671875,3.3890371322631836,-5.672172546386719,-0.2516348361968994
1782776456609139500,3.232139404296875,3.2173643112182617,-5.254393100738525,0.008542299270629883
1782776456619149000,3.242149169921875,2.853806495666504,-4.705021381378174,0.5278422832489014
1782776456629128400,3.25212841796875,2.1905298233032227,-4.160518169403076,1.0235841274261475
1782776456639138300,3.26213818359375,1.6056318283081055,-3.8366260528564453,1.4225313663482666
1782776456649148000,3.27214794921875,0.9224014282226562,-3.7370550632476807,1.6708576679229736
1782776456659127000,3.282126953125,0.25266075134277344,-3.7723259925842285,1.713097095489502
1782776456669137000,3.292136962890625,-0.2917613983154297,-3.864417552947998,1.5287065505981445
1782776456679146500,3.302146484375,-0.5630817413330078,-3.9683940410614014,1.2085776329040527
1782776456689126000,3.3121259765625,-0.5876283645629883,-4.096545696258545,0.8840556144714355
1782776456699135700,3.3221357421875,-0.37248992919921875,-4.2453813552856445,0.545835018157959
1782776456709145300,3.332145263671875,0.1601724624633789,-4.298272132873535,0.30341029167175293
1782776456719124700,3.342124755859375,0.8327112197875977,-4.321111679077148,0.22455334663391113
1782776456729134600,3.352134521484375,1.5223588943481445,-4.345305442810059,0.2690155506134033
1782776456739144400,3.36214453125,2.1993045806884766,-4.401645183563232,0.2890753746032715
1782776456749123600,3.37212353515625,2.8288068771362305,-4.431522846221924,0.29232168197631836
1782776456759133200,3.38213330078125,3.377950668334961,-4.4515461921691895,0.401383638381958
1782776456769143000,3.39214306640625,3.9359703063964844,-4.409662246704102,0.5169906616210938
1782776456779152600,3.402152587890625,4.445154190063477,-4.314404487609863,0.6410462856292725
1782776456789132000,3.412132080078125,4.822831153869629,-4.190719127655029,0.734544038772583
1782776456799142000,3.422141845703125,5.043051719665527,-4.115305423736572,0.6367685794830322
1782776456809151500,3.4321513671875,5.008790969848633,-3.9858345985412598,0.4437403678894043
1782776456819131000,3.442130859375,4.737783432006836,-3.8504443168640137,0.1438751220703125
1782776456829140500,3.452140380859375,4.200407028198242,-3.7252697944641113,-0.12048602104187012
1782776456839150300,3.462150390625,3.114187240600586,-3.565598487854004,-0.3004884719848633
1782776456849129700,3.472129638671875,1.9880809783935547,-3.3768386840820312,-0.48668885231018066
1782776456859139300,3.482139404296875,0.8509511947631836,-3.174362897872925,-0.6757631301879883
1782776456869149200,3.492149169921875,-0.13757801055908203,-2.9943811893463135,-0.8004758358001709
1782776456879128600,3.502128662109375,-0.9950337409973145,-2.787170886993408,-0.7889223098754883
1782776456889138200,3.51213818359375,-1.7356047630310059,-2.620953321456909,-0.7904419898986816
1782776456899147800,3.522147705078125,-2.3163719177246094,-2.441737413406372,-0.7314643859863281
1782776456909127200,3.532127197265625,-2.742802143096924,-2.2850513458251953,-0.6969127655029297
1782776456919136800,3.54213671875,-3.0370101928710938,-2.111332416534424,-0.6322014331817627
1782776456929146600,3.552146728515625,-3.125594139099121,-1.9187390804290771,-0.5880022048950195
1782776456939126000,3.5621259765625,-2.970672607421875,-1.7456356287002563,-0.5164730548858643
1782776456949136000,3.572135986328125,-2.608766555786133,-1.5548685789108276,-0.39899158477783203
1782776456959145500,3.5821455078125,-2.1335268020629883,-1.4136123657226562,-0.19457411766052246
1782776456969124600,3.59212451171875,-1.6003336906433105,-1.220170497894287,-0.013485431671142578
1782776456979134500,3.602134521484375,-1.0328888893127441,-1.0124561786651611,0.21047115325927734
1782776456989144000,3.61214404296875,-0.40491485595703125,-0.8521084785461426,0.4009883403778076
1782776456999123500,3.62212353515625,0.1501598358154297,-0.720308780670166,0.6240267753601074
1782776457009133300,3.63213330078125,0.6543264389038086,-0.5962798595428467,0.8105392456054688
1782776457019143000,3.642142822265625,1.0578737258911133,-0.46915483474731445,0.9201624393463135
1782776457029152800,3.65215283203125,1.286808967590332,-0.35919785499572754,0.9922959804534912
1782776457039132200,3.662132080078125,1.2714118957519531,-0.28925490379333496,1.005664348602295
1782776457049142300,3.672142333984375,0.9984378814697266,-0.2558567523956299,0.9542136192321777
1782776457059151600,3.682151611328125,0.6423406600952148,-0.22916007041931152,0.8371275663375854
1782776457069130800,3.692130859375,0.21344280242919922,-0.22702860832214355,0.702163577079773
1782776457079140600,3.702140625,-0.11377906799316406,-0.22921466827392578,0.5906562805175781
1782776457089150200,3.712150146484375,-0.31362247467041016,-0.2138214111328125,0.48187732696533203
1782776457099129600,3.722129638671875,-0.25516319274902344,-0.2117142677307129,0.4012051820755005
1782776457109139500,3.732139404296875,-0.10913562774658203,-0.20686578750610352,0.39722728729248047
1782776457119149000,3.742149169921875,0.016422271728515625,-0.3358774185180664,0.5145435333251953
1782776457129128400,3.75212841796875,-0.027474403381347656,-0.46073484420776367,0.6379196643829346
1782776457139138300,3.76213818359375,-0.1910686492919922,-0.5288000106811523,0.5812609195709229
1782776457149148000,3.77214794921875,-0.3957033157348633,-0.5877177715301514,0.3678361177444458
1782776457159127000,3.782126953125,-0.5411911010742188,-0.751356840133667,0.1870872974395752
1782776457169137000,3.792136962890625,-0.6742954254150391,-0.711284875869751,-0.11741995811462402
1782776457179146500,3.802146484375,-0.6277647018432617,-0.8084912300109863,-0.20701825618743896
1782776457189126000,3.8121259765625,-0.533024787902832,-0.9063935279846191,-0.3352165222167969
1782776457199135700,3.8221357421875,-0.30840492248535156,-1.0144730806350708,-0.4701904058456421
1782776457209145300,3.832145263671875,-0.052898406982421875,-1.1501984596252441,-0.638100266456604
1782776457219124700,3.842124755859375,0.15431785583496094,-1.2026363611221313,-0.7604222297668457
1782776457229134600,3.852134521484375,0.3921489715576172,-1.430972933769226,-0.9596420526504517
1782776457239144200,3.862144287109375,0.5639266967773438,-1.5784118175506592,-1.2087271213531494
1782776457249123600,3.87212353515625,0.6649866104125977,-1.6465593576431274,-1.4820857048034668
1782776457259133200,3.88213330078125,0.6189918518066406,-1.6126465797424316,-1.769712209701538
1782776457269143000,3.89214306640625,0.4335174560546875,-1.4160610437393188,-2.1093878746032715
1782776457279152600,3.902152587890625,0.05418109893798828,-1.1704145669937134,-2.2323484420776367
1782776457289132000,3.912132080078125,-0.4989013671875,-0.8145198822021484,-1.902793288230896
1782776457299141600,3.9221416015625,-0.9211807250976562,-0.531247615814209,-1.4106285572052002
1782776457309151500,3.9321513671875,-1.3079595565795898,-0.2583615779876709,-0.5449449419975281
1782776457319131000,3.942130859375,-1.4283928871154785,0.09907245635986328,0.2701530456542969
1782776457329140700,3.952140625,-1.0951690673828125,0.44074225425720215,0.791872501373291
1782776457339150300,3.962150390625,-0.37582969665527344,0.6569228172302246,0.9877532720565796
1782776457349129700,3.972129638671875,0.4295978546142578,0.6944046020507812,0.9385757446289062
1782776457359139300,3.982139404296875,1.0066356658935547,0.6685168743133545,0.6645232439041138
1782776457369149200,3.992149169921875,1.2732458114624023,0.7815372943878174,0.022856473922729492
1782776457379128300,4.00212841796875,0.9879465103149414,0.8811640739440918,-0.7204886674880981
1782776457389138200,4.01213818359375,0.20191669464111328,0.9063928127288818,-1.4347004890441895
1782776457399147800,4.022147705078125,-0.9090328216552734,1.0231537818908691,-1.9928874969482422
1782776457409127200,4.032127197265625,-1.7552242279052734,1.3608083724975586,-2.4351556301116943
1782776457419136800,4.04213671875,-2.391061782836914,1.6944308280944824,-2.5530829429626465
1782776457429146600,4.052146728515625,-2.7282867431640625,1.9545080661773682,-2.281843423843384
1782776457439126000,4.0621259765625,-2.8176651000976562,2.166177988052368,-1.7489286661148071
1782776457449135900,4.072135986328125,-2.4872708320617676,2.438227891921997,-0.8767247200012207
1782776457459145700,4.082145751953125,-1.7671775817871094,2.681103467941284,-0.13841605186462402
1782776457469124600,4.09212451171875,-0.8019514083862305,2.7241408824920654,0.350902795791626
1782776457479134500,4.102134521484375,0.29951953887939453,2.5953097343444824,0.602220892906189
1782776457489144000,4.11214404296875,1.2722434997558594,2.4770219326019287,0.613828182220459
1782776457499123500,4.12212353515625,2.087569236755371,2.333097219467163,0.5057474374771118
1782776457509133300,4.13213330078125,2.571165084838867,2.1311824321746826,0.13041234016418457
1782776457519143000,4.142142822265625,2.7811241149902344,1.965245246887207,-0.4237724542617798
1782776457529152800,4.15215283203125,2.749575614929199,1.8334542512893677,-1.0305182933807373
1782776457539132200,4.162132080078125,2.4494571685791016,1.6979587078094482,-1.4857538938522339
1782776457549141800,4.172141845703125,1.8486957550048828,1.5868862867355347,-1.6696828603744507
1782776457559151600,4.182151611328125,1.0756187438964844,1.5693683624267578,-1.733771800994873
1782776457569130800,4.192130859375,0.2914400100708008,1.624070644378662,-1.7002962827682495
1782776457579140600,4.202140625,-0.5079269409179688,1.6828863620758057,-1.6122933626174927
1782776457589150200,4.212150146484375,-1.1071643829345703,1.6843409538269043,-1.5098888874053955
1782776457599129600,4.222129638671875,-1.532994270324707,1.6558048725128174,-1.4922362565994263
1782776457609139500,4.232139404296875,-1.8676443099975586,1.593740701675415,-1.5620602369308472
1782776457619149000,4.242149169921875,-2.028306007385254,1.451729416847229,-1.5652110576629639
1782776457629128400,4.25212841796875,-2.0922274589538574,1.3099582195281982,-1.5546345710754395
1782776457639138300,4.26213818359375,-2.0317554473876953,1.2042884826660156,-1.531360149383545
1782776457649148000,4.27214794921875,-1.8904428482055664,1.0800886154174805,-1.4432785511016846
1782776457659127000,4.282126953125,-1.5870461463928223,1.0472970008850098,-1.2513483762741089
1782776457669137000,4.292136962890625,-1.2603168487548828,1.0064263343811035,-1.0095906257629395
1782776457679146500,4.302146484375,-0.9005260467529297,0.9605870246887207,-0.6825783252716064
1782776457689126000,4.3121259765625,-0.6151571273803711,0.9291694164276123,-0.29197394847869873
1782776457699135700,4.3221357421875,-0.38724231719970703,0.9106869697570801,0.038988351821899414
1782776457709145300,4.332145263671875,-0.2405414581298828,0.8349864482879639,0.2694701552391052
1782776457719124700,4.342124755859375,-0.10790538787841797,0.7734334468841553,0.45455116033554077
1782776457729134600,4.352134521484375,-0.01808452606201172,0.7379512786865234,0.5443399548530579
1782776457739144400,4.36214453125,0.06228351593017578,0.6665983200073242,0.6260007619857788
1782776457749123600,4.37212353515625,0.14535999298095703,0.15894818305969238,0.5980439186096191
1782776457759133200,4.38213330078125,0.13018035888671875,-0.18039536476135254,0.4707672595977783
1782776457769143000,4.39214306640625,-0.041954994201660156,-0.3320779800415039,0.22293227910995483
1782776457779152600,4.402152587890625,-0.2865724563598633,-0.428328275680542,-0.09915322065353394
1782776457789132000,4.412132080078125,-0.567683219909668,-0.401918888092041,-0.34553104639053345
1782776457799142000,4.422141845703125,-0.7641448974609375,-0.4159057140350342,-0.4558410048484802
1782776457809151500,4.4321513671875,-1.0283174514770508,-0.37187743186950684,-0.4751274585723877
1782776457819131000,4.442130859375,-1.3052902221679688,-0.2819974422454834,-0.47001874446868896
1782776457829140500,4.452140380859375,-1.5584168434143066,-0.17288875579833984,-0.4180057644844055
1782776457839150300,4.462150390625,-1.6858186721801758,-0.0629279613494873,-0.3606971502304077
1782776457849129700,4.472129638671875,-1.6910591125488281,0.08600068092346191,-0.2713892459869385
1782776457859139600,4.4821396484375,-1.622206211090088,0.1792316436767578,-0.2274225950241089
1782776457869149200,4.492149169921875,-1.4793457984924316,0.26747632026672363,-0.15642207860946655
1782776457879128300,4.50212841796875,-1.2265186309814453,0.3745551109313965,-0.10281229019165039
1782776457889138000,4.512137939453125,-0.9090824127197266,0.4451160430908203,-0.08257782459259033
1782776457899147800,4.522147705078125,-0.5957956314086914,0.5072145462036133,-0.1314866542816162
1782776457909127200,4.532127197265625,-0.38657665252685547,0.6577601432800293,-0.19694387912750244
1782776457919137000,4.542136962890625,-0.18064212799072266,0.7543773651123047,-0.1458374261856079
1782776457929146600,4.552146728515625,0.04840087890625,0.8783667087554932,-0.03772413730621338
1782776457939126000,4.5621259765625,0.2982015609741211,0.9860446453094482,-0.007877945899963379
1782776457949136000,4.572135986328125,0.602264404296875,1.100776195526123,-0.06463444232940674
1782776457959145500,4.5821455078125,0.8023767471313477,1.205146074295044,-0.08033144474029541
1782776457969124600,4.59212451171875,1.078333854675293,1.081622838973999,0.11985421180725098
1782776457979134500,4.602134521484375,1.3911199569702148,1.1847879886627197,0.2678285837173462
1782776457989144000,4.61214404296875,1.7634267807006836,1.5010836124420166,0.1727750301361084
1782776457999123500,4.62212353515625,1.8345985412597656,2.012129068374634,0.12975084781646729
1782776458009133300,4.63213330078125,1.4780683517456055,2.221412181854248,0.363918662071228
1782776458019143000,4.642142822265625,0.9441795349121094,2.143028497695923,0.5344388484954834
1782776458029152800,4.65215283203125,0.4531745910644531,2.0382158756256104,0.5595669746398926
1782776458039132200,4.662132080078125,0.36409473419189453,1.8477866649627686,0.6200423240661621
1782776458049141800,4.672141845703125,0.8693647384643555,1.5232172012329102,0.9179360866546631
1782776458059151600,4.682151611328125,2.2075042724609375,0.9593605995178223,1.1106822490692139
1782776458069130800,4.692130859375,3.905453681945801,0.32015180587768555,1.2602403163909912
1782776458079140600,4.702140625,5.728219032287598,-0.27585768699645996,1.2037827968597412
1782776458089150200,4.712150146484375,7.293759346008301,-0.7809488773345947,0.8845539093017578
1782776458099129600,4.722129638671875,8.332549095153809,-1.194916844367981,0.6253395080566406
1782776458109139500,4.732139404296875,8.651042938232422,-1.5667431354522705,0.2222428321838379
1782776458119149000,4.742149169921875,8.248823165893555,-1.8475048542022705,-0.19252586364746094
1782776458129128400,4.75212841796875,7.094293594360352,-2.1312355995178223,-0.6812772750854492
1782776458139138300,4.76213818359375,5.276772499084473,-2.3865654468536377,-1.0266244411468506
1782776458149148000,4.77214794921875,3.4053869247436523,-2.570866346359253,-1.3247727155685425
1782776458159127000,4.782126953125,1.6568822860717773,-2.7492218017578125,-1.5203993320465088
1782776458169137000,4.792136962890625,0.07921409606933594,-2.9065206050872803,-1.4819494485855103
1782776458179146500,4.802146484375,-1.294205665588379,-2.9726576805114746,-1.3924652338027954
1782776458189126000,4.8121259765625,-2.3085827827453613,-2.9722468852996826,-1.3949284553527832
1782776458199135700,4.8221357421875,-2.9538660049438477,-2.9761528968811035,-1.3249945640563965
1782776458209145300,4.832145263671875,-3.258312225341797,-2.8822641372680664,-1.2634670734405518
1782776458219124700,4.842124755859375,-3.2893028259277344,-2.8092763423919678,-1.2189061641693115
1782776458229134600,4.852134521484375,-3.188450813293457,-2.7406411170959473,-1.0672314167022705
1782776458239144400,4.86214453125,-2.9780921936035156,-2.662382125854492,-0.8777983784675598
1782776458249123600,4.87212353515625,-2.9100356101989746,-2.564160108566284,-0.5190639495849609
1782776458259133200,4.88213330078125,-3.011789321899414,-2.426863670349121,-0.11209332942962646
1782776458269143000,4.89214306640625,-2.9783859252929688,-2.2148568630218506,0.131699800491333
1782776458279152600,4.902152587890625,-2.832339286804199,-2.0269412994384766,0.44015932083129883
1782776458289132000,4.912132080078125,-2.6527810096740723,-1.9111132621765137,0.6322890520095825
1782776458299141600,4.9221416015625,-2.429708957672119,-1.83176589012146,0.7407023906707764
1782776458309151500,4.9321513671875,-2.1547765731811523,-1.8167212009429932,0.6664060354232788
1782776458319131000,4.942130859375,-1.6682476997375488,-1.850372314453125,0.42639124393463135
1782776458329140700,4.952140625,-1.2239494323730469,-1.8499116897583008,0.1600557565689087
1782776458339150300,4.962150390625,-0.9096865653991699,-1.7527046203613281,0.051274657249450684
1782776458349129700,4.972129638671875,-0.5357389450073242,-1.6517333984375,-0.09176361560821533
1782776458359139600,4.9821396484375,-0.3524799346923828,-1.4900262355804443,-0.2255779504776001
1782776458369149200,4.992149169921875,-0.16422367095947266,-1.4025404453277588,-0.30639803409576416
1782776458379128600,5.002128662109375,-0.09108924865722656,-1.2303316593170166,-0.20766746997833252
1782776458389138200,5.01213818359375,-0.2257223129272461,-0.994633674621582,0.010206103324890137
1782776458399147800,5.022147705078125,-0.3235130310058594,-0.7402248382568359,0.28537940979003906
1782776458409127200,5.032127197265625,-0.614781379699707,-0.46441650390625,0.644930362701416
1782776458419136800,5.04213671875,-0.9293327331542969,-0.17035913467407227,0.913469672203064
1782776458429146600,5.052146728515625,-1.242281436920166,0.04424118995666504,1.024543285369873
1782776458439126000,5.0621259765625,-1.3229141235351562,0.1492455005645752,1.0162162780761719
1782776458449135900,5.072135986328125,-1.3858790397644043,0.17179059982299805,1.0812726020812988
1782776458459145700,5.082145751953125,-1.369798183441162,0.22629642486572266,1.0475873947143555
1782776458469124600,5.09212451171875,-1.3568520545959473,0.2564094066619873,0.9731303453445435
1782776458479134500,5.102134521484375,-1.4287781715393066,0.3172450065612793,0.8853117823600769
1782776458489144000,5.11214404296875,-1.4900436401367188,0.40786027908325195,0.7691062092781067
1782776458499123500,5.12212353515625,-1.4788169860839844,0.4486966133117676,0.6524936556816101
1782776458509133300,5.13213330078125,-1.4219088554382324,0.5328607559204102,0.5651583075523376
1782776458519143000,5.142142822265625,-1.1974120140075684,0.5177555084228516,0.3601580262184143
1782776458529152800,5.15215283203125,-0.8604841232299805,0.353346586227417,0.22099709510803223
1782776458539132200,5.162132080078125,-0.6759700775146484,0.28608131408691406,0.1778559684753418
1782776458549141800,5.172141845703125,-0.5372076034545898,0.24991679191589355,0.05503362417221069
1782776458559151600,5.182151611328125,-0.481719970703125,0.21551060676574707,-0.006566107273101807
1782776458569130800,5.192130859375,-0.33678531646728516,0.12275815010070801,-0.050864219665527344
1782776458579140600,5.202140625,-0.00833892822265625,0.09506368637084961,-0.11887085437774658
1782776458589150200,5.212150146484375,0.4605531692504883,-0.004956722259521484,-0.22512280941009521
1782776458599129600,5.222129638671875,1.1316680908203125,-0.13980770111083984,-0.2759658098220825
1782776458609139500,5.232139404296875,1.868112564086914,-0.2899177074432373,-0.2663050889968872
1782776458619149000,5.242149169921875,2.4337196350097656,-0.470106840133667,-0.4861658811569214
1782776458629128400,5.25212841796875,2.78131103515625,-0.4890258312225342,-1.0849627256393433
1782776458639138300,5.26213818359375,2.841318130493164,-0.44858789443969727,-1.9167364835739136
1782776458649148000,5.27214794921875,2.7037506103515625,-0.42024731636047363,-2.3863329887390137
1782776458659127000,5.282126953125,2.466824531555176,-0.3603239059448242,-2.426908254623413
1782776458669137000,5.292136962890625,2.080850601196289,-0.27520751953125,-1.6969168186187744
1782776458679146500,5.302146484375,1.7712593078613281,-0.40810489654541016,-0.5927190184593201
1782776458689126000,5.3121259765625,1.6715383529663086,-0.6993443965911865,0.45792168378829956
1782776458699135700,5.3221357421875,1.634293556213379,-0.9638810157775879,1.033141851425171
1782776458709145300,5.332145263671875,1.6700515747070312,-1.1418120861053467,1.1078640222549438
1782776458719124700,5.342124755859375,1.7777862548828125,-1.361661434173584,0.9172574877738953
1782776458729134600,5.352134521484375,1.8708524703979492,-1.5804717540740967,0.5857492089271545
1782776458739144400,5.36214453125,1.7799072265625,-1.8572973012924194,0.18101602792739868
1782776458749123600,5.37212353515625,1.6282615661621094,-2.073115825653076,-0.24331337213516235
1782776458759133200,5.38213330078125,1.4801750183105469,-2.2655248641967773,-0.5121438503265381
1782776458769143000,5.39214306640625,1.3972768783569336,-2.3494462966918945,-0.6689437627792358
1782776458779153000,5.40215283203125,1.2926263809204102,-2.33548903465271,-0.7252315282821655
1782776458789132000,5.412132080078125,0.9251441955566406,-2.2833032608032227,-0.7207949757575989
1782776458799141600,5.4221416015625,0.1374197006225586,-2.2765254974365234,-0.685019314289093
1782776458809151500,5.4321513671875,-0.7966299057006836,-2.2593908309936523,-0.938750147819519
1782776458819131000,5.442130859375,-1.4719958305358887,-2.111497163772583,-1.4848299026489258
1782776458829140700,5.452140625,-1.8528599739074707,-2.0147767066955566,-2.070956230163574
1782776458839150300,5.462150390625,-2.103153705596924,-2.0461559295654297,-2.4030275344848633
1782776458849129700,5.472129638671875,-2.131646156311035,-2.060840129852295,-2.4395461082458496
1782776458859139300,5.482139404296875,-1.8418035507202148,-2.023062229156494,-2.426630973815918
1782776458869149200,5.492149169921875,-1.2739787101745605,-2.047215461730957,-2.351454973220825
1782776458879128300,5.50212841796875,-0.6685619354248047,-2.080845594406128,-1.9406850337982178
1782776458889138000,5.512137939453125,-0.22037506103515625,-2.036522150039673,-1.2296247482299805
1782776458899147800,5.522147705078125,0.1721630096435547,-1.843183994293213,-0.6667779684066772
1782776458909127200,5.532127197265625,0.5020008087158203,-1.6312211751937866,-0.24154514074325562
1782776458919137000,5.542136962890625,0.807673454284668,-1.526681900024414,0.1753453016281128
1782776458929146600,5.552146728515625,1.0321989059448242,-1.4324707984924316,0.5384443998336792
1782776458939126000,5.5621259765625,1.245004653930664,-1.3773624897003174,0.5888618230819702
1782776458949136000,5.572135986328125,1.4063425064086914,-1.3601834774017334,0.3769102096557617
1782776458959145700,5.582145751953125,1.3857479095458984,-1.4387346506118774,0.018476247787475586
1782776458969124600,5.59212451171875,1.2421903610229492,-1.5626327991485596,-0.48758649826049805
1782776458979134500,5.602134521484375,0.9336099624633789,-1.653896689414978,-0.9894428253173828
1782776458989144000,5.61214404296875,0.5499305725097656,-1.66734778881073,-1.3863482475280762
1782776458999123500,5.62212353515625,0.05612754821777344,-1.631635069847107,-1.6736183166503906
1782776459009133300,5.63213330078125,-0.4765291213989258,-1.4998345375061035,-1.8038809299468994
1782776459019143000,5.642142822265625,-0.9740467071533203,-1.3178999423980713,-1.8314992189407349
1782776459029152800,5.65215283203125,-1.3836240768432617,-1.134436845779419,-1.7772321701049805
1782776459039132200,5.662132080078125,-1.7196455001831055,-1.0625791549682617,-1.7186955213546753
1782776459049141800,5.672141845703125,-1.8868656158447266,-1.0162279605865479,-1.7029953002929688
1782776459059151600,5.682151611328125,-1.786252498626709,-0.9532961845397949,-1.7410304546356201
1782776459069130800,5.692130859375,-1.4654655456542969,-0.9067397117614746,-1.6673413515090942
1782776459079140600,5.702140625,-0.9641542434692383,-0.8658664226531982,-1.5807775259017944
1782776459089150200,5.712150146484375,-0.41282081604003906,-0.9120004177093506,-1.5693608522415161
1782776459099129600,5.722129638671875,0.010309219360351562,-0.9750936031341553,-1.5868796110153198
1782776459109139500,5.732139404296875,0.25781822204589844,-0.9983630180358887,-1.6468756198883057
1782776459119149000,5.742149169921875,0.3445158004760742,-0.9814527034759521,-1.702713966369629
1782776459129128400,5.75212841796875,0.3850831985473633,-0.9793291091918945,-1.6649023294448853
1782776459139138300,5.76213818359375,0.41947269439697266,-0.9929392337799072,-1.582399606704712
1782776459149148000,5.77214794921875,0.5664358139038086,-1.0172805786132812,-1.5290075540542603
1782776459159127000,5.782126953125,0.7943391799926758,-1.0125410556793213,-1.490300178527832
1782776459169137000,5.792136962890625,0.7412528991699219,-0.624401330947876,-0.7103846669197083
1782776459179146500,5.802146484375,0.7076854705810547,-0.3231542110443115,-0.18178632855415344
1782776459189126000,5.8121259765625,0.6664237976074219,-0.13678216934204102,0.06240612268447876
1782776459199135700,5.8221357421875,0.6178617477416992,-0.03684878349304199,0.2934448719024658
1782776459209145300,5.832145263671875,0.5282068252563477,0.01670217514038086,0.580690860748291
1782776459219124700,5.842124755859375,0.3633909225463867,0.01979804039001465,0.8876614570617676
1782776459229134600,5.852134521484375,0.19735050201416016,0.01858353614807129,1.0797805786132812
1782776459239144400,5.86214453125,0.1026468276977539,0.04541444778442383,1.1856231689453125
1782776459249123600,5.87212353515625,0.15293216705322266,0.05565977096557617,1.1240828037261963
1782776459259133200,5.88213330078125,0.31540679931640625,0.3390159606933594,0.4908173084259033
1782776459269143000,5.89214306640625,0.5081939697265625,0.8611865043640137,-0.11039316654205322
1782776459279153000,5.90215283203125,0.6589040756225586,0.7848312854766846,0.04997020959854126
1782776459289132000,5.912132080078125,0.5457973480224609,0.42853832244873047,0.6049243211746216
1782776459299142000,5.922141845703125,0.2694063186645508,0.11591172218322754,1.187406063079834
1782776459309151500,5.9321513671875,0.06674385070800781,-0.11616325378417969,1.8395369052886963
1782776459319131000,5.942130859375,0.3104419708251953,-0.45469868183135986,2.2788338661193848
1782776459329140700,5.952140625,0.8868246078491211,-0.739177942276001,2.57314395904541
1782776459339150300,5.962150390625,1.7666568756103516,-0.9605756998062134,2.42504620552063
1782776459349129700,5.972129638671875,2.6811599731445312,-1.103712797164917,1.8680298328399658
1782776459359139600,5.9821396484375,3.2815494537353516,-1.260058879852295,1.1906955242156982
1782776459369149200,5.992149169921875,3.3154659271240234,-1.4538929462432861,0.5434410572052002
1782776459379128600,6.002128662109375,2.931429862976074,-1.5344538688659668,0.19454056024551392
1782776459389138000,6.012137939453125,2.325303077697754,-1.477998971939087,-0.006836831569671631
1782776459399147800,6.022147705078125,1.646529197692871,-1.3147507905960083,-0.044346630573272705
1782776459409127200,6.032127197265625,1.1635570526123047,-0.9944298267364502,-0.1135607361793518
1782776459419137000,6.042136962890625,0.8931474685668945,-0.7128612399101257,-0.12159454822540283
1782776459429146600,6.052146728515625,0.5308132171630859,-0.5269045829772949,0.01391756534576416
1782776459439126000,6.0621259765625,0.07829952239990234,-0.41181480884552,0.1261308193206787
1782776459449135900,6.072135986328125,-0.3717069625854492,-0.25145065784454346,0.23386484384536743
1782776459459145700,6.082145751953125,-0.7744922637939453,-0.13791894912719727,0.4254299998283386
1782776459469124600,6.09212451171875,-1.0252304077148438,-0.09092354774475098,0.7421264052391052
1782776459479134500,6.102134521484375,-1.3398962020874023,-0.11095261573791504,1.3734049797058105
1782776459489144000,6.11214404296875,-1.555790901184082,-0.18738484382629395,1.9933831691741943
1782776459499123500,6.12212353515625,-1.4960174560546875,-0.20546138286590576,2.5520670413970947
1782776459509133300,6.13213330078125,-1.0374879837036133,-0.21250200271606445,3.0014591217041016
1782776459519143000,6.142142822265625,-0.3512887954711914,-0.28071653842926025,3.177795886993408
1782776459529152800,6.15215283203125,0.44425106048583984,-0.4222831726074219,3.034534215927124
1782776459539132200,6.162132080078125,1.1118574142456055,-0.6378558874130249,2.581745147705078
1782776459549141800,6.172141845703125,1.4411954879760742,-0.8660566806793213,1.7621674537658691
1782776459559151600,6.182151611328125,1.3280324935913086,-1.0738375186920166,0.8641825318336487
1782776459569130800,6.192130859375,0.7622451782226562,-1.2597684860229492,0.15014785528182983
1782776459579140600,6.202140625,-0.1847095489501953,-1.3033173084259033,-0.30602335929870605
1782776459589150200,6.212150146484375,-1.0811901092529297,-1.1801435947418213,-0.6266145706176758
1782776459599129600,6.222129638671875,-1.8780951499938965,-0.9919238090515137,-0.7205204963684082
1782776459609139500,6.232139404296875,-2.4967660903930664,-0.7974529266357422,-0.5638972520828247
1782776459619149000,6.242149169921875,-2.9379892349243164,-0.5972608327865601,-0.31440573930740356
1782776459629128400,6.25212841796875,-3.2672438621520996,-0.3855210542678833,0.032746583223342896
1782776459639138300,6.26213818359375,-3.4905319213867188,-0.1313493251800537,0.2701347768306732
1782776459649148000,6.27214794921875,-3.5011134147644043,0.1136624813079834,0.49875402450561523
1782776459659127000,6.282126953125,-3.3076024055480957,0.28975987434387207,0.741108238697052
1782776459669137000,6.292136962890625,-3.0711445808410645,0.40582919120788574,0.9677729606628418
1782776459679146500,6.302146484375,-2.7395472526550293,0.44576311111450195,1.156599998474121
1782776459689126000,6.3121259765625,-2.3153414726257324,0.4833858013153076,1.2384710311889648
1782776459699135700,6.3221357421875,-1.9372730255126953,0.4385199546813965,1.3018798828125
1782776459709145300,6.332145263671875,-1.5712709426879883,0.37822461128234863,1.347482442855835
1782776459719124700,6.342124755859375,-1.3219976425170898,0.29276156425476074,1.3150131702423096
1782776459729134600,6.352134521484375,-1.1337852478027344,0.21579480171203613,1.1302578449249268
1782776459739144200,6.362144287109375,-1.0445756912231445,0.10289311408996582,0.9418514966964722
1782776459749123600,6.37212353515625,-0.9488420486450195,-0.02727794647216797,0.7301279902458191
1782776459759133200,6.38213330078125,-0.8249025344848633,-0.06709980964660645,0.5316997170448303
1782776459769143000,6.39214306640625,-0.6272735595703125,-0.08573746681213379,0.31468185782432556
1782776459779153000,6.40215283203125,-0.4564237594604492,-0.06661510467529297,0.10052132606506348
1782776459789132000,6.412132080078125,-0.24500083923339844,-0.07787275314331055,-0.13728000223636627
1782776459799141600,6.4221416015625,-0.050032615661621094,-0.042023658752441406,-0.3686757981777191
1782776459809151500,6.4321513671875,0.06995868682861328,-0.019896507263183594,-0.5509420037269592
1782776459819131000,6.442130859375,0.10344791412353516,0.0843806266784668,-0.5047590732574463
1782776459829140700,6.452140625,0.1553812026977539,0.14998197555541992,-0.34075668454170227
1782776459839150300,6.462150390625,0.277496337890625,0.2405860424041748,-0.12417685240507126
1782776459849129700,6.472129638671875,0.43645477294921875,0.3378736972808838,-0.016517415642738342
1782776459859139300,6.482139404296875,0.5361509323120117,0.3375725746154785,0.10317468643188477
1782776459869149200,6.492149169921875,0.6481504440307617,0.3625161647796631,0.2379218190908432
1782776459879128600,6.502128662109375,0.7650585174560547,0.34397149085998535,0.36314189434051514
1782776459889138200,6.51213818359375,0.9775381088256836,0.40038585662841797,-0.040551647543907166
1782776459899147800,6.522147705078125,1.084366798400879,0.8768677711486816,-1.0490227937698364
1782776459909127200,6.532127197265625,0.9059591293334961,1.1677489280700684,-1.6462069749832153
1782776459919136800,6.54213671875,0.6920137405395508,1.1821234226226807,-1.5403087139129639
1782776459929146600,6.552146728515625,0.5435867309570312,1.0262517929077148,-0.707870602607727
1782776459939126000,6.5621259765625,0.5607986450195312,0.8761436939239502,0.800330638885498
1782776459949136000,6.572135986328125,0.9177837371826172,0.7433347702026367,2.432776927947998
1782776459959145700,6.582145751953125,1.440328598022461,0.5638844966888428,3.539066791534424
1782776459969124600,6.59212451171875,2.3421058654785156,0.3487999439239502,3.735048532485962
1782776459979134500,6.602134521484375,3.4330129623413086,0.04510927200317383,3.3058366775512695
1782776459989144000,6.61214404296875,4.347044944763184,-0.47097134590148926,2.4960317611694336
1782776459999123500,6.62212353515625,4.83046817779541,-1.0235193967819214,1.5106854438781738
1782776460009133300,6.63213330078125,4.703441619873047,-1.4059693813323975,0.3998680114746094
1782776460019143000,6.642142822265625,4.019049644470215,-1.6366938352584839,-0.37563586235046387
1782776460029152800,6.65215283203125,2.903451919555664,-1.6394981145858765,-0.7080619931221008
1782776460039132200,6.662132080078125,1.646681785583496,-1.4420229196548462,-0.6787411570549011
1782776460049141800,6.672141845703125,0.46340084075927734,-1.1498658657073975,-0.3744104504585266
1782776460059151600,6.682151611328125,-0.5282402038574219,-0.9581646919250488,-0.0206453800201416
1782776460069130800,6.692130859375,-1.365823745727539,-0.776587963104248,0.0732969343662262
1782776460079140600,6.702140625,-2.0201921463012695,-0.5788445472717285,-0.18188509345054626
1782776460089150200,6.712150146484375,-2.4303479194641113,-0.4358184337615967,-0.6462978720664978
1782776460099129600,6.722129638671875,-2.676830291748047,-0.42360901832580566,-1.110327124595642
1782776460109139500,6.732139404296875,-2.7371110916137695,-0.5648918151855469,-1.4548449516296387
1782776460119149000,6.742149169921875,-2.517270088195801,-0.757085919380188,-1.665626049041748
1782776460129128400,6.75212841796875,-2.152428150177002,-1.0043450593948364,-1.4762873649597168
1782776460139138300,6.76213818359375,-1.8294763565063477,-1.272502064704895,-1.1576083898544312
1782776460149148000,6.77214794921875,-1.451960563659668,-1.489526391029358,-0.7734822630882263
1782776460159127000,6.782126953125,-0.9810943603515625,-1.6556837558746338,-0.40688014030456543
1782776460169137000,6.792136962890625,-0.48369598388671875,-1.7799652814865112,0.08293378353118896
1782776460179146500,6.802146484375,0.08096790313720703,-1.8920726776123047,0.553033709526062
1782776460189126000,6.8121259765625,0.5740957260131836,-1.9645061492919922,0.9118021726608276
1782776460199135700,6.8221357421875,1.113642692565918,-1.8956382274627686,1.063455581665039
1782776460209145300,6.832145263671875,1.7215557098388672,-1.8425519466400146,0.9427654147148132
1782776460219124700,6.842124755859375,2.223757743835449,-1.8365838527679443,0.5712981820106506
1782776460229134600,6.852134521484375,2.355860710144043,-1.854865550994873,0.1720603108406067
1782776460239144200,6.862144287109375,2.0463428497314453,-1.839690923690796,-0.2322876900434494
1782776460249123600,6.87212353515625,1.3076105117797852,-1.711815357208252,-0.4493745267391205
1782776460259133200,6.88213330078125,0.4472208023071289,-1.497276782989502,-0.4699742794036865
1782776460269143000,6.89214306640625,-0.251617431640625,-1.2784032821655273,-0.3162802457809448
1782776460279153000,6.90215283203125,-0.8501176834106445,-1.086139440536499,-0.06461018323898315
1782776460289132000,6.912132080078125,-1.3636064529418945,-0.9720008373260498,0.2354240119457245
1782776460299142000,6.922141845703125,-1.716507911682129,-0.8699923753738403,0.38953912258148193
1782776460309151500,6.9321513671875,-1.9851222038269043,-0.7896685600280762,0.4073549211025238
1782776460319131000,6.942130859375,-2.2252745628356934,-0.7655653953552246,0.3951791822910309
1782776460329140500,6.952140380859375,-2.3135452270507812,-0.7558600902557373,0.3259703516960144
1782776460339150300,6.962150390625,-2.33939790725708,-0.7459428310394287,0.2582745850086212
1782776460349129700,6.972129638671875,-2.2240138053894043,-0.7521326541900635,0.21350641548633575
1782776460359139600,6.9821396484375,-1.9531669616699219,-0.7430098056793213,0.1840604543685913
1782776460369149200,6.992149169921875,-1.6463775634765625,-0.7982873916625977,0.1504400670528412
1782776460379128300,7.00212841796875,-1.2910795211791992,-0.8242189884185791,0.12901803851127625
1782776460389138000,7.012137939453125,-0.9178333282470703,-0.8394184112548828,0.1651676893234253
1782776460399147800,7.022147705078125,-0.604884147644043,-0.8655370473861694,0.2495068907737732
1782776460409127200,7.032127197265625,-0.32538604736328125,-0.8586539030075073,0.3397226631641388
1782776460419137000,7.042136962890625,-0.19612884521484375,-0.8754724264144897,0.4442552924156189
1782776460429146600,7.052146728515625,-0.30497074127197266,-0.8969444036483765,0.5729509592056274
1782776460439126000,7.0621259765625,-0.44428539276123047,-0.8606785535812378,0.7562766075134277
1782776460449135900,7.072135986328125,-0.4543304443359375,-0.8386720418930054,0.7894707918167114
1782776460459145500,7.0821455078125,-0.4051065444946289,-0.8313378095626831,0.8725557923316956
1782776460469124600,7.09212451171875,-0.3112344741821289,-0.8232332468032837,0.9632554650306702
1782776460479134500,7.102134521484375,-0.13690948486328125,-0.7970653772354126,1.00462007522583
1782776460489144000,7.11214404296875,-0.04488945007324219,-0.7983609437942505,1.0852959156036377
1782776460499123500,7.12212353515625,0.08725166320800781,-0.83046555519104,1.1138161420822144
1782776460509133300,7.13213330078125,0.2548503875732422,-0.8267700672149658,0.9962015748023987
1782776460519143000,7.142142822265625,0.3720283508300781,-0.663866400718689,0.617308497428894
1782776460529152800,7.15215283203125,0.3100605010986328,-0.1427018642425537,-0.1874704211950302
1782776460539132200,7.162132080078125,-0.21912288665771484,0.37363529205322266,-0.8766557574272156
1782776460549141800,7.172141845703125,-1.0420541763305664,0.6168341636657715,-1.0117475986480713
1782776460559151600,7.182151611328125,-1.8720765113830566,0.5773031711578369,-0.39867082238197327
1782776460569130800,7.192130859375,-2.2556228637695312,0.37051844596862793,0.9311059713363647
1782776460579140600,7.202140625,-2.3740978240966797,-0.062476158142089844,2.8773691654205322
1782776460589150200,7.212150146484375,-1.563188076019287,-0.5754144191741943,4.303870677947998
1782776460599129600,7.222129638671875,0.07293128967285156,-1.0944957733154297,4.57893705368042
1782776460609139500,7.232139404296875,1.8834123611450195,-1.692861795425415,4.403975963592529
1782776460619149000,7.242149169921875,3.616823196411133,-2.292365312576294,3.5491342544555664
1782776460629128400,7.25212841796875,4.780096054077148,-2.6672184467315674,2.083974838256836
1782776460639138300,7.26213818359375,5.064750671386719,-2.9212279319763184,0.4649636149406433
1782776460649148000,7.27214794921875,4.3838300704956055,-2.958421230316162,-0.36087024211883545
1782776460659127000,7.282126953125,3.157956123352051,-2.8632397651672363,-0.5726590156555176
1782776460669133800,7.2921337890625,1.9021596908569336,-2.5639896392822266,-0.5386718511581421
1782776460679143400,7.302143310546875,0.7070674896240234,-2.15321683883667,-0.2393522560596466
1782776460689122800,7.312122802734375,-0.3345813751220703,-1.7873189449310303,0.3816540241241455
1782776460699132700,7.322132568359375,-1.1376523971557617,-1.4193825721740723,0.9489414691925049
1782776460709142300,7.332142333984375,-1.7152256965637207,-1.0887393951416016,1.3821101188659668
1782776460719121700,7.34212158203125,-2.116776466369629,-0.8289499282836914,1.7100543975830078
1782776460729131500,7.352131591796875,-2.274127960205078,-0.6763343214988708,2.020228862762451
1782776460739141400,7.362141357421875,-2.0766892433166504,-0.5537909269332886,2.4210920333862305
1782776460748844800,7.3718447265625,-1.7154464721679688,-0.4310702085494995,2.70007586479187
1782776460759130000,7.382130126953125,-1.0519790649414062,-0.38207876682281494,3.0367860794067383
1782776460769139700,7.3921396484375,-0.3966636657714844,-0.43655169010162354,3.3726963996887207
1782776460779149600,7.402149658203125,0.1899118423461914,-0.5816003084182739,3.6055774688720703
1782776460789129000,7.41212890625,0.7924175262451172,-0.8163442611694336,3.749880313873291
1782776460799138800,7.422138916015625,1.2793245315551758,-1.1006990671157837,3.9088470935821533
1782776460809148400,7.4321484375,1.5336036682128906,-1.393452525138855,3.8714137077331543
1782776460819127800,7.4421279296875,1.590712547302246,-1.6637672185897827,3.6151719093322754
1782776460829137400,7.452137451171875,1.6039085388183594,-1.8689943552017212,3.289886236190796
1782776460839147300,7.462147216796875,1.604475975036621,-2.009788990020752,2.896615982055664
1782776460849126400,7.47212646484375,1.5641117095947266,-2.2072830200195312,2.524301052093506
1782776460859136300,7.48213623046875,1.579422950744629,-2.347978115081787,2.3019120693206787
1782776460869146000,7.49214599609375,1.5026426315307617,-2.373782157897949,2.254981279373169
1782776460879125200,7.502125244140625,1.248128890991211,-2.303239345550537,2.367067813873291
1782776460889135000,7.512135009765625,0.8950910568237305,-2.2065207958221436,2.5948052406311035
1782776460899144700,7.522144775390625,0.5679893493652344,-2.089498996734619,2.794135093688965
1782776460909124000,7.5321240234375,0.24502182006835938,-2.0116806030273438,3.026984214782715
1782776460919133700,7.5421337890625,-0.07684135437011719,-1.9881377220153809,3.298867702484131
1782776460929143600,7.5521435546875,-0.3024253845214844,-2.03246808052063,3.505404233932495
1782776460939123000,7.562123046875,-0.26509761810302734,-2.1135785579681396,3.6549267768859863
1782776460949132800,7.5721328125,-0.013371467590332031,-2.2716987133026123,3.719151496887207
1782776460959142400,7.582142333984375,0.3564453125,-2.429253578186035,3.704890727996826
1782776460969121500,7.59212158203125,0.8393964767456055,-2.567974805831909,3.5565009117126465
1782776460979131400,7.60213134765625,1.3233108520507812,-2.688007354736328,3.3414955139160156
1782776460989141000,7.61214111328125,1.6007966995239258,-2.7178895473480225,3.0937676429748535
1782776460999120400,7.622120361328125,1.61541748046875,-2.7106447219848633,2.9138057231903076
1782776461009130200,7.632130126953125,1.3012571334838867,-2.6088476181030273,2.7362613677978516
1782776461019139800,7.642139892578125,0.774078369140625,-2.452589988708496,2.687974452972412
1782776461029149700,7.652149658203125,0.19215679168701172,-2.2454028129577637,2.70912504196167
1782776461039129000,7.662129150390625,-0.33957576751708984,-2.117075204849243,2.7926225662231445
1782776461049138700,7.672138671875,-0.6542644500732422,-2.0396244525909424,2.8377230167388916
1782776461059148500,7.6821484375,-0.8368682861328125,-1.9760541915893555,2.7139334678649902
1782776461069127700,7.692127685546875,-0.8765192031860352,-2.0037240982055664,2.4600319862365723
1782776461079137500,7.702137451171875,-0.9728364944458008,-2.0442497730255127,2.2630953788757324
1782776461089147100,7.712147216796875,-1.0849494934082031,-2.068288564682007,2.0068631172180176
1782776461099126500,7.72212646484375,-1.1817293167114258,-2.0588767528533936,1.6563186645507812
1782776461109136400,7.732136474609375,-1.3060846328735352,-1.3884968757629395,0.6029094457626343
1782776461119146000,7.74214599609375,-1.3538665771484375,-0.8764379024505615,-0.1012885570526123
1782776461129125400,7.75212548828125,-1.383030891418457,-0.6304321885108948,-0.5030918121337891
1782776461139135200,7.76213525390625,-1.386819839477539,-0.6210459470748901,-0.6122277975082397
1782776461149144800,7.772144775390625,-1.3924140930175781,-0.5019094944000244,-0.7532423734664917
1782776461159124000,7.7821240234375,-1.3273382186889648,-0.4668869972229004,-0.9082077741622925
1782776461169133800,7.7921337890625,-1.28192138671875,-0.47605007886886597,-1.1115806102752686
1782776461179143400,7.802143310546875,-1.280472755432129,-0.5068586468696594,-1.3029417991638184
1782776461189122800,7.812122802734375,-1.263474464416504,-0.5281561613082886,-1.44784677028656
1782776461199132700,7.822132568359375,-1.1256170272827148,-0.553117036819458,-1.6500722169876099
1782776461209142300,7.832142333984375,-0.9432954788208008,-0.5988273620605469,-1.8315589427947998
1782776461219121700,7.84212158203125,-0.7426462173461914,-0.7175584435462952,-1.895418405532837
1782776461229131500,7.852131591796875,-0.5209922790527344,-0.7452941536903381,-1.8757598400115967
1782776461239141400,7.862141357421875,-0.33254241943359375,-0.743454098701477,-1.7559232711791992
1782776461249120500,7.87212060546875,-0.15768718719482422,-0.7091923356056213,-1.4958364963531494
1782776461259130000,7.882130126953125,0.015066146850585938,-0.6586371660232544,-1.1444380283355713
1782776461269140000,7.892139892578125,0.27653026580810547,-0.590118408203125,-0.8898080587387085
1782776461279149600,7.902149658203125,0.4103097915649414,-0.46051907539367676,-0.9415469169616699
1782776461289129000,7.91212890625,0.2648954391479492,-0.15467381477355957,-1.3984646797180176
1782776461299138600,7.922138671875,-0.18674087524414062,0.007870078086853027,-2.000706672668457
1782776461309148400,7.9321484375,-0.706425666809082,0.058205246925354004,-2.1921780109405518
1782776461319127800,7.9421279296875,-1.013692855834961,0.1391136646270752,-1.9866522550582886
1782776461329137700,7.9521376953125,-0.917088508605957,0.273384690284729,-1.312816858291626
1782776461339147300,7.962147216796875,-0.47141075134277344,0.14387309551239014,-0.49804842472076416
1782776461349126700,7.972126708984375,0.32960987091064453,-0.25282609462738037,0.02975749969482422
1782776461359136300,7.98213623046875,1.193868637084961,-0.6720236539840698,-0.19386816024780273
1782776461369146000,7.99214599609375,1.8369083404541016,-0.9630594253540039,-0.9973659515380859
1782776461379125200,8.002125244140625,2.5024280548095703,-1.1261627674102783,-2.0290586948394775
1782776461389135000,8.012135009765625,2.056608200073242,-1.1413383483886719,-2.7260613441467285
1782776461399144700,8.022144775390625,1.5677309036254883,-1.1249842643737793,-3.84017276763916
1782776461409124000,8.0321240234375,1.009099006652832,-0.84336256980896,-5.030614852905273
1782776461419133700,8.0421337890625,0.5801858901977539,-0.5246986150741577,-5.334210395812988
1782776461429143600,8.0521435546875,0.4445657730102539,0.0010808706283569336,-5.065988540649414
1782776461439123000,8.062123046875,0.07520771026611328,0.49260878562927246,-4.461397171020508
1782776461449132800,8.0721328125,-0.38556861877441406,0.6788203716278076,-3.8363606929779053
