time,seconds_elapsed,z,y,x
1782776345569229300,0.186229248046875,0.036041051149368286,-0.6951646208763123,0.4434881806373596
1782776345579262700,0.1962626953125,0.012828170321881771,-0.6713408827781677,0.36102136969566345
1782776345589248800,0.206248779296875,-0.014049900695681572,-0.6389650702476501,0.2620611786842346
1782776345599251500,0.21625146484375,-0.04214970022439957,-0.6151412725448608,0.16554448008537292
1782776345609238000,0.226238037109375,-0.06841690838336945,-0.6041457056999207,0.07819075137376785
1782776345619271000,0.23627099609375,-0.09773843735456467,-0.6133087277412415,0.006108652334660292
1782776345629227000,0.24622705078125,-0.13011430203914642,-0.6102544069290161,-0.022602014243602753
1782776345639257900,0.2562578125,-0.13988813757896423,-0.5650503635406494,0.005497787147760391
1782776345649246200,0.26624609375,-0.1270599663257599,-0.5112941861152649,0.07452555745840073
1782776345659246800,0.276246826171875,-0.1062905490398407,-0.455705463886261,0.16920967400074005
1782776345669235500,0.2862353515625,-0.08857546001672745,-0.39767327904701233,0.2767219543457031
1782776345679266800,0.296266845703125,-0.06414084881544113,-0.36163222789764404,0.375071257352829
1782776345689224400,0.306224365234375,-0.039706241339445114,-0.33658674359321594,0.46792277693748474
1782776345699257600,0.316257568359375,-0.00855211354792118,-0.27977627515792847,0.5632177591323853
1782776345709244200,0.326244140625,0.0354301854968071,-0.21930062770843506,0.6591235995292664
1782776345719246600,0.33624658203125,0.048258353024721146,-0.2987131178379059,0.6957755088806152
1782776345729233000,0.34623291015625,-0.014049900695681572,-0.50335294008255,0.5827654600143433
1782776345739266300,0.356266357421875,-0.08185594528913498,-0.7134906053543091,0.3543018400669098
1782776345749222000,0.366221923828125,-0.11728613078594208,-0.8038986921310425,0.10812314599752426
1782776345759253200,0.376253173828125,-0.17776179313659668,-0.6713408827781677,-0.09834930300712585
1782776345769241600,0.38624169921875,-0.2064724564552307,-0.4709770977497101,-0.04581489413976669
1782776345779272700,0.396272705078125,-0.19425514340400696,-0.26633724570274353,0.14477506279945374
1782776345789230600,0.406230712890625,-0.15943582355976105,-0.12095131725072861,0.42149701714515686
1782776345799262000,0.416261962890625,-0.13927727937698364,-0.06719517707824707,0.7373143434524536
1782776345809250000,0.42625,-0.1514945775270462,-0.10812314599752426,1.0219775438308716
1782776345819252000,0.436251953125,-0.1918116807937622,-0.2773328125476837,1.2296717166900635
1782776345829238500,0.446238525390625,-0.23396138846874237,-0.5650503635406494,1.3274102210998535
1782776345839271200,0.456271240234375,-0.2736676335334778,-0.8778133392333984,1.3103059530258179
1782776345849227500,0.4662275390625,-0.3066543638706207,-1.1056660413742065,1.205847978591919
1782776345859260200,0.47626025390625,-0.32559117674827576,-1.235169529914856,1.036027431488037
1782776345869247200,0.486247314453125,-0.37262779474258423,-1.2974777221679688,0.827111542224884
1782776345879249400,0.49624951171875,-0.5094616413116455,-1.2571606636047363,0.6139195561408997
1782776345889236000,0.506236083984375,-0.5277875661849976,-0.9859365224838257,0.44226643443107605
1782776345899267300,0.516267333984375,-0.3891211748123169,-0.5949827432632446,0.30115658044815063
1782776345909225000,0.526224853515625,-0.18814650177955627,-0.29993483424186707,0.15760323405265808
1782776345919258000,0.536258056640625,-0.003054326167330146,-0.11545353382825851,0.01771509274840355
1782776345929245200,0.5462451171875,0.13072516024112701,-0.00855211354792118,-0.10751228034496307
1782776345939247000,0.5562470703125,0.20830504596233368,0.10323622822761536,-0.23151792585849762
1782776345949234200,0.566234130859375,0.2528982162475586,0.051312681287527084,-0.3885102868080139
1782776345959266600,0.5762666015625,0.2431243658065796,-0.17287486791610718,-0.5461135506629944
1782776345969223200,0.58622314453125,0.2076941877603531,-0.43249258399009705,-0.6896668672561646
1782776345979255800,0.596255859375,0.17043140530586243,-0.6023131608963013,-0.7959573864936829
1782776345989242600,0.60624267578125,0.14905111491680145,-0.6139195561408997,-0.8350527882575989
1782776345999245300,0.616245361328125,0.16432274878025055,-0.5009095072746277,-0.8527678847312927
1782776346009232000,0.62623193359375,0.192422553896904,-0.4489859640598297,-0.8936958312988281
1782776346019264500,0.636264404296875,0.24373523890972137,-0.4593706727027893,-0.970054030418396
1782776346029251300,0.646251220703125,0.29504790902137756,-0.5161811113357544,-1.0629055500030518
1782776346039253200,0.656253173828125,0.33475416898727417,-0.53328537940979,-1.1435397863388062
1782776346049240300,0.666240234375,0.35735616087913513,-0.5400048494338989,-1.2315043210983276
1782776346059271000,0.67627099609375,0.3378084897994995,-0.5760459303855896,-1.338405728340149
1782776346069229000,0.68622900390625,0.28038713335990906,-0.6548475623130798,-1.4526375532150269
1782776346079262000,0.696261962890625,0.20525072515010834,-0.6572909951210022,-1.5473216772079468
1782776346089248800,0.706248779296875,0.15821409225463867,-0.4801400899887085,-1.578475832939148
1782776346099248600,0.71624853515625,0.12095131725072861,-0.2736676335334778,-1.540602207183838
1782776346109238000,0.726238037109375,0.0507018156349659,-0.09224065393209457,-1.4587461948394775
1782776346119268400,0.736268310546875,-0.03420845419168472,0.1062905490398407,-1.3744467496871948
1782776346129226800,0.746226806640625,-0.10934487730264664,0.28649580478668213,-1.330464482307434
1782776346139260200,0.75626025390625,-0.14294247329235077,0.3640756905078888,-1.3561208248138428
1782776346149246200,0.76624609375,-0.14049901068210602,0.36163222789764404,-1.4422528743743896
1782776346159247000,0.7762470703125,-0.182648703455925,0.3830125033855438,-1.5265522003173828
1782776346169235500,0.7862353515625,-0.13439035415649414,0.2968805134296417,-1.4654656648635864
1782776346179266600,0.7962666015625,-0.031154127791523933,0.21807889640331268,-1.3054190874099731
1782776346189224400,0.806224365234375,-0.015882495790719986,0.22968533635139465,-1.1172724962234497
1782776346199254800,0.8162548828125,-0.03481931984424591,0.24984388053417206,-0.9144652485847473
1782776346209244000,0.826243896484375,-0.09224065393209457,0.21319197118282318,-0.7452555894851685
1782776346219244000,0.836244140625,-0.16737708449363708,0.1612684279680252,-0.6102544069290161
1782776346229233000,0.84623291015625,-0.2431243658065796,0.1466076523065567,-0.5167919993400574
1782776346239263500,0.856263427734375,-0.31459560990333557,0.1661553531885147,-0.4697553813457489
1782776346249222000,0.866221923828125,-0.3744603991508484,0.22418753802776337,-0.43799036741256714
1782776346259252500,0.87625244140625,-0.4184426963329315,0.30115658044815063,-0.3982841372489929
1782776346269241300,0.886241455078125,-0.44165557622909546,0.37568211555480957,-0.3494149148464203
1782776346279272700,0.896272705078125,-0.4306600093841553,0.4331034719944,-0.29138273000717163
1782776346289230600,0.906230712890625,-0.3854559659957886,0.45204028487205505,-0.23396138846874237
1782776346299261700,0.91626171875,-0.32986724376678467,0.4251621961593628,-0.18814650177955627
1782776346309250000,0.92625,-0.26939156651496887,0.3830125033855438,-0.14538592100143433
1782776346319251000,0.9362509765625,-0.2021963894367218,0.36102136969566345,-0.10262536257505417
1782776346329239300,0.9462392578125,-0.13439035415649414,0.3494149148464203,-0.05375614017248154
1782776346339270400,0.9562705078125,-0.07330382615327835,0.34025195240974426,0.0012217304902151227
1782776346349228000,0.96622802734375,-0.018936822190880775,0.323147714138031,0.05497787147760391
1782776346359258600,0.976258544921875,0.015882495790719986,0.3188716471195221,0.10995574295520782
1782776346369247500,0.98624755859375,0.01710422709584236,0.32131510972976685,0.17348572611808777
1782776346379247600,0.99624755859375,-0.004886921960860491,0.313373863697052,0.23579397797584534
1782776346389236700,1.00623681640625,-0.03298672288656235,0.24007004499435425,0.2871066629886627
1782776346399267000,1.01626708984375,-0.05497787147760391,0.07147123664617538,0.3078760802745819
1782776346409225700,1.026225830078125,-0.056810468435287476,-0.22113321721553802,0.2932153046131134
1782776346419256000,1.036256103515625,-0.033597588539123535,-0.5907067060470581,0.23884831368923187
1782776346429245200,1.0462451171875,0.0012217304902151227,-0.9242390990257263,0.15577064454555511
1782776346439245000,1.0562451171875,0.021380282938480377,-1.1386528015136719,0.06902777403593063
1782776346449234200,1.066234130859375,-0.003054326167330146,-1.1606439352035522,0.005497787147760391
1782776346459264800,1.0762646484375,-0.0659734457731247,-0.9828822016716003,-0.02687807008624077
1782776346469223200,1.08622314453125,-0.14233160018920898,-0.6768386960029602,-0.031154127791523933
1782776346479253500,1.09625341796875,-0.21868975460529327,-0.31520646810531616,-0.03726277872920036
1782776346489242600,1.10624267578125,-0.29626965522766113,0.036651913076639175,-0.08918632566928864
1782776346499242800,1.11624267578125,-0.3549126982688904,0.3194825351238251,-0.19792033731937408
1782776346509231900,1.12623193359375,-0.3695734739303589,0.5057964324951172,-0.3378084897994995
1782776346519263000,1.136262939453125,-0.33719760179519653,0.6255260109901428,-0.46242499351501465
1782776346529251300,1.146251220703125,-0.2791654169559479,0.6786713004112244,-0.5277875661849976
1782776346539251700,1.156251708984375,-0.22602014243602753,0.6530149579048157,-0.5149593949317932
1782776346548804900,1.165804931640625,-0.2174680233001709,0.5607742667198181,-0.33292156457901
1782776346559271400,1.176271484375,-0.1820378452539444,0.4489859640598297,-0.06658431142568588
1782776346569229300,1.186229248046875,-0.09651670604944229,0.3701843321323395,0.15271630883216858
1782776346579260400,1.196260498046875,0.005497787147760391,0.3488040566444397,0.2932153046131134
1782776346589248800,1.206248779296875,0.11056660860776901,0.34025195240974426,0.3787364661693573
1782776346599249700,1.216249755859375,0.24373523890972137,0.21380282938480377,0.43127086758613586
1782776346609237800,1.22623779296875,0.2987131178379059,0.03481931984424591,0.4282165467739105
1782776346619268900,1.236268798828125,0.3286454975605011,-0.1918116807937622,0.3836233615875244
1782776346629227000,1.24622705078125,0.34025195240974426,-0.4349360466003418,0.29016098380088806
1782776346639258000,1.256258056640625,0.3274237811565399,-0.6872233748435974,0.14355333149433136
1782776346649246200,1.26624609375,0.2974913716316223,-0.9059131741523743,-0.02871066704392433
1782776346659246300,1.276246337890625,0.24068090319633484,-1.0329731702804565,-0.1918116807937622
1782776346669235500,1.2862353515625,0.13927727937698364,-1.0323622226715088,-0.31031954288482666
1782776346679265800,1.296265869140625,0.013439035043120384,-0.8979719281196594,-0.3677408695220947
1782776346689224400,1.306224365234375,-0.11972958594560623,-0.6407976150512695,-0.3744603991508484
1782776346699254800,1.3162548828125,-0.24190263450145721,-0.31031954288482666,-0.3530801236629486
1782776346709244000,1.326243896484375,-0.31459560990333557,0.014049900695681572,-0.3286454975605011
1782776346719244500,1.33624462890625,-0.3188716471195221,0.2718350291252136,-0.31459560990333557
1782776346729233000,1.34623291015625,-0.2638937830924988,0.4642575979232788,-0.3017674386501312
1782776346739264000,1.356263916015625,-0.18448130786418915,0.5479460954666138,-0.28527405858039856
1782776346749222000,1.366221923828125,-0.11056660860776901,0.53328537940979,-0.25961771607398987
1782776346759253000,1.3762529296875,-0.04337143152952194,0.46242499351501465,-0.21991148591041565
1782776346769241600,1.38624169921875,0.012828170321881771,0.3500257730484009,-0.15515977144241333
1782776346779272700,1.396272705078125,0.0403171069920063,0.2675589919090271,-0.06780604273080826
1782776346789230600,1.406230712890625,0.02932153269648552,0.20341812074184418,0.015882495790719986
1782776346799261700,1.41626171875,-0.009773843921720982,0.12339477986097336,0.0708603709936142
1782776346809250000,1.42625,-0.03726277872920036,0.02015855349600315,0.07757988572120667
1782776346819250000,1.43625,-0.014049900695681572,-0.09834930300712585,0.02687807008624077
1782776346829238500,1.446238525390625,0.05192354694008827,-0.18020524084568024,-0.04337143152952194
1782776346839269600,1.45626953125,0.10506882518529892,-0.17531833052635193,-0.10018189996480942
1782776346849227500,1.4662275390625,0.12095131725072861,-0.1160643994808197,-0.13072516024112701
1782776346859258600,1.476258544921875,0.10506882518529892,-0.0555887371301651,-0.14966198801994324
1782776346869247200,1.486247314453125,0.08124507963657379,-0.013439035043120384,-0.17531833052635193
1782776346879248000,1.496247802734375,0.06475171446800232,-0.009773843921720982,-0.2076941877603531
1782776346889236000,1.506236083984375,0.059864792972803116,-0.01771509274840355,-0.23396138846874237
1782776346899267000,1.51626708984375,0.04581489413976669,-0.012217304669320583,-0.24495697021484375
1782776346909225000,1.526224853515625,0.013439035043120384,-0.022602014243602753,-0.23640485107898712
1782776346919256600,1.536256591796875,-0.03237585723400116,-0.03298672288656235,-0.19547687470912933
1782776346929245200,1.5462451171875,-0.09407325088977814,-0.04153883829712868,-0.14049901068210602
1782776346939245000,1.5562451171875,-0.16432274878025055,-0.05803219974040985,-0.1014036312699318
1782776346949234000,1.56623388671875,-0.22968533635139465,-0.07391469180583954,-0.09285151958465576
1782776346959265000,1.57626513671875,-0.2779437005519867,-0.06902777403593063,-0.10506882518529892
1782776346969223200,1.58622314453125,-0.31031954288482666,-0.04214970022439957,-0.12522737681865692
1782776346979254000,1.59625390625,-0.33536502718925476,0.00733038317412138,-0.14049901068210602
1782776346989242600,1.60624267578125,-0.3494149148464203,0.05619960278272629,-0.14355333149433136
1782776346999243500,1.616243408203125,-0.3543018400669098,0.08246681094169617,-0.12400564551353455
1782776347009232000,1.62623193359375,-0.3549126982688904,0.09773843735456467,-0.08552113175392151
1782776347019263200,1.63626318359375,-0.35735616087913513,0.07819075137376785,-0.003054326167330146
1782776347029251300,1.646251220703125,-0.36102136969566345,0.06230825558304787,0.05375614017248154
1782776347039251500,1.65625146484375,-0.3640756905078888,0.04764748737215996,0.09162978827953339
1782776347049240600,1.666240478515625,-0.3646865487098694,-0.06291911751031876,0.08857546001672745
1782776347059271000,1.67627099609375,-0.38240164518356323,-0.3604104816913605,0.021380282938480377
1782776347069229300,1.686229248046875,-0.4691445231437683,-0.8124507665634155,-0.16554448008537292
1782776347079259600,1.696259765625,-0.6346889734268188,-1.291369080543518,-0.4648684561252594
1782776347089248800,1.706248779296875,-0.8118399381637573,-1.5308283567428589,-0.7812966704368591
1782776347099248600,1.71624853515625,-0.9712757468223572,-1.4477506875991821,-1.0195341110229492
1782776347109238000,1.726238037109375,-1.1270463466644287,-1.1704177856445312,-1.1520918607711792
1782776347119268400,1.736268310546875,-1.2498302459716797,-0.817948579788208,-1.1734721660614014
1782776347129226800,1.746226806640625,-1.2858713865280151,-0.45326200127601624,-1.0965031385421753
1782776347139259000,1.7562587890625,-1.2308934926986694,-0.18631389737129211,-0.9633345007896423
1782776347149246200,1.76624609375,-1.1062769889831543,-0.04459316283464432,-0.7764097452163696
1782776347159248000,1.776247802734375,-0.9358455538749695,0.04459316283464432,-0.5375614166259766
1782776347169235500,1.7862353515625,-0.7391469478607178,0.09285151958465576,-0.2638937830924988
1782776347179267300,1.796267333984375,-0.5613851547241211,0.09040805697441101,0.018936822190880775
1782776347189224400,1.806224365234375,-0.45265114307403564,0.05619960278272629,0.28466320037841797
1782776347199254800,1.8162548828125,-0.4080579876899719,0.006719517521560192,0.5064072608947754
1782776347209244000,1.826243896484375,-0.40256020426750183,-0.08491026610136032,0.6627888083457947
1782776347219243800,1.836243896484375,-0.41172316670417786,-0.20586158335208893,0.7525860071182251
1782776347229233000,1.84623291015625,-0.4343251883983612,-0.35124751925468445,0.7812966704368591
1782776347239295500,1.85629541015625,-0.4789183437824249,-0.5106833577156067,0.7513642311096191
1782776347249222000,1.866221923828125,-0.5296201705932617,-0.646295428276062,0.6640105247497559
1782776347259254500,1.876254638671875,-0.5815436840057373,-0.7269296646118164,0.5247332453727722
1782776347269241300,1.886241455078125,-0.6530149579048157,-0.7568620443344116,0.34208452701568604
1782776347279274000,1.89627392578125,-0.7379252314567566,-0.749531626701355,0.13255776464939117
1782776347289230600,1.906230712890625,-0.8210029006004333,-0.7012733221054077,-0.08124507963657379
1782776347299261200,1.91626123046875,-0.8967501521110535,-0.6236934065818787,-0.2730567753314972
1782776347309250300,1.926250244140625,-0.9572258591651917,-0.5112941861152649,-0.4251621961593628
1782776347319250200,1.936250244140625,-1.0128145217895508,-0.3683517575263977,-0.5204572081565857
1782776347329239000,1.946239013671875,-1.0714576244354248,-0.24068090319633484,-0.5742133259773254
1782776347339269600,1.95626953125,-1.1032226085662842,-0.1319468915462494,-0.5778785347938538
1782776347349228000,1.96622802734375,-1.1020009517669678,-0.03848451003432274,-0.5296201705932617
1782776347359259000,1.9762587890625,-1.0751228332519531,0.02015855349600315,-0.43737950921058655
1782776347369247500,1.98624755859375,-1.0219775438308716,0.042760565876960754,-0.31154128909111023
1782776347379247600,1.99624755859375,-0.9474520087242126,0.036041051149368286,-0.16493362188339233
1782776347389236700,2.00623681640625,-0.8637634515762329,0.01160643994808197,-0.02015855349600315
1782776347399267300,2.016267333984375,-0.7800748944282532,-0.03237585723400116,0.11484266817569733
1782776347409225700,2.026225830078125,-0.7092145681381226,-0.08491026610136032,0.23029619455337524
1782776347419256000,2.036256103515625,-0.6676757335662842,-0.1368338167667389,0.31093040108680725
1782776347429245200,2.0462451171875,-0.6731734871864319,-0.18325957655906677,0.3384193480014801
1782776347439245000,2.0562451171875,-0.7238753437995911,-0.19120082259178162,0.2779437005519867
1782776347449234200,2.066234130859375,-0.7586946487426758,-0.15454891324043274,0.2028072625398636
1782776347459264800,2.0762646484375,-0.799011766910553,-0.11423180252313614,0.12095131725072861
1782776347469223200,2.08622314453125,-0.8454375267028809,-0.09040805697441101,0.04398229718208313
1782776347479253800,2.096253662109375,-0.8888089060783386,-0.08674286305904388,-0.021380282938480377
1782776347489242600,2.10624267578125,-0.930347740650177,-0.08002334833145142,-0.07147123664617538
1782776347499242800,2.11624267578125,-0.9731083512306213,-0.06841690838336945,-0.10812314599752426
1782776347509231900,2.12623193359375,-1.0152580738067627,-0.051312681287527084,-0.13744467496871948
1782776347519262200,2.13626220703125,-1.045190453529358,-0.025045474991202354,-0.16249015927314758
1782776347529251300,2.146251220703125,-1.0629055500030518,0.01710422709584236,-0.17837265133857727
1782776347539251500,2.15625146484375,-1.081842303276062,0.05742133408784866,-0.18936823308467865
1782776347549240300,2.166240234375,-1.0946705341339111,0.08735372871160507,-0.20036379992961884
1782776347559271000,2.17627099609375,-1.091616153717041,0.11850785464048386,-0.21502456068992615
1782776347579260400,2.196260498046875,-1.047023057937622,0.16310101747512817,-0.2687807083129883
1782776347589248800,2.206248779296875,-0.9950994849205017,0.17837265133857727,-0.29626965522766113
1782776347599249700,2.216249755859375,-0.9340129494667053,0.16310101747512817,-0.3078760802745819
1782776347609237800,2.22623779296875,-0.8710938692092896,0.12400564551353455,-0.28649580478668213
1782776347618845700,2.235845703125,-0.8014551997184753,0.09896016865968704,-0.2278527319431305
1782776347629257500,2.246257568359375,-0.7312057018280029,0.11301007121801376,-0.1411098688840866
1782776347639258000,2.256258056640625,-0.675006091594696,0.14477506279945374,-0.051312681287527084
1782776347649246200,2.26624609375,-0.6310238242149353,0.19853121042251587,0.030543262138962746
1782776347659247000,2.2762470703125,-0.6029239892959595,0.2779437005519867,0.09040805697441101
1782776347669235500,2.2862353515625,-0.5766568183898926,0.37690386176109314,0.12278391420841217
1782776347679266800,2.296266845703125,-0.523511528968811,0.44837507605552673,0.1368338167667389
1782776347689224400,2.306224365234375,-0.4434881806373596,0.4282165467739105,0.1368338167667389
1782776347699255800,2.316255859375,-0.34208452701568604,0.2919935882091522,0.09896016865968704
1782776347709244200,2.326244140625,-0.24862214922904968,0.04092797264456749,0.014049900695681572
1782776347719244800,2.336244873046875,-0.2070833146572113,-0.30115658044815063,-0.1313360333442688
1782776347729233000,2.34623291015625,-0.2431243658065796,-0.608421802520752,-0.3182607889175415
1782776347739263500,2.356263427734375,-0.3286454975605011,-0.7452555894851685,-0.4990769028663635
1782776347749222000,2.366221923828125,-0.45204028487205505,-0.6737843751907349,-0.6279694437980652
1782776347759252500,2.37625244140625,-0.5925393104553223,-0.4086688458919525,-0.6688974499702454
1782776347769241300,2.386241455078125,-0.7012733221054077,-0.0006108652451075613,-0.6151412725448608
1782776347779272700,2.396272705078125,-0.7538077235221863,0.455705463886261,-0.4911356568336487
1782776347789230600,2.406230712890625,-0.7452555894851685,0.8594874143600464,-0.33475416898727417
1782776347799262200,2.41626220703125,-0.6823364496231079,1.1331549882888794,-0.18814650177955627
1782776347809250000,2.42625,-0.5778785347938538,1.2479976415634155,-0.06780604273080826
1782776347819250200,2.436250244140625,-0.4386012554168701,1.2162326574325562,0.029932396486401558
1782776347829238500,2.446238525390625,-0.29077184200286865,1.0781772136688232,0.11850785464048386
1782776347839269600,2.45626953125,-0.15577064454555511,0.8808676600456238,0.21502456068992615
1782776347849227500,2.4662275390625,-0.05009094998240471,0.6615670323371887,0.33292156457901
1782776347859258600,2.476258544921875,0.05864306539297104,0.3488040566444397,0.5412266254425049
1782776347869247200,2.486247314453125,0.11484266817569733,0.18020524084568024,0.6841690540313721
1782776347879247600,2.49624755859375,0.17898350954055786,0.028099801391363144,0.8130616545677185
1782776347889236000,2.506236083984375,0.2278527319431305,-0.13011430203914642,0.9199630618095398
1782776347899267300,2.516267333984375,0.25106561183929443,-0.3530801236629486,0.9566149711608887
1782776347909225000,2.526224853515625,0.2217440903186798,-0.684779942035675,0.8802568316459656
1782776347919256000,2.536256103515625,0.14477506279945374,-1.0506882667541504,0.7018841505050659
1782776347929245200,2.5462451171875,0.010995574295520782,-1.3347405195236206,0.4813618063926697
1782776347939245000,2.5562451171875,-0.19486601650714874,-1.4593570232391357,0.2718350291252136
1782776347949234200,2.566234130859375,-0.4550946056842804,-1.3952162265777588,0.09285151958465576
1782776347959264800,2.5762646484375,-0.7141014933586121,-1.1563678979873657,-0.04214970022439957
1782776347969223200,2.58622314453125,-0.9101892113685608,-0.8124507665634155,-0.1411098688840866
1782776347979254500,2.596254638671875,-1.0280861854553223,-0.45631635189056396,-0.22052235901355743
1782776347989242600,2.60624267578125,-1.0525208711624146,-0.16004669666290283,-0.29138273000717163
1782776347999243800,2.616243896484375,-0.9834930300712585,0.07330382615327835,-0.33658674359321594
1782776348009232000,2.62623193359375,-0.8619308471679688,0.23335053026676178,-0.33108896017074585
1782776348019263700,2.636263671875,-0.7440338730812073,0.3078760802745819,-0.2620611786842346
1782776348029251300,2.646251220703125,-0.6627888083457947,0.3090978264808655,-0.13377949595451355
1782776348039252500,2.65625244140625,-0.6218608021736145,0.27061331272125244,0.02932153269648552
1782776348049240000,2.666239990234375,-0.6090326309204102,0.2028072625398636,0.18325957655906677
1782776348059271400,2.676271484375,-0.6194173693656921,0.13805554807186127,0.29626965522766113
1782776348069229300,2.686229248046875,-0.6444628238677979,0.09346238523721695,0.35674530267715454
1782776348079260200,2.69626025390625,-0.6878342628479004,0.0708603709936142,0.3683517575263977
1782776348089248800,2.706248779296875,-0.7525860071182251,0.05375614017248154,0.3323107063770294
1782776348099248600,2.71624853515625,-0.826500654220581,0.018936822190880775,0.2474004179239273
1782776348109238000,2.726238037109375,-0.9077457785606384,-0.042760565876960754,0.1258382350206375
1782776348121567700,2.738567626953125,-0.9975429177284241,-0.19303341209888458,-0.11362093687057495
1782776348139258400,2.75625830078125,-1.0421360731124878,-0.37751471996307373,-0.3701843321323395
1782776348149246200,2.76624609375,-1.064738154411316,-0.48869219422340393,-0.5155702829360962
1782776348159247000,2.7762470703125,-1.0891727209091187,-0.5577199459075928,-0.6053674817085266
1782776348169235500,2.7862353515625,-1.1068878173828125,-0.6096435189247131,-0.6316346526145935
1782776348179266600,2.7962666015625,-1.1142182350158691,-0.6786713004112244,-0.5943718552589417
1782776348189224400,2.806224365234375,-1.1074986457824707,-0.7733554244041443,-0.4948008358478546
1782776348199255800,2.816255859375,-1.0958921909332275,-0.9040805697441101,-0.3500257730484009
1782776348209244000,2.826243896484375,-1.0983357429504395,-1.0610729455947876,-0.19120082259178162
1782776348219244000,2.836244140625,-1.1313223838806152,-1.189354658126831,-0.031154127791523933
1782776348229233000,2.84623291015625,-1.2009611129760742,-1.2431107759475708,0.11239920556545258
1782776348239263500,2.856263427734375,-1.3005321025848389,-1.2272282838821411,0.22663100063800812
1782776348249222000,2.866221923828125,-1.4208725690841675,-1.1233811378479004,0.3066543638706207
1782776348259252700,2.876252685546875,-1.5467108488082886,-0.9633345007896423,0.3445279896259308
1782776348269241600,2.88624169921875,-1.6548339128494263,-0.8008443117141724,0.34086281061172485
1782776348279272200,2.896272216796875,-1.7776178121566772,-0.6255260109901428,0.27611109614372253
1782776348289230600,2.906230712890625,-1.8332066535949707,-0.5656611919403076,0.22052235901355743
1782776348299261200,2.91626123046875,-1.874745488166809,-0.5400048494338989,0.17409659922122955
1782776348309250000,2.92625,-1.9101755619049072,-0.5638286471366882,0.13927727937698364
1782776348319250200,2.936250244140625,-1.9394971132278442,-0.6487388610839844,0.11850785464048386
1782776348329239000,2.946239013671875,-1.9633208513259888,-0.7770205736160278,0.10690141469240189
1782776348339269600,2.95626953125,-1.9920315742492676,-0.9395107626914978,0.1014036312699318
1782776348349228000,2.96622802734375,-2.0305161476135254,-1.1258246898651123,0.08796459436416626
1782776348359259000,2.9762587890625,-2.063502788543701,-1.348179578781128,0.04153883829712868
1782776348369247500,2.98624755859375,-2.118480682373047,-1.654223084449768,-0.04764748737215996
1782776348379250000,2.99625,-2.219273328781128,-2.0195205211639404,-0.17837265133857727
1782776348389236500,3.006236572265625,-2.3652701377868652,-2.3518311977386475,-0.3323107063770294
1782776348399269400,3.016269287109375,-2.535090684890747,-2.539977788925171,-0.49357911944389343
1782776348409225700,3.026225830078125,-2.7006351947784424,-2.534479856491089,-0.6536257863044739
1782776348419258600,3.036258544921875,-2.8686232566833496,-2.3768765926361084,-0.8136724829673767
1782776348429245200,3.0462451171875,-3.0298917293548584,-2.1203131675720215,-0.9706648588180542
1782776348439245300,3.056245361328125,-3.152064561843872,-1.8539760112762451,-1.1227703094482422
1782776348449234000,3.06623388671875,-3.213762044906616,-1.6413949728012085,-1.2681562900543213
1782776348459264800,3.0762646484375,-3.210707664489746,-1.5015068054199219,-1.395827054977417
1782776348469223200,3.08622314453125,-3.1587841510772705,-1.4147639274597168,-1.4868459701538086
1782776348479254000,3.09625390625,-3.0665435791015625,-1.377501130104065,-1.528384804725647
1782776348489242600,3.10624267578125,-2.9431488513946533,-1.3683381080627441,-1.5106697082519531
1782776348499244000,3.116244140625,-2.797152042388916,-1.378722906112671,-1.4300355911254883
1782776348509231900,3.12623193359375,-2.6389379501342773,-1.4019356966018677,-1.2877039909362793
1782776348519263500,3.136263427734375,-2.487443208694458,-1.4398094415664673,-1.1087204217910767
1782776348529251300,3.146251220703125,-2.3463335037231445,-1.5039502382278442,-0.9065240025520325
1782776348539251200,3.156251220703125,-2.2186625003814697,-1.5515977144241333,-0.7000515460968018
1782776348549240000,3.166239990234375,-2.1062633991241455,-1.5680910348892212,-0.5009095072746277
1782776348559271200,3.176271240234375,-2.018298864364624,-1.5815300941467285,-0.33047810196876526
1782776348569229300,3.186229248046875,-1.965153455734253,-1.5949691534042358,-0.2119702398777008
1782776348579260000,3.196260009765625,-1.9492709636688232,-1.587027907371521,-0.16004669666290283
1782776348589248800,3.206248779296875,-1.9535470008850098,-1.540602207183838,-0.182648703455925
1782776348599249000,3.216248779296875,-1.9755382537841797,-1.4593570232391357,-0.26145032048225403
1782776348609237800,3.22623779296875,-2.012190103530884,-1.3585642576217651,-0.3842342495918274
1782776348619348700,3.2363486328125,-2.054950714111328,-1.2473868131637573,-0.5253441333770752
1782776348629226800,3.246226806640625,-2.094046115875244,-1.1252137422561646,-0.6603453159332275
1782776348639257300,3.25625732421875,-2.1154263019561768,-1.004873275756836,-0.770301103591919
1782776348649246200,3.26624609375,-2.116647958755493,-0.8949176073074341,-0.8417723178863525
1782776348659246300,3.276246337890625,-2.0983221530914307,-0.7929030656814575,-0.8674286603927612
1782776348669235500,3.2862353515625,-2.0647244453430176,-0.7079927921295166,-0.8448266386985779
1782776348679265800,3.296265869140625,-2.0140228271484375,-0.6591235995292664,-0.7764097452163696
1782776348689224400,3.306224365234375,-1.95965576171875,-0.6579018831253052,-0.6701191663742065
1782776348699254800,3.3162548828125,-1.9120081663131714,-0.6823364496231079,-0.5387831330299377
1782776348709244000,3.326243896484375,-1.8576412200927734,-0.7373143434524536,-0.33047810196876526
1782776348719244000,3.336244140625,-1.8313740491867065,-0.7544185519218445,-0.19975294172763824
1782776348729233000,3.34623291015625,-1.813048005104065,-0.7580837607383728,-0.10018189996480942
1782776348739263700,3.356263671875,-1.7971655130386353,-0.7422012686729431,-0.03726277872920036
1782776348749222000,3.366221923828125,-1.7910568714141846,-0.7012733221054077,-0.018325956538319588
1782776348759252500,3.37625244140625,-1.795332908630371,-0.646906316280365,-0.033597588539123535
1782776348769241300,3.386241455078125,-1.8081611394882202,-0.5925393104553223,-0.07452555745840073
1782776348779272200,3.396272216796875,-1.8185458183288574,-0.5375614166259766,-0.1264491081237793
1782776348789230600,3.406230712890625,-1.8264870643615723,-0.49235737323760986,-0.19058994948863983
1782776348799261200,3.41626123046875,-1.8380935192108154,-0.4660901725292206,-0.25106561183929443
1782776348809250000,3.42625,-1.8613064289093018,-0.44654250144958496,-0.3090978264808655
1782776348819249200,3.436249267578125,-1.8985692262649536,-0.41172316670417786,-0.35735616087913513
1782776348829238500,3.446238525390625,-1.9425514936447144,-0.36529740691185,-0.40133845806121826
1782776348839269000,3.45626904296875,-1.9828685522079468,-0.3194825351238251,-0.4489859640598297
1782776348849227500,3.4662275390625,-2.015855312347412,-0.2871066629886627,-0.503963828086853
1782776348859258000,3.476258056640625,-2.037846565246582,-0.2474004179239273,-0.5558874011039734
1782776348869247200,3.486247314453125,-2.0506746768951416,-0.19364428520202637,-0.6004805564880371
1782776348879247000,3.4962470703125,-2.0592267513275146,-0.13805554807186127,-0.6383541822433472
1782776348889236000,3.506236083984375,-2.0567831993103027,-0.08735372871160507,-0.6688974499702454
1782776348899266600,3.5162666015625,-2.0445659160614014,-0.04581489413976669,-0.6884451508522034
1782776348909225000,3.526224853515625,-2.026850938796997,-0.010995574295520782,-0.6988298296928406
1782776348919256000,3.536256103515625,-1.9901989698410034,0.021380282938480377,-0.6872233748435974
1782776348929245200,3.5462451171875,-1.93766450881958,0.054367005825042725,-0.6493497490882874
1782776348939245800,3.556245849609375,-1.8765780925750732,0.08368854224681854,-0.5900958180427551
1782776348949234000,3.56623388671875,-1.80510675907135,0.09529497474431992,-0.5149593949317932
1782776348959265300,3.576265380859375,-1.720807433128357,0.08429940044879913,-0.4306600093841553
1782776348969223200,3.58622314453125,-1.6303993463516235,0.05192354694008827,-0.34636059403419495
1782776348979254500,3.596254638671875,-1.540602207183838,0.007941247895359993,-0.2620611786842346
1782776348989243000,3.606242919921875,-1.4618005752563477,-0.042760565876960754,-0.182648703455925
1782776348999243500,3.616243408203125,-1.3933836221694946,-0.08307767659425735,-0.11789698898792267
1782776349009232000,3.62623193359375,-1.3542882204055786,-0.10384709388017654,-0.06963863968849182
1782776349019263200,3.63626318359375,-1.3329079151153564,-0.10873401165008545,-0.04581489413976669
1782776349029251000,3.6462509765625,-1.3096951246261597,-0.11056660860776901,-0.05803219974040985
1782776349039252200,3.656252197265625,-1.2889256477355957,-0.12217304855585098,-0.09712757170200348
1782776349049240000,3.666239990234375,-1.2614367008209229,-0.13377949595451355,-0.152105450630188
1782776349059271400,3.676271484375,-1.2327260971069336,-0.11667526513338089,-0.20463985204696655
1782776349069229300,3.686229248046875,-1.2064588069915771,-0.07024950534105301,-0.24678955972194672
1782776349079260700,3.6962607421875,-1.1869112253189087,-0.012217304669320583,-0.27611109614372253
1782776349089248800,3.706248779296875,-1.1679743528366089,0.039706241339445114,-0.29077184200286865
1782776349099249700,3.716249755859375,-1.1368201971054077,0.09957103431224823,-0.2785545587539673
1782776349109238000,3.726238037109375,-1.084285855293274,0.1417207419872284,-0.242513507604599
1782776349119269000,3.73626904296875,-1.0109820365905762,0.11789698898792267,-0.20341812074184418
1782776349129226800,3.746226806640625,-0.8833111524581909,-0.09651670604944229,-0.18814650177955627
1782776349139258000,3.756258056640625,-0.7953465580940247,-0.33169981837272644,-0.2217440903186798
1782776349149246200,3.76624609375,-0.7220427393913269,-0.5186246037483215,-0.27611109614372253
1782776349159247000,3.7762470703125,-0.6890559792518616,-0.5638286471366882,-0.3078760802745819
1782776349169235500,3.7862353515625,-0.7098253965377808,-0.4612032473087311,-0.2871066629886627
1782776349179266600,3.7962666015625,-0.7415903806686401,-0.242513507604599,-0.192422553896904
1782776349189224400,3.806224365234375,-0.7525860071182251,0.0507018156349659,-0.04703662544488907
1782776349199255800,3.816255859375,-0.7269296646118164,0.32681289315223694,0.11484266817569733
1782776349209244000,3.826243896484375,-0.6603453159332275,0.5021312236785889,0.25473082065582275
1782776349219244800,3.836244873046875,-0.5564982295036316,0.5668829679489136,0.3500257730484009
1782776349229233000,3.84623291015625,-0.4404338300228119,0.5125159621238708,0.4043927788734436
1782776349239294500,3.85629443359375,-0.32559117674827576,0.37262779474258423,0.42699480056762695
1782776349249222000,3.866221923828125,-0.24678955972194672,0.17287486791610718,0.41722095012664795
1782776349259253000,3.8762529296875,-0.20952677726745605,-0.06169738993048668,0.37751471996307373
1782776349269241300,3.886241455078125,-0.22602014243602753,-0.31154128909111023,0.3072652220726013
1782776349279274800,3.896274658203125,-0.2919935882091522,-0.598647952079773,0.20097467303276062
1782776349289230600,3.906230712890625,-0.3689626157283783,-0.8955284357070923,0.07208210229873657
1782776349299230700,3.916230712890625,-0.42271876335144043,-1.1142182350158691,-0.0507018156349659
1782776349310171600,3.927171630859375,-0.4697553813457489,-1.2125675678253174,-0.12828169763088226
1782776349329239000,3.946239013671875,-0.6212499737739563,-1.0268645286560059,-0.08246681094169617
1782776349339270400,3.9562705078125,-0.6866125464439392,-0.8130616545677185,0.025656340643763542
1782776349349228000,3.96622802734375,-0.7165449261665344,-0.5619960427284241,0.1411098688840866
1782776349359259400,3.97625927734375,-0.7061602473258972,-0.35735616087913513,0.2125810980796814
1782776349369247500,3.98624755859375,-0.6664539575576782,-0.24617868661880493,0.21135938167572021
1782776349379217400,3.996217529296875,-0.6133087277412415,-0.21624629199504852,0.15393804013729095
1782776349389257500,4.006257568359375,-0.5595525503158569,-0.21319197118282318,0.07330382615327835
1782776349399329000,4.0163291015625,-0.5247332453727722,-0.18325957655906677,0.01160643994808197
1782776349409225700,4.026225830078125,-0.5222898125648499,-0.09346238523721695,-0.01038470957428217
1782776349419256800,4.0362568359375,-0.5400048494338989,0.04459316283464432,0.004886921960860491
1782776349429245200,4.0462451171875,-0.5583308339118958,0.20830504596233368,0.048258353024721146
1782776349439214800,4.05621484375,-0.5845980644226074,0.3634648323059082,0.09834930300712585
1782776349449255200,4.066255126953125,-0.6108652353286743,0.4893030524253845,0.13316862285137177
1782776349459326700,4.07632666015625,-0.6188064813613892,0.5778785347938538,0.14844025671482086
1782776349469223200,4.08622314453125,-0.6047565937042236,0.6023131608963013,0.13439035415649414
1782776349479253800,4.096253662109375,-0.5815436840057373,0.5766568183898926,0.09407325088977814
1782776349489242600,4.10624267578125,-0.5528330206871033,0.4996877610683441,0.02687807008624077
1782776349499242800,4.11624267578125,-0.5161811113357544,0.37140607833862305,-0.06291911751031876
1782776349509231900,4.12623193359375,-0.46792277693748474,0.24495697021484375,-0.15515977144241333
1782776349519262500,4.136262451171875,-0.4080579876899719,0.13744467496871948,-0.2376265823841095
1782776349529251300,4.146251220703125,-0.35185837745666504,0.039095375686883926,-0.30115658044815063
1782776349539251500,4.15625146484375,-0.31154128909111023,-0.05864306539297104,-0.3488040566444397
1782776349549240300,4.166240234375,-0.2974913716316223,-0.1966986060142517,-0.40072759985923767
1782776349559271400,4.176271484375,-0.29077184200286865,-0.242513507604599,-0.42088615894317627
1782776349569229300,4.186229248046875,-0.2681698501110077,-0.21868975460529327,-0.4196644127368927
1782776349579260400,4.196260498046875,-0.242513507604599,-0.1869247704744339,-0.4050036668777466
1782776349589248800,4.206248779296875,-0.22846360504627228,-0.1771509200334549,-0.3842342495918274
1782776349599249400,4.21624951171875,-0.22907446324825287,-0.19792033731937408,-0.37262779474258423
1782776349609238000,4.226238037109375,-0.2382374405860901,-0.2528982162475586,-0.3805690407752991
1782776349619269000,4.23626904296875,-0.25106561183929443,-0.32009339332580566,-0.42210787534713745
1782776349629227000,4.24622705078125,-0.27977627515792847,-0.37079519033432007,-0.5094616413116455
1782776349639258000,4.256258056640625,-0.31154128909111023,-0.384845107793808,-0.6377432942390442
1782776349649246500,4.26624658203125,-0.33597588539123535,-0.3500257730484009,-0.7812966704368591
1782776349659246800,4.276246826171875,-0.35124751925468445,-0.2736676335334778,-0.8924741148948669
1782776349669235500,4.2862353515625,-0.36651915311813354,-0.19058994948863983,-0.9553932547569275
1782776349679266600,4.2962666015625,-0.3781255781650543,-0.11789698898792267,-0.9663888216018677
1782776349689224400,4.306224365234375,-0.3830125033855438,-0.0757472887635231,-0.9486737251281738
1782776349699255600,4.316255615234375,-0.3842342495918274,-0.08307767659425735,-0.9254608750343323
1782776349709244000,4.326243896484375,-0.3695734739303589,-0.1258382350206375,-0.8985827565193176
1782776349719244800,4.336244873046875,-0.34636059403419495,-0.19120082259178162,-0.8570439219474792
1782776349729233000,4.34623291015625,-0.3243694305419922,-0.2877175211906433,-0.7959573864936829
1782776349739264300,4.35626416015625,-0.313373863697052,-0.3927863538265228,-0.7226535677909851
1782776349749222000,4.366221923828125,-0.3078760802745819,-0.48319441080093384,-0.6493497490882874
1782776349759253000,4.3762529296875,-0.30482175946235657,-0.5540547966957092,-0.5827654600143433
1782776349769241300,4.386241455078125,-0.2938261926174164,-0.607200026512146,-0.5387831330299377
1782776349779272700,4.396272705078125,-0.2736676335334778,-0.6511823534965515,-0.513126790523529
1782776349789230600,4.406230712890625,-0.2528982162475586,-0.6743952035903931,-0.4966334402561188
1782776349799261700,4.41626171875,-0.23518311977386475,-0.6921103000640869,-0.4801400899887085
1782776349809250000,4.42625,-0.23090706765651703,-0.7214318513870239,-0.45692721009254456
1782776349819249000,4.436248779296875,-0.24373523890972137,-0.7586946487426758,-0.4129449129104614
1782776349829238500,4.446238525390625,-0.2736676335334778,-0.7971791625022888,-0.35063666105270386
1782776349839269000,4.45626904296875,-0.3237585723400116,-0.8637634515762329,-0.2773328125476837
1782776349849227500,4.4662275390625,-0.40072759985923767,-0.9584475755691528,-0.2021963894367218
1782776349859257900,4.4762578125,-0.4960225820541382,-1.0366383790969849,-0.1215621829032898
1782776349869247200,4.486247314453125,-0.6010913848876953,-1.0696250200271606,-0.04459316283464432
1782776349879247000,4.4962470703125,-0.7006624341011047,-1.0812314748764038,0.021380282938480377
1782776349889236000,4.506236083984375,-0.8020660877227783,-1.130711555480957,0.025656340643763542
1782776349899266600,4.5162666015625,-0.921795666217804,-1.2333369255065918,0.03298672288656235
1782776349909225000,4.526224853515625,-1.056796908378601,-1.3640620708465576,0.02687807008624077
1782776349919256000,4.536256103515625,-1.2064588069915771,-1.49906325340271,-0.02382374368607998
1782776349929245200,4.5462451171875,-1.3475687503814697,-1.6224581003189087,-0.13377949595451355
1782776349939245000,4.5562451171875,-1.4648548364639282,-1.6450600624084473,-0.2919935882091522
1782776349949234200,4.566234130859375,-1.5906931161880493,-1.540602207183838,-0.4508185386657715
1782776349959264800,4.5762646484375,-1.7507398128509521,-1.330464482307434,-0.5919284224510193
1782776349969223200,4.58622314453125,-1.9712620973587036,-0.8600982427597046,-0.7391469478607178
1782776349979255000,4.596255126953125,-2.0274617671966553,-0.45204028487205505,-0.7782423496246338
1782776349989243000,4.606242919921875,-1.9755382537841797,-0.02871066704392433,-0.7648032903671265
1782776349999244000,4.616244140625,-1.8209892511367798,0.3280346393585205,-0.6866125464439392
1782776350009232000,4.62623193359375,-1.6022995710372925,0.5968153476715088,-0.5393940210342407
1782776350019263500,4.636263427734375,-1.3616186380386353,0.7507534027099609,-0.34086281061172485
1782776350029251300,4.646251220703125,-1.1270463466644287,0.7434229850769043,-0.13011430203914642
1782776350039252700,4.656252685546875,-0.9126327037811279,0.5754350423812866,0.06963863968849182
1782776350049200000,4.6662001953125,-0.7367035150527954,0.3029891550540924,0.24617868661880493
1782776350059333400,4.67633349609375,-0.6133087277412415,-0.01710422709584236,0.39095374941825867
1782776350069229300,4.686229248046875,-0.5271766781806946,-0.3280346393585205,0.48380526900291443
1782776350079261000,4.696260986328125,-0.46731191873550415,-0.5595525503158569,0.5186246037483215
1782776350089248800,4.706248779296875,-0.4404338300228119,-0.7159340381622314,0.4807509481906891
1782776350099248600,4.71624853515625,-0.45204028487205505,-0.8197811841964722,0.3683517575263977
1782776350109238000,4.726238037109375,-0.485027015209198,-0.8582656979560852,0.19914206862449646
1782776350119268400,4.736268310546875,-0.5229006409645081,-0.8161159753799438,-0.0006108652451075613
1782776350129226800,4.746226806640625,-0.5754350423812866,-0.7073819637298584,-0.20830504596233368
1782776350139258000,4.756258056640625,-0.6322455406188965,-0.5357288122177124,-0.3927863538265228
1782776350149246200,4.76624609375,-0.6536257863044739,-0.29504790902137756,-0.5112941861152649
1782776350159248000,4.776247802734375,-0.6157521605491638,-0.006719517521560192,-0.5393940210342407
1782776350169235500,4.7862353515625,-0.5186246037483215,0.2968805134296417,-0.4746423065662384
1782776350179267300,4.796267333984375,-0.37201693654060364,0.5638286471366882,-0.32131510972976685
1782776350189224400,4.806224365234375,-0.20586158335208893,0.7354817390441895,-0.12889257073402405
1782776350199256000,4.816256103515625,-0.04092797264456749,0.7941248416900635,0.07269296050071716
1782776350209244000,4.826243896484375,0.11423180252313614,0.759305477142334,0.25961771607398987
1782776350219244300,4.836244384765625,0.2577851414680481,0.6548475623130798,0.42638394236564636
1782776350229233000,4.84623291015625,0.37140607833862305,0.5381723046302795,0.5668829679489136
1782776350239264000,4.856263916015625,0.44593164324760437,0.43188172578811646,0.66584312915802
1782776350249222000,4.866221923828125,0.4807509481906891,0.34513887763023376,0.7171558141708374
1782776350259253000,4.8762529296875,0.4862487316131592,0.27061331272125244,0.7183775305747986
1782776350269241600,4.88624169921875,0.4795292317867279,0.21930062770843506,0.6737843751907349
1782776350279272200,4.896272216796875,0.46242499351501465,0.19486601650714874,0.5894849896430969
1782776350289230600,4.906230712890625,0.44776421785354614,0.2028072625398636,0.4789183437824249
1782776350299261000,4.916260986328125,0.43676865100860596,0.24434609711170197,0.36163222789764404
1782776350309250000,4.92625,0.4306600093841553,0.30543261766433716,0.2535090744495392
1782776350319250200,4.936250244140625,0.41111230850219727,0.3738495409488678,0.16065755486488342
1782776350329239000,4.946239013671875,0.3927863538265228,0.4502076804637909,0.08429940044879913
1782776350339269600,4.95626953125,0.3793473243713379,0.5326744914054871,0.02076941914856434
1782776350349228000,4.96622802734375,0.3683517575263977,0.5858197808265686,-0.024434609338641167
1782776350359259100,4.976259033203125,0.3640756905078888,0.608421802520752,-0.0403171069920063
1782776350369247700,4.986247802734375,0.3689626157283783,0.6218608021736145,-0.03176499158143997
1782776350379248000,4.996248046875,0.3878994286060333,0.6194173693656921,-0.00427605677396059
1782776350389236500,5.006236572265625,0.4453207552433014,0.5742133259773254,0.04398229718208313
1782776350399267600,5.016267578125,0.5021312236785889,0.5369505286216736,0.08246681094169617
1782776350409225700,5.026225830078125,0.5668829679489136,0.4954117238521576,0.11789698898792267
1782776350419257000,5.036257080078125,0.6243042945861816,0.4550946056842804,0.1472185254096985
1782776350429245200,5.0462451171875,0.6633996367454529,0.4343251883983612,0.16798794269561768
1782776350439246000,5.05624609375,0.6878342628479004,0.43127086758613586,0.16982053220272064
1782776350449234200,5.066234130859375,0.7049384713172913,0.4337143301963806,0.1569923609495163
1782776350459265000,5.07626513671875,0.7177666425704956,0.44715335965156555,0.14905111491680145
1782776350469223200,5.08622314453125,0.7250970602035522,0.5119050741195679,0.1563815027475357
1782776350479254500,5.096254638671875,0.7281513810157776,0.5955936312675476,0.17776179313659668
1782776350489242600,5.10624267578125,0.7489207983016968,0.6090326309204102,0.19975294172763824
1782776350499243500,5.116243408203125,0.8087855577468872,0.48869219422340393,0.19486601650714874
1782776350509231900,5.12623193359375,0.8625417351722717,0.23029619455337524,0.1472185254096985
1782776350519262200,5.13626220703125,0.8527678847312927,-0.05864306539297104,0.06352998316287994
1782776350529251300,5.146251220703125,0.7727445363998413,-0.2632829248905182,-0.009162978269159794
1782776350539251500,5.15625146484375,0.665232241153717,-0.3481931984424591,-0.051312681287527084
1782776350549240300,5.166240234375,0.5687155723571777,-0.3237585723400116,-0.07330382615327835
1782776350559271000,5.17627099609375,0.5015203952789307,-0.16249015927314758,-0.08552113175392151
1782776350569229300,5.186229248046875,0.46853363513946533,0.15271630883216858,-0.09896016865968704
1782776350579261200,5.19626123046875,0.4502076804637909,0.5442809462547302,-0.11423180252313614
1782776350589248800,5.206248779296875,0.46242499351501465,0.9059131741523743,-0.11301007121801376
1782776350599236600,5.216236572265625,0.5247332453727722,1.1826350688934326,-0.07024950534105301
1782776350609224700,5.226224609375,0.6322455406188965,1.3836097717285156,0.025045474991202354
1782776350619256300,5.23625634765625,0.7623597979545593,1.4996742010116577,0.152105450630188
1782776350629213700,5.246213623046875,0.8802568316459656,1.5076154470443726,0.2816088795661926
1782776350639245300,5.256245361328125,0.9584475755691528,1.4129313230514526,0.38606682419776917
1782776350649233000,5.26623291015625,0.9957103729248047,1.2486085891723633,0.4453207552433014
1782776350659233500,5.276233642578125,0.99876469373703,1.0311405658721924,0.4495968222618103
1782776350669222100,5.28622216796875,0.9841039180755615,0.769079327583313,0.4098905920982361
1782776350679253200,5.296253173828125,0.960280179977417,0.4660901725292206,0.342695415019989
1782776350689211100,5.306211181640625,0.9547823667526245,0.15577064454555511,0.26022860407829285
1782776350699243000,5.316242919921875,0.9743300676345825,-0.09285151958465576,0.18325957655906677
1782776350709230800,5.32623095703125,0.9938777685165405,-0.2816088795661926,0.1014036312699318
1782776350719230700,5.336230712890625,0.969443142414093,-0.44287729263305664,0.01466076634824276
1782776350729219800,5.3462197265625,0.8912523984909058,-0.5467243790626526,-0.06291911751031876
1782776350739250400,5.35625048828125,0.7745771408081055,-0.5723807215690613,-0.12461651116609573
1782776350749208600,5.36620849609375,0.6322455406188965,-0.5180137157440186,-0.16432274878025055
1782776350759240700,5.37624072265625,0.49235737323760986,-0.3891211748123169,-0.17898350954055786
1782776350769228000,5.38622802734375,0.3988949954509735,-0.18448130786418915,-0.17287486791610718
1782776350779260400,5.396260498046875,0.375071257352829,0.05803219974040985,-0.14905111491680145
1782776350789217300,5.40621728515625,0.4245513379573822,0.28588494658470154,-0.11484266817569733
1782776350799249200,5.416249267578125,0.5241223573684692,0.45814892649650574,-0.06169738993048668
1782776350809236700,5.42623681640625,0.6829473376274109,0.5455026626586914,0.05619960278272629
1782776350819236600,5.436236572265625,0.7550294399261475,0.5051855444908142,0.15332718193531036
1782776350829225200,5.44622509765625,0.7947356700897217,0.42271876335144043,0.25106561183929443
1782776350839256600,5.456256591796875,0.7910705208778381,0.33536502718925476,0.3280346393585205
1782776350849214200,5.466214111328125,0.7367035150527954,0.26145032048225403,0.3488040566444397
1782776350859244800,5.476244873046875,0.6438519954681396,0.21563543379306793,0.30115658044815063
1782776350869234000,5.48623388671875,0.5442809462547302,0.2174680233001709,0.2119702398777008
1782776350879233800,5.49623388671875,0.4440990388393402,0.2382374405860901,0.10995574295520782
1782776350889222700,5.50622265625,0.3543018400669098,0.24862214922904968,0.00855211354792118
1782776350899254300,5.516254150390625,0.2828305959701538,0.2370157092809677,-0.08124507963657379
1782776350909212200,5.526212158203125,0.2321287989616394,0.18875735998153687,-0.1411098688840866
1782776350919243800,5.536243896484375,0.20463985204696655,0.1007927656173706,-0.16737708449363708
1782776350929232000,5.54623193359375,0.1814269721508026,0.0012217304902151227,-0.15577064454555511
1782776350939232500,5.556232421875,0.1508837193250656,-0.07330382615327835,-0.1111774742603302
1782776350949220900,5.566220947265625,0.12400564551353455,-0.12950342893600464,-0.0555887371301651
1782776350959252000,5.576251953125,0.12522737681865692,-0.17409659922122955,-0.007941247895359993
1782776350969209900,5.5862099609375,0.11728613078594208,-0.23579397797584534,0.02687807008624077
1782776350979241000,5.596240966796875,0.056810468435287476,-0.2987131178379059,0.045204028487205505
1782776350989229600,5.6062294921875,-0.04886921867728233,-0.3396410644054413,0.02015855349600315
1782776350999230200,5.616230224609375,-0.12767083942890167,-0.33658674359321594,-0.028099801391363144
1782776351009218600,5.626218505859375,-0.16859880089759827,-0.29504790902137756,-0.07513642311096191
1782776351019249700,5.636249755859375,-0.2015855312347412,-0.28099802136421204,-0.09285151958465576
1782776351029238000,5.646238037109375,-0.19914206862449646,-0.2638937830924988,-0.09040805697441101
1782776351039238400,5.65623828125,-0.1918116807937622,-0.25045475363731384,-0.08185594528913498
1782776351049226800,5.666226806640625,-0.19547687470912933,-0.25961771607398987,-0.08918632566928864
1782776351059257900,5.6762578125,-0.18081611394882202,-0.2669481039047241,-0.10445795953273773
1782776351069216000,5.686216064453125,-0.15332718193531036,-0.2718350291252136,-0.12278391420841217
1782776351079247000,5.6962470703125,-0.1362229436635971,-0.3017674386501312,-0.14355333149433136
1782776351089235700,5.706235595703125,-0.14233160018920898,-0.3390302062034607,-0.15332718193531036
1782776351099236000,5.716236083984375,-0.1569923609495163,-0.36529740691185,-0.14844025671482086
1782776351109224700,5.726224609375,-0.15882496535778046,-0.37079519033432007,-0.13927727937698364
1782776351119255600,5.736255615234375,-0.16249015927314758,-0.3439171314239502,-0.10506882518529892
1782776351129213400,5.74621337890625,-0.19120082259178162,-0.3280346393585205,-0.03420845419168472
1782776351139183000,5.75618310546875,-0.2565633952617645,-0.3225368559360504,0.06658431142568588
1782776351149294000,5.766294189453125,-0.3188716471195221,-0.2828305959701538,0.20097467303276062
1782776351159233300,5.7762333984375,-0.36651915311813354,-0.30970868468284607,0.3335324227809906
1782776351169222100,5.78622216796875,-0.43737950921058655,-0.4337143301963806,0.3854559659957886
1782776351179252700,5.796252685546875,-0.5381723046302795,-0.5076290369033813,0.26633724570274353
1782776351189211100,5.806211181640625,-0.627358615398407,-0.5418374538421631,-0.028099801391363144
1782776351199241700,5.81624169921875,-0.6939429044723511,-0.5455026626586914,-0.40683624148368835
1782776351209230600,5.826230712890625,-0.7275404930114746,-0.49357911944389343,-0.7128797173500061
1782776351219231200,5.836231201171875,-0.7312057018280029,-0.41661009192466736,-0.8216137290000916
1782776351229219600,5.846219482421875,-0.7141014933586121,-0.3127630054950714,-0.7312057018280029
1782776351239279400,5.856279296875,-0.7098253965377808,-0.09162978827953339,-0.3323107063770294
1782776351249208600,5.86620849609375,-0.7018841505050659,0.0403171069920063,0.00855211354792118
1782776351259240700,5.87624072265625,-0.6664539575576782,0.13316862285137177,0.33108896017074585
1782776351269228300,5.886228271484375,-0.5503895878791809,0.23396138846874237,0.5253441333770752
1782776351279260000,5.896260009765625,-0.41233405470848083,0.3445279896259308,0.5387831330299377
1782776351289217300,5.90621728515625,-0.3219259977340698,0.42638394236564636,0.46181413531303406
1782776351299249000,5.916248779296875,-0.2828305959701538,0.4813618063926697,0.384845107793808
1782776351309237000,5.926237060546875,-0.24190263450145721,0.5387831330299377,0.34208452701568604
1782776351319238000,5.93623779296875,-0.18997909128665924,0.5510004758834839,0.32131510972976685
1782776351329225700,5.946225830078125,-0.13744467496871948,0.4905247986316681,0.3066543638706207
1782776351339256600,5.956256591796875,-0.08491026610136032,0.37079519033432007,0.2926044464111328
1782776351349214700,5.966214599609375,-0.05192354694008827,0.23945917189121246,0.29077184200286865
1782776351359246000,5.97624609375,-0.05253441259264946,0.09529497474431992,0.29077184200286865
1782776351369234200,5.986234130859375,-0.06963863968849182,-0.0507018156349659,0.2919935882091522
1782776351379234600,5.996234619140625,-0.10873401165008545,-0.16432274878025055,0.26939156651496887
1782776351389223400,6.006223388671875,-0.13439035415649414,-0.24373523890972137,0.1966986060142517
1782776351399253500,6.01625341796875,-0.13500121235847473,-0.2773328125476837,0.0959058403968811
1782776351409212400,6.02621240234375,-0.12217304855585098,-0.27977627515792847,-0.00427605677396059
1782776351419242800,6.03624267578125,-0.10201449692249298,-0.22968533635139465,-0.08246681094169617
1782776351429231900,6.04623193359375,-0.08674286305904388,-0.13500121235847473,-0.1258382350206375
1782776351439232300,6.056232177734375,-0.08429940044879913,-0.012217304669320583,-0.1368338167667389
1782776351449220900,6.066220947265625,-0.07880161702632904,0.10018189996480942,-0.13377949595451355
1782776351459252000,6.076251953125,-0.048258353024721146,0.1765400618314743,-0.1111774742603302
1782776351469209900,6.0862099609375,0.009773843921720982,0.2382374405860901,-0.059864792972803116
1782776351479241000,6.096240966796875,0.09712757170200348,0.27611109614372253,0.01466076634824276
1782776351489229600,6.1062294921875,0.18936823308467865,0.25961771607398987,0.08674286305904388
1782776351499230200,6.116230224609375,0.27977627515792847,0.1973094791173935,0.13439035415649414
1782776351509218600,6.126218505859375,0.36163222789764404,0.13439035415649414,0.15821409225463867
1782776351519250000,6.13625,0.423329621553421,0.07819075137376785,0.1771509200334549
1782776351529237800,6.14623779296875,0.455705463886261,0.01710422709584236,0.19792033731937408
1782776351539239000,6.156239013671875,0.47342056035995483,-0.03176499158143997,0.22602014243602753
1782776351549227000,6.16622705078125,0.4758640229701996,-0.04092797264456749,0.24923302233219147
1782776351559258400,6.17625830078125,0.4612032473087311,-0.04337143152952194,0.24129177629947662
1782776351569216000,6.186216064453125,0.43127086758613586,-0.05619960278272629,0.19425514340400696
1782776351579247000,6.1962470703125,0.413555771112442,-0.05619960278272629,0.11545353382825851
1782776351589235500,6.2062353515625,0.40133845806121826,-0.06230825558304787,0.031154127791523933
1782776351599236400,6.216236328125,0.38728857040405273,-0.04642575979232788,-0.036651913076639175
1782776351609224400,6.226224365234375,0.384845107793808,0.036041051149368286,-0.07208210229873657
1782776351619256000,6.236256103515625,0.39645153284072876,0.17531833052635193,-0.07391469180583954
1782776351629213700,6.246213623046875,0.4086688458919525,0.35185837745666504,-0.039095375686883926
1782776351639244800,6.256244873046875,0.4288274049758911,0.5406157374382019,0.0012217304902151227
1782776351649233000,6.26623291015625,0.46242499351501465,0.6646214127540588,0.02932153269648552
1782776351659233500,6.276233642578125,0.5247332453727722,0.6988298296928406,0.04459316283464432
1782776351669222100,6.28622216796875,0.5852088928222656,0.6542366743087769,0.06841690838336945
1782776351679253200,6.296253173828125,0.6352998614311218,0.6059783101081848,0.10995574295520782
1782776351689211100,6.306211181640625,0.6701191663742065,0.5754350423812866,0.16554448008537292
1782776351699242500,6.316242431640625,0.6951646208763123,0.5351179838180542,0.23640485107898712
1782776351709230800,6.32623095703125,0.7165449261665344,0.5112941861152649,0.3029891550540924
1782776351719231500,6.3362314453125,0.7379252314567566,0.5082398653030396,0.3378084897994995
1782776351729219600,6.346219482421875,0.7715228199958801,0.5057964324951172,0.3292563557624817
1782776351739251000,6.3562509765625,0.816726803779602,0.4960225820541382,0.28466320037841797
1782776351749208600,6.36620849609375,0.8820894360542297,0.5094616413116455,0.23029619455337524
1782776351759240000,6.376239990234375,0.9450085163116455,0.5583308339118958,0.18081611394882202
1782776351769228000,6.38622802734375,0.988990843296051,0.6407976150512695,0.1417207419872284
1782776351779259400,6.39625927734375,1.0024298429489136,0.7519751191139221,0.12095131725072861
1782776351789217300,6.40621728515625,1.0067058801651,0.8246681094169617,0.1160643994808197
1782776351799248600,6.41624853515625,1.024420976638794,0.8350527882575989,0.12828169763088226
1782776351809237000,6.426237060546875,1.06657075881958,0.779464066028595,0.14538592100143433
1782776351819175700,6.43617578125,1.1362093687057495,0.6395758986473083,0.14782938361167908
1782776351831620400,6.448620361328125,1.2040153741836548,0.43676865100860596,0.09224065393209457
1782776351849214200,6.466214111328125,1.214400053024292,0.14049901068210602,-0.17348572611808777
1782776351859244800,6.476244873046875,1.122159481048584,0.1722639948129654,-0.2926044464111328
1782776351869234000,6.48623388671875,0.9859365224838257,0.28588494658470154,-0.35674530267715454
1782776351879234600,6.496234619140625,0.8631525635719299,0.43799036741256714,-0.36163222789764404
1782776351889222700,6.50622265625,0.807563841342926,0.5974262356758118,-0.33108896017074585
1782776351899254800,6.5162548828125,0.8319984674453735,0.6908885836601257,-0.2877175211906433
1782776351909211600,6.526211669921875,0.9083566069602966,0.6890559792518616,-0.23396138846874237
1782776351919181800,6.536181884765625,1.0366383790969849,0.6572909951210022,-0.14049901068210602
1782776351929232000,6.54623193359375,1.1814134120941162,0.6517932415008545,-0.028099801391363144
1782776351939232300,6.556232177734375,1.2779301404953003,0.6511823534965515,0.06230825558304787
1782776351949220900,6.566220947265625,1.3017538785934448,0.6579018831253052,0.11362093687057495
1782776351959252000,6.576251953125,1.2663236856460571,0.6713408827781677,0.12339477986097336
1782776351969209900,6.5862099609375,1.1759155988693237,0.6713408827781677,0.1014036312699318
1782776351979240700,6.59624072265625,1.0653489828109741,0.627358615398407,0.06169738993048668
1782776351990293500,6.60729345703125,0.9388998746871948,0.4856378734111786,0.001832595793530345
1782776352009178000,6.62617822265625,0.8820894360542297,0.26450464129447937,-0.07208210229873657
1782776352019249000,6.636248779296875,0.8649851679801941,0.11056660860776901,-0.16493362188339233
1782776352030189600,6.647189453125,0.8442157506942749,-0.08796459436416626,-0.3640756905078888
1782776352049226800,6.666226806640625,0.8155050873756409,-0.14966198801994324,-0.5271766781806946
1782776352059259000,6.6762587890625,0.7819074988365173,-0.08796459436416626,-0.5736024379730225
1782776352069216000,6.686216064453125,0.7464773058891296,0.018325956538319588,-0.5577199459075928
1782776352079248000,6.696247802734375,0.7312057018280029,0.19914206862449646,-0.45265114307403564
1782776352089235500,6.7062353515625,0.7745771408081055,0.28099802136421204,-0.36224308609962463
1782776352099205000,6.716205078125,0.8607091307640076,0.33047810196876526,-0.26083946228027344
1782776352110241300,6.7272412109375,0.9615018963813782,0.3634648323059082,-0.15882496535778046
1782776352129213400,6.74621337890625,1.0561859607696533,0.38728857040405273,0.036041051149368286
1782776352139245300,6.756245361328125,1.0433578491210938,0.3836233615875244,0.11545353382825851
1782776352149233000,6.76623291015625,1.0085384845733643,0.3787364661693573,0.15332718193531036
1782776352159233800,6.77623388671875,0.96883225440979,0.36102136969566345,0.1472185254096985
1782776352169222100,6.78622216796875,0.931569516658783,0.35674530267715454,0.10262536257505417
1782776352179252700,6.796252685546875,0.8912523984909058,0.34025195240974426,0.03848451003432274
1782776352189211100,6.806211181640625,0.8607091307640076,0.3335324227809906,-0.01466076634824276
1782776352199242200,6.8162421875,0.837496280670166,0.3219259977340698,-0.04642575979232788
1782776352209230600,6.826230712890625,0.8203920125961304,0.2626720666885376,-0.04886921867728233
1782776352219231500,6.8362314453125,0.8014551997184753,0.1563815027475357,-0.031154127791523933
1782776352229219600,6.846219482421875,0.7721336483955383,0.08124507963657379,0.00733038317412138
1782776352239250700,6.856250732421875,0.7318165898323059,0.03726277872920036,0.05314527451992035
1782776352249208600,6.86620849609375,0.6878342628479004,0.0659734457731247,0.13255776464939117
1782776352259239700,6.87623974609375,0.6389650702476501,0.08429940044879913,0.22052235901355743
1782776352269228300,6.886228271484375,0.6218608021736145,0.05375614017248154,0.2632829248905182
1782776352279259100,6.896259033203125,0.626747727394104,0.01038470957428217,0.26572638750076294
1782776352289217300,6.90621728515625,0.6035348773002625,-0.09957103431224823,0.22479841113090515
1782776352299248600,6.91624853515625,0.5619960427284241,-0.152105450630188,0.19058994948863983
1782776352309236700,6.92623681640625,0.5064072608947754,-0.18997909128665924,0.1563815027475357
