time,seconds_elapsed,z,y,x
1782777585433229000,0.20122900390625,0.9030628204345703,0.30768823623657227,-0.013468191027641296
1782777585443239000,0.211239013671875,1.0587759017944336,0.25782275199890137,-0.1296984702348709
1782777585453248800,0.221248779296875,1.0244770050048828,0.18021583557128906,-0.18727834522724152
1782777585463228000,0.231227783203125,0.9525823593139648,0.11953449249267578,-0.13849709928035736
1782777585473237800,0.24123779296875,0.6792945861816406,0.11896228790283203,-0.06745961308479309
1782777585483247600,0.25124755859375,0.1522226333618164,0.09114980697631836,0.0011596530675888062
1782777585493226800,0.261226806640625,-0.38873863220214844,0.013974189758300781,0.014800682663917542
1782777585503236400,0.271236328125,-0.8145971298217773,-0.04464411735534668,0.047265827655792236
1782777585513246200,0.28124609375,-0.9996881484985352,-0.09636950492858887,-0.007370859384536743
1782777585523225300,0.291225341796875,-1.0738487243652344,-0.20505595207214355,-0.028009429574012756
1782777585533235200,0.301235107421875,-1.0516090393066406,-0.31419825553894043,0.0004661828279495239
1782777585543245000,0.3112451171875,-0.7529287338256836,-0.39966893196105957,-0.11414104700088501
1782777585553224200,0.32122412109375,-0.43351173400878906,-0.42712879180908203,-0.1470440924167633
1782777585563234000,0.331234130859375,-0.1675701141357422,-0.26183176040649414,-0.03989860415458679
1782777585573244000,0.341243896484375,-0.19510459899902344,-0.0019838809967041016,0.0013437867164611816
1782777585583223000,0.35122314453125,-0.22190570831298828,-0.0702066421508789,0.1562841832637787
1782777585593233000,0.36123291015625,-0.5094537734985352,-0.2537057399749756,0.4865664839744568
1782777585603242500,0.371242431640625,-0.6768226623535156,-0.1543114185333252,0.7160443663597107
1782777585613221600,0.3812216796875,-0.4042682647705078,-0.0312960147857666,0.8641447424888611
1782777585623231500,0.3912314453125,0.3830690383911133,-0.15085625648498535,0.9861589670181274
1782777585633241300,0.401241455078125,1.4519224166870117,-0.621830940246582,0.7854827642440796
1782777585643220500,0.411220458984375,2.5086631774902344,-1.1355615854263306,0.27102234959602356
1782777585653230300,0.421230224609375,3.19620418548584,-1.3492287397384644,-0.5152910947799683
1782777585663240200,0.431240234375,3.540487289428711,-1.4943166971206665,-1.1122064590454102
1782777585673219300,0.44121923828125,3.488950729370117,-1.529088020324707,-1.373924732208252
1782777585683229200,0.451229248046875,2.739060401916504,-0.5206296443939209,-0.742416262626648
1782777585693239000,0.461239013671875,1.9318914413452148,-0.2205134630203247,-0.38258326053619385
1782777585703248600,0.47124853515625,1.0806903839111328,0.06583750247955322,0.05191946029663086
1782777585713227800,0.481227783203125,0.3802766799926758,0.22418665885925293,0.3789776861667633
1782777585723237600,0.491237548828125,-0.15346431732177734,0.32377195358276367,0.5941864252090454
1782777585733247500,0.50124755859375,-0.5116205215454102,0.38035428524017334,0.5820540189743042
1782777585743226600,0.5112265625,-0.70172119140625,0.4223443269729614,0.5461392998695374
1782777585753236500,0.521236572265625,-0.8580408096313477,0.45814621448516846,0.44834259152412415
1782777585763246300,0.531246337890625,-0.8799171447753906,0.5302872657775879,0.4378252327442169
1782777585773225500,0.5412255859375,-0.8248090744018555,0.640509843826294,0.621676504611969
1782777585783235300,0.5512353515625,-0.6423377990722656,0.7829287052154541,1.0470590591430664
1782777585793245000,0.561244873046875,-0.27512454986572266,0.9005171060562134,1.564719319343567
1782777585803224300,0.571224365234375,0.23329544067382812,0.6536035537719727,1.6644260883331299
1782777585813234200,0.581234130859375,0.49890708923339844,0.693482518196106,2.21616530418396
1782777585823243800,0.591243896484375,0.6167926788330078,0.7526084184646606,2.6111254692077637
1782777585833223000,0.601222900390625,0.6898593902587891,0.7713919878005981,2.697006940841675
1782777585843232800,0.611232666015625,0.709202766418457,0.6001393795013428,2.4146463871002197
1782777585853242600,0.62124267578125,0.7459192276000977,0.3629748821258545,1.9722312688827515
1782777585863221800,0.6312216796875,0.9149074554443359,0.16751456260681152,1.3500325679779053
1782777585873231600,0.641231689453125,0.9822711944580078,0.003846287727355957,0.9268108606338501
1782777585883241500,0.651241455078125,0.8654346466064453,-0.09756743907928467,0.6278076171875
1782777585893220600,0.661220703125,0.4867067337036133,-0.03493773937225342,0.5431660413742065
1782777585903230500,0.67123046875,-0.19832706451416016,0.09616291522979736,0.6452458500862122
1782777585913240000,0.681239990234375,-1.0841903686523438,0.24210572242736816,0.8197410106658936
1782777585923219200,0.69121923828125,-1.9624814987182617,0.3514246940612793,0.9081079959869385
1782777585933229000,0.70122900390625,-2.81020450592041,0.43203794956207275,0.9737801551818848
1782777585943239000,0.711239013671875,-3.475109100341797,0.520078182220459,0.945124626159668
1782777585953248800,0.721248779296875,-3.812650203704834,0.6083242893218994,0.928810715675354
1782777585963228000,0.731227783203125,-3.711526870727539,0.7355258464813232,0.9289904236793518
1782777585973237800,0.74123779296875,-3.357090473175049,0.8648834228515625,1.1060950756072998
1782777585983247600,0.75124755859375,-2.8237733840942383,0.8934695720672607,1.161534309387207
1782777585993226800,0.761226806640625,-2.2334823608398438,0.8964393138885498,1.0549166202545166
1782777586003236400,0.771236328125,-1.731222152709961,0.8716838359832764,0.8145894408226013
1782777586013246200,0.78124609375,-1.3684959411621094,0.8619372844696045,0.5891337394714355
1782777586023225300,0.791225341796875,-1.1181154251098633,0.8561973571777344,0.4121130704879761
1782777586033235200,0.801235107421875,-0.9819364547729492,0.8906819820404053,0.37696224451065063
1782777586043245000,0.8112451171875,-0.9549036026000977,0.957106351852417,0.46832919120788574
1782777586053224200,0.82122412109375,-1.0776805877685547,1.0599229335784912,0.5624744892120361
1782777586063234000,0.831234130859375,-1.278651237487793,1.1831433773040771,0.672385573387146
1782777586073244000,0.841243896484375,-1.5822691917419434,1.2951743602752686,0.7358299493789673
1782777586083223000,0.85122314453125,-1.6445670127868652,1.3442440032958984,0.654127836227417
1782777586093233000,0.86123291015625,-1.5765504837036133,1.4036202430725098,0.588632345199585
1782777586103242500,0.871242431640625,-1.3881301879882812,1.4244277477264404,0.4542505443096161
1782777586113221600,0.8812216796875,-1.1295623779296875,1.430790662765503,0.2743929326534271
1782777586123231500,0.8912314453125,-0.8194608688354492,1.3504762649536133,0.11696484684944153
1782777586133241300,0.901241455078125,-0.5572576522827148,1.3875939846038818,0.04187306761741638
1782777586143220500,0.911220458984375,-0.3709888458251953,1.4552748203277588,0.07299566268920898
1782777586153230300,0.921230224609375,-0.2863960266113281,1.5432860851287842,0.18944817781448364
1782777586163240200,0.931240234375,-0.18607711791992188,1.1533153057098389,0.13947761058807373
1782777586173219300,0.94121923828125,-0.26081275939941406,0.8650202751159668,0.08386778831481934
1782777586183229200,0.951229248046875,-0.6780529022216797,0.9300642013549805,0.13119101524353027
1782777586193238800,0.96123876953125,-1.0427131652832031,0.9590234756469727,0.12041747570037842
1782777586203248600,0.97124853515625,-1.3367881774902344,0.9414966106414795,0.2043260633945465
1782777586213227800,0.981227783203125,-1.4967193603515625,0.9409480094909668,0.3324664235115051
1782777586223237600,0.991237548828125,-1.3436012268066406,0.9907381534576416,0.5662422180175781
1782777586233247500,1.00124755859375,-1.1102018356323242,0.9416553974151611,0.8458409905433655
1782777586243226600,1.0112265625,-0.7559976577758789,0.8228085041046143,0.9852659106254578
1782777586253236500,1.021236572265625,-0.14423370361328125,0.6643021106719971,0.987311840057373
1782777586263246300,1.031246337890625,0.6370925903320312,0.5286614894866943,0.9982948303222656
1782777586273225500,1.0412255859375,1.2122993469238281,0.3194921016693115,1.086464524269104
1782777586283235300,1.0512353515625,1.565481185913086,0.17247867584228516,0.9944296479225159
1782777586293245000,1.061244873046875,1.6229591369628906,0.030083417892456055,0.5077023506164551
1782777586303224300,1.071224365234375,1.3328256607055664,-0.10641336441040039,-0.09615111351013184
1782777586313234200,1.081234130859375,0.740361213684082,-0.22936415672302246,-0.5397542119026184
1782777586323243800,1.091243896484375,0.08440971374511719,-0.3154296875,-0.8808155059814453
1782777586333223000,1.101222900390625,-0.07042312622070312,-0.3679780960083008,-0.8013415932655334
1782777586343232800,1.111232666015625,0.540374755859375,-0.3883669376373291,-0.33379071950912476
1782777586353242600,1.12124267578125,2.1367435455322266,-0.3975093364715576,0.5562539100646973
1782777586363221800,1.1312216796875,4.038714408874512,-0.44775843620300293,1.8209248781204224
1782777586373231600,1.141231689453125,5.909156799316406,-0.5829126834869385,2.978914260864258
1782777586383241500,1.151241455078125,7.0300445556640625,-0.8117666244506836,3.6436245441436768
1782777586393220600,1.161220703125,6.792702674865723,-1.0999512672424316,3.3419694900512695
1782777586403230500,1.17123046875,5.337328910827637,-1.3801456689834595,2.368332862854004
1782777586413240000,1.181239990234375,3.2597169876098633,-1.6977216005325317,1.2371231317520142
1782777586423219500,1.191219482421875,1.5057077407836914,-2.0459811687469482,0.18505346775054932
1782777586433229000,1.20122900390625,0.29607677459716797,-2.374666213989258,-0.6238793730735779
1782777586443239000,1.211239013671875,-0.389984130859375,-2.6085872650146484,-1.2225961685180664
1782777586453248800,1.221248779296875,-0.8048410415649414,-2.7705624103546143,-1.554909110069275
1782777586463228000,1.231227783203125,-1.1981744766235352,-2.8104588985443115,-1.6438264846801758
1782777586473237800,1.24123779296875,-1.612626552581787,-2.708348035812378,-1.589733600616455
1782777586483247600,1.25124755859375,-1.9705123901367188,-2.545234203338623,-1.4084841012954712
1782777586493226800,1.261226806640625,-2.1474671363830566,-2.3865966796875,-1.0356301069259644
1782777586503236600,1.271236572265625,-2.1020922660827637,-2.2278149127960205,-0.43342292308807373
1782777586513246200,1.28124609375,-1.9178266525268555,-2.019827365875244,0.1059887558221817
1782777586523225300,1.291225341796875,-1.7766156196594238,-1.8297719955444336,0.6087424755096436
1782777586533235200,1.301235107421875,-1.66483736038208,-1.6102197170257568,1.037994623184204
1782777586543245000,1.3112451171875,-1.475344181060791,-1.4146757125854492,1.402304768562317
1782777586553224200,1.32122412109375,-1.1708412170410156,-1.2114717960357666,1.7866337299346924
1782777586563234000,1.331234130859375,-0.7926044464111328,-1.0590229034423828,2.006788969039917
1782777586573244000,1.341243896484375,-0.2858734130859375,-0.9878146648406982,1.9908565282821655
1782777586583223000,1.35122314453125,0.3372364044189453,-1.0094795227050781,1.7685245275497437
1782777586593233000,1.36123291015625,0.8719663619995117,-1.091667652130127,1.42764151096344
1782777586603242500,1.371242431640625,1.2590198516845703,-1.2915422916412354,0.8682416677474976
1782777586613221600,1.3812216796875,1.367955207824707,-1.418347716331482,0.3722597062587738
1782777586623231500,1.3912314453125,1.2306489944458008,-1.5450115203857422,-0.08947539329528809
1782777586633241300,1.401241455078125,0.9083719253540039,-1.6285396814346313,-0.38854074478149414
1782777586643220500,1.411220458984375,0.45860862731933594,-1.6067537069320679,-0.48058196902275085
1782777586653230300,1.421230224609375,-0.24034976959228516,-1.456617832183838,-0.3295861482620239
1782777586663240200,1.431240234375,-0.96429443359375,-1.2168292999267578,-0.14691001176834106
1782777586673219600,1.441219482421875,-1.5952239036560059,-1.0237061977386475,0.034708172082901
1782777586683229200,1.451229248046875,-2.064215660095215,-0.9300928115844727,0.16296425461769104
1782777586693239000,1.461239013671875,-2.302799701690674,-0.8872475624084473,0.23050865530967712
1782777586703248600,1.47124853515625,-2.515517234802246,-0.801145076751709,0.29756638407707214
1782777586713227800,1.481227783203125,-2.631577491760254,-0.7528903484344482,0.365068644285202
1782777586723237600,1.491237548828125,-2.685417652130127,-0.6850223541259766,0.3379419147968292
1782777586733247500,1.50124755859375,-2.5678210258483887,-0.6692328453063965,0.18483945727348328
1782777586743226600,1.5112265625,-2.3391966819763184,-0.6869807243347168,0.001653820276260376
1782777586753236500,1.521236572265625,-2.013737678527832,-0.7049691677093506,-0.1739872246980667
1782777586763246300,1.531246337890625,-1.442920207977295,-0.6967480182647705,-0.341878741979599
1782777586773225500,1.5412255859375,-0.702610969543457,-0.6880214214324951,-0.4191316068172455
1782777586783235300,1.5512353515625,0.031219482421875,-0.6461338996887207,-0.49540501832962036
1782777586793245000,1.561244873046875,0.547368049621582,-0.5530133247375488,-0.48752474784851074
1782777586803224300,1.571224365234375,0.8401298522949219,-0.42580604553222656,-0.39231133460998535
1782777586813234200,1.581234130859375,1.0756120681762695,-0.28702449798583984,-0.3331046998500824
1782777586823243800,1.591243896484375,1.2468862533569336,-0.17122626304626465,-0.1280193328857422
1782777586833223000,1.601222900390625,1.2824726104736328,-0.04871535301208496,0.228562593460083
1782777586843232800,1.611232666015625,1.244882583618164,0.12002873420715332,0.5328524112701416
1782777586853242600,1.62124267578125,1.2583332061767578,0.26143550872802734,0.6407324075698853
1782777586863221800,1.6312216796875,1.2577390670776367,0.3436310291290283,0.7296168804168701
1782777586873231600,1.641231689453125,1.1755876541137695,0.3420264720916748,0.7406253814697266
1782777586883241500,1.651241455078125,1.1528043746948242,0.3508741855621338,0.7340956926345825
1782777586893220600,1.661220703125,1.0405101776123047,0.34782886505126953,0.7442173957824707
1782777586903230500,1.67123046875,0.9488439559936523,0.3214094638824463,0.7668509483337402
1782777586913240000,1.681239990234375,0.9304866790771484,0.3412618637084961,0.8688264489173889
1782777586923219200,1.69121923828125,0.9662857055664062,0.3579216003417969,1.0884697437286377
1782777586933229000,1.70122900390625,1.0630083084106445,0.33736562728881836,1.221815824508667
1782777586943239000,1.711239013671875,1.1889867782592773,0.3102102279663086,1.2435438632965088
1782777586953248800,1.721248779296875,1.1828536987304688,0.18773555755615234,1.176735520362854
1782777586963228000,1.731227783203125,0.9887447357177734,0.08807921409606934,0.974395215511322
1782777586973237800,1.74123779296875,0.6874790191650391,0.062345266342163086,0.8781251311302185
1782777586983247600,1.75124755859375,0.38669490814208984,0.0033102035522460938,0.9193562269210815
1782777586993226800,1.761226806640625,0.4312295913696289,-0.10532259941101074,1.2318850755691528
1782777587003236400,1.771236328125,0.9675197601318359,-0.2925894260406494,1.8024444580078125
1782777587013246200,1.78124609375,1.8514289855957031,-0.5724155902862549,2.334529399871826
1782777587023225300,1.791225341796875,2.7522430419921875,-0.9372402429580688,2.5992159843444824
1782777587033235200,1.801235107421875,3.458883285522461,-1.2021818161010742,2.223911762237549
1782777587043245000,1.8112451171875,3.575676918029785,-1.4785749912261963,1.4022002220153809
1782777587053224200,1.82122412109375,3.1987428665161133,-1.7919021844863892,0.4070512056350708
1782777587063234000,1.831234130859375,2.439204216003418,-2.1214587688446045,-0.5654125809669495
1782777587073244000,1.841243896484375,1.533158302307129,-2.3230433464050293,-1.21345055103302
1782777587083223000,1.85122314453125,0.6188583374023438,-2.311789035797119,-1.3935317993164062
1782777587093233000,1.86123291015625,-0.08137893676757812,-2.1367626190185547,-1.1252236366271973
1782777587103242500,1.871242431640625,-0.6648149490356445,-1.9604558944702148,-0.48097914457321167
1782777587113221600,1.8812216796875,-1.1501960754394531,-1.7610623836517334,0.3028097152709961
1782777587123231500,1.8912314453125,-1.518918514251709,-1.5853796005249023,1.014865517616272
1782777587133241300,1.901241455078125,-1.8414306640625,-1.3689820766448975,1.7688889503479004
1782777587143220500,1.911220458984375,-2.018077850341797,-1.2363849878311157,2.318333387374878
1782777587153230300,1.921230224609375,-2.0857176780700684,-1.112452507019043,2.778839588165283
1782777587163240200,1.931240234375,-2.0066590309143066,-1.1148877143859863,2.983564853668213
1782777587173219300,1.94121923828125,-1.7890076637268066,-1.1746978759765625,3.0191895961761475
1782777587183229200,1.951229248046875,-1.4493842124938965,-1.28423273563385,2.922152280807495
1782777587193238800,1.96123876953125,-1.1485595703125,-1.3946911096572876,2.8679375648498535
1782777587203248600,1.97124853515625,-0.9466371536254883,-1.5689231157302856,2.8065576553344727
1782777587213227800,1.981227783203125,-0.8973712921142578,-1.7294111251831055,2.72127628326416
1782777587223237600,1.991237548828125,-0.8414402008056641,-1.8265907764434814,2.6080048084259033
1782777587233247500,2.00124755859375,-0.6863336563110352,-1.834182620048523,2.4984230995178223
1782777587243226600,2.0112265625,-0.42747020721435547,-1.7793819904327393,2.410051107406616
1782777587253236500,2.021236572265625,-0.10505104064941406,-1.6839544773101807,2.3165388107299805
1782777587263246300,2.031246337890625,0.2554035186767578,-1.5899287462234497,2.1271777153015137
1782777587273225500,2.0412255859375,0.5115213394165039,-1.560855746269226,1.829084038734436
1782777587283235300,2.0512353515625,0.6715908050537109,-1.5271891355514526,1.5314013957977295
1782777587293245000,2.061244873046875,0.6365718841552734,-1.4474989175796509,1.257084846496582
1782777587303224300,2.071224365234375,0.3861656188964844,-1.2965843677520752,1.0447735786437988
1782777587313234200,2.081234130859375,-0.04285430908203125,-1.0829963684082031,0.9558831453323364
1782777587323243800,2.091243896484375,-0.4752388000488281,-0.8352041244506836,1.0109965801239014
1782777587333223000,2.101222900390625,-0.911041259765625,-0.5694985389709473,1.1906020641326904
1782777587343232800,2.111232666015625,-1.2624406814575195,-0.2856912612915039,1.313422441482544
1782777587353242600,2.12124267578125,-1.4329628944396973,-0.0602114200592041,1.443897008895874
1782777587363221800,2.1312216796875,-1.496020793914795,0.10637497901916504,1.5773217678070068
1782777587373231600,2.141231689453125,-1.5149459838867188,0.29827308654785156,1.7224433422088623
1782777587383241500,2.151241455078125,-1.3871378898620605,0.4563868045806885,1.807992696762085
1782777587393220600,2.161220703125,-1.1652326583862305,0.5424344539642334,1.8359355926513672
1782777587403230500,2.17123046875,-0.9973230361938477,0.5937817096710205,1.870367169380188
1782777587413240300,2.181240234375,-0.8557119369506836,0.5470128059387207,1.291846513748169
1782777587423219500,2.191219482421875,-0.866084098815918,0.5167012214660645,1.0149078369140625
1782777587433229000,2.20122900390625,-0.9256629943847656,0.4521617889404297,0.6106979846954346
1782777587443239000,2.211239013671875,-0.9533376693725586,0.32654523849487305,-0.03514218330383301
1782777587453248800,2.221248779296875,-1.0518097877502441,0.2606484889984131,-0.5665973424911499
1782777587463228000,2.231227783203125,-1.1878561973571777,0.2866494655609131,-0.8321744203567505
1782777587473237800,2.24123779296875,-1.2859368324279785,0.2744607925415039,-1.0407451391220093
1782777587483247600,2.25124755859375,-1.361112117767334,0.2081892490386963,-1.2289148569107056
1782777587493226800,2.261226806640625,-1.6247024536132812,0.14145612716674805,-1.368931770324707
1782777587503236600,2.271236572265625,-1.9384775161743164,0.03624105453491211,-1.5756468772888184
1782777587513246200,2.28124609375,-2.1761579513549805,-0.05066823959350586,-1.7526001930236816
1782777587523225300,2.291225341796875,-2.414234161376953,-0.1362321376800537,-1.809389591217041
1782777587533235200,2.301235107421875,-2.4941396713256836,-0.23108768463134766,-1.965434193611145
1782777587543245000,2.3112451171875,-2.3053011894226074,-0.34896302223205566,-2.1900415420532227
1782777587553224200,2.32122412109375,-1.8899531364440918,-0.4705190658569336,-2.4182262420654297
1782777587563234000,2.331234130859375,-1.2496867179870605,-0.6036684513092041,-2.523845672607422
1782777587573244000,2.341243896484375,-0.604405403137207,-0.699700117111206,-2.5114967823028564
1782777587583223000,2.35122314453125,0.055108070373535156,-0.7641746997833252,-2.4263134002685547
1782777587593233000,2.36123291015625,0.7483625411987305,-0.8182399272918701,-2.3412013053894043
1782777587603242500,2.371242431640625,1.5237083435058594,-0.830120325088501,-2.2319138050079346
1782777587613221600,2.3812216796875,2.253326416015625,-0.7582378387451172,-2.073810577392578
1782777587623231500,2.3912314453125,2.9312562942504883,-0.6133308410644531,-1.8394877910614014
1782777587633241300,2.401241455078125,3.3017578125,-0.4804863929748535,-1.6336456537246704
1782777587643220500,2.411220458984375,3.0598506927490234,-0.4882619380950928,-1.3771122694015503
1782777587653230300,2.421230224609375,2.295074462890625,-0.48473501205444336,-1.0955688953399658
1782777587663240200,2.431240234375,1.4302301406860352,-0.330488920211792,-0.9558286070823669
1782777587673219600,2.441219482421875,1.058328628540039,-0.1516585350036621,-0.6363645792007446
1782777587683229200,2.451229248046875,1.1593084335327148,-0.07634162902832031,-0.08431470394134521
1782777587693239000,2.461239013671875,1.7682838439941406,-0.007498025894165039,0.3925522565841675
1782777587703248600,2.47124853515625,2.575589179992676,-0.0010001659393310547,0.5547759532928467
1782777587713227800,2.481227783203125,3.1730270385742188,-0.03761863708496094,0.5310770273208618
1782777587724176100,2.492176025390625,3.4921875,-0.24847745895385742,0.13017034530639648
1782777587743226600,2.5112265625,2.8540029525756836,-0.7967746257781982,-1.1630151271820068
1782777587753236500,2.521236572265625,2.270716667175293,-1.0398585796356201,-2.055682420730591
1782777587763246300,2.531246337890625,1.6316776275634766,-1.0667496919631958,-2.7437081336975098
1782777587773225500,2.5412255859375,0.9565849304199219,-0.8219307661056519,-2.6744112968444824
1782777587783235300,2.5512353515625,0.39620399475097656,-0.5365285873413086,-1.892710566520691
1782777587793245000,2.561244873046875,-0.048293113708496094,-0.33079028129577637,-0.9250279664993286
1782777587803224300,2.571224365234375,-0.28654956817626953,-0.3204989433288574,-0.19948065280914307
1782777587813234200,2.581234130859375,-0.5429325103759766,-0.49304890632629395,0.171547532081604
1782777587823243800,2.591243896484375,-0.8936176300048828,-0.7769813537597656,0.0577925443649292
1782777587833223000,2.601222900390625,-1.159224510192871,-0.9935276508331299,-0.42100250720977783
1782777587843232800,2.611232666015625,-1.2894587516784668,-1.300829291343689,-0.930240273475647
1782777587853242600,2.62124267578125,-1.4054508209228516,-1.617266297340393,-1.4213473796844482
1782777587863221800,2.6312216796875,-1.452303409576416,-1.7305748462677002,-1.916623592376709
1782777587873231600,2.641231689453125,-1.4796152114868164,-1.60856294631958,-2.2021408081054688
1782777587883241500,2.651241455078125,-1.4200115203857422,-1.507943034172058,-1.9103269577026367
1782777587893160700,2.66116064453125,-1.2488164901733398,-1.4767252206802368,-1.247887372970581
1782777587903291400,2.67129150390625,-0.8307609558105469,-1.418591022491455,-0.571671724319458
1782777587913240000,2.681239990234375,-0.2295675277709961,-1.3497765064239502,0.0029047727584838867
1782777587923219500,2.691219482421875,0.5961828231811523,-1.25117027759552,0.47989094257354736
1782777587933229000,2.70122900390625,1.743973731994629,-1.2271474599838257,0.8381876945495605
1782777587943239000,2.711239013671875,3.012582778930664,-1.3532013893127441,0.964246392250061
1782777587953248800,2.721248779296875,4.0622148513793945,-1.6416608095169067,0.7372950315475464
1782777587963228000,2.731227783203125,4.668355941772461,-2.039944887161255,0.21644222736358643
1782777587973237800,2.74123779296875,4.616337776184082,-2.357314109802246,-0.41360795497894287
1782777587983247600,2.75124755859375,3.77047061920166,-2.658522844314575,-1.128544807434082
1782777587993226800,2.761226806640625,2.553333282470703,-2.7682197093963623,-1.4766912460327148
1782777588003236600,2.771236572265625,1.289015769958496,-2.6532323360443115,-1.5606331825256348
1782777588013246200,2.78124609375,0.20116424560546875,-2.4637255668640137,-1.4277517795562744
1782777588023225300,2.791225341796875,-0.7931709289550781,-2.2980904579162598,-1.0090396404266357
1782777588033235200,2.801235107421875,-1.7078208923339844,-2.164494514465332,-0.4918903112411499
1782777588043245000,2.8112451171875,-2.600358009338379,-2.049741506576538,-0.15118134021759033
1782777588053224200,2.82122412109375,-3.2371859550476074,-1.9118484258651733,0.16242444515228271
1782777588063234000,2.831234130859375,-3.562411308288574,-1.7679451704025269,0.4416210651397705
1782777588073244000,2.841243896484375,-3.654208183288574,-1.692148208618164,0.6155275106430054
1782777588083223000,2.85122314453125,-3.3633384704589844,-1.7357741594314575,0.7140531539916992
1782777588093233000,2.86123291015625,-2.832439422607422,-1.884084701538086,0.6629292964935303
1782777588103242500,2.871242431640625,-2.2678442001342773,-2.0291876792907715,0.6107783317565918
1782777588113221600,2.8812216796875,-1.7221899032592773,-2.1156437397003174,0.6008284091949463
1782777588123231500,2.8912314453125,-1.2522916793823242,-2.208571672439575,0.4590078592300415
1782777588133241300,2.901241455078125,-0.7318296432495117,-2.2857701778411865,0.4346189498901367
1782777588143220500,2.911220458984375,-0.20953083038330078,-2.342790126800537,0.5237809419631958
1782777588153230300,2.921230224609375,0.17060470581054688,-2.33878231048584,0.5885738134384155
1782777588163240200,2.931240234375,0.5315952301025391,-2.302936553955078,0.6188149452209473
1782777588173219600,2.941219482421875,0.7567310333251953,-2.2683353424072266,0.5851089954376221
1782777588183229200,2.951229248046875,0.9294614791870117,-2.229583501815796,0.6172693967819214
1782777588193238800,2.96123876953125,1.073664665222168,-2.2060794830322266,0.7138800621032715
1782777588203248600,2.97124853515625,1.1986522674560547,-2.137655735015869,1.031940221786499
1782777588213227800,2.981227783203125,1.218052864074707,-2.0411124229431152,1.3767268657684326
1782777588223237600,2.991237548828125,1.1378965377807617,-1.9455864429473877,1.7110624313354492
1782777588233187800,3.001187744140625,1.110600471496582,-1.8893711566925049,1.8743222951889038
1782777588243531800,3.01153173828125,1.008580207824707,-1.9278929233551025,1.929025411605835
1782777588253236500,3.021236572265625,0.9348888397216797,-1.997254729270935,1.8588311672210693
1782777588263246300,3.031246337890625,0.8238506317138672,-2.0372157096862793,1.6985775232315063
1782777588273225500,3.0412255859375,0.6750812530517578,-1.9220359325408936,1.6700940132141113
1782777588283235300,3.0512353515625,0.13492298126220703,-1.8890292644500732,1.8160823583602905
1782777588293245000,3.061244873046875,-0.5567731857299805,-1.848233699798584,2.1462979316711426
1782777588303224300,3.071224365234375,-1.0928525924682617,-1.5850019454956055,2.9080376625061035
1782777588313174300,3.08117431640625,-0.8492965698242188,-1.1798253059387207,3.7616147994995117
1782777588324076800,3.092076904296875,0.13820457458496094,-0.9873371124267578,4.61503791809082
1782777588343232800,3.111232666015625,2.315397262573242,-2.1418309211730957,5.286856651306152
1782777588353183000,3.121182861328125,3.054429054260254,-2.966118812561035,4.894344329833984
1782777588363915000,3.1319150390625,3.2723770141601562,-3.7927205562591553,3.892146348953247
1782777588383241500,3.151241455078125,2.509319305419922,-4.947194576263428,1.5354719161987305
1782777588393220600,3.161220703125,2.2300033569335938,-5.194468021392822,0.4292922019958496
1782777588403230200,3.171230224609375,2.21579647064209,-5.270323753356934,-0.3667865991592407
1782777588413240000,3.181239990234375,2.427151679992676,-5.368093967437744,-0.785422682762146
1782777588423219200,3.19121923828125,2.6764488220214844,-5.4310736656188965,-0.871117353439331
1782777588433169400,3.20116943359375,2.8252296447753906,-5.368896484375,-0.8512325286865234
1782777588443177000,3.211177001953125,2.7641773223876953,-5.169294834136963,-0.7333635091781616
1782777588453248800,3.221248779296875,2.401116371154785,-4.880411148071289,-0.5093033313751221
1782777588463228000,3.231227783203125,1.7652664184570312,-4.516097068786621,-0.11657893657684326
1782777588473237800,3.24123779296875,0.8958816528320312,-4.202410697937012,0.3177647590637207
1782777588483247400,3.251247314453125,-0.02065753936767578,-3.9734368324279785,0.6425820589065552
1782777588493226800,3.261226806640625,-0.8298883438110352,-3.783069610595703,0.887809157371521
1782777588503236400,3.271236328125,-1.4855852127075195,-3.653167247772217,1.1672208309173584
1782777588513246200,3.28124609375,-1.9538230895996094,-3.6100974082946777,1.4800444841384888
1782777588523225300,3.291225341796875,-2.1694579124450684,-3.636369228363037,1.6303696632385254
1782777588533235200,3.301235107421875,-2.065927505493164,-3.710022211074829,1.6862248182296753
1782777588543245000,3.3112451171875,-1.7313103675842285,-3.805245876312256,1.7227026224136353
1782777588553224200,3.32122412109375,-1.141824722290039,-3.891667366027832,1.8531155586242676
1782777588563234000,3.331234130859375,-0.45719146728515625,-3.9441988468170166,2.066901683807373
1782777588573244000,3.341243896484375,0.2575054168701172,-3.9989805221557617,2.2202281951904297
1782777588583223000,3.35122314453125,0.9576282501220703,-4.040444850921631,2.2517812252044678
1782777588593232600,3.361232666015625,1.7231369018554688,-4.0582780838012695,2.2141361236572266
1782777588603242500,3.371242431640625,2.1959590911865234,-4.046093940734863,2.102970600128174
1782777588613221600,3.3812216796875,2.3774890899658203,-4.068741798400879,1.8771159648895264
1782777588623231500,3.3912314453125,2.1365203857421875,-3.9727790355682373,1.5309972763061523
1782777588633241300,3.401241455078125,1.681065559387207,-3.8717739582061768,1.2395520210266113
1782777588643220500,3.411220458984375,1.128474235534668,-3.734605073928833,1.046939492225647
1782777588653140200,3.42114013671875,0.6244659423828125,-3.5193586349487305,1.006392478942871
1782777588663301000,3.431301025390625,0.15393543243408203,-3.3253262042999268,1.0745863914489746
1782777588673219300,3.44121923828125,-0.28615570068359375,-3.1358070373535156,1.1500338315963745
1782777588683229200,3.451229248046875,-0.7441987991333008,-2.995939016342163,1.201362133026123
1782777588693179100,3.46117919921875,-1.1943211555480957,-2.879124164581299,1.1754064559936523
1782777588703309800,3.471309814453125,-1.574143886566162,-2.768634796142578,1.1013458967208862
1782777588713227800,3.481227783203125,-1.9275760650634766,-2.2985446453094482,0.8687431812286377
1782777588723237600,3.491237548828125,-2.069380283355713,-2.1223032474517822,0.753555178642273
1782777588733278000,3.50127783203125,-1.9450130462646484,-2.0652151107788086,0.5531184673309326
1782777588743226600,3.5112265625,-1.6502141952514648,-1.995223045349121,0.3084970712661743
1782777588753236500,3.521236572265625,-1.2707366943359375,-1.888885259628296,0.1544862985610962
1782777588763246300,3.531246337890625,-0.8950052261352539,-1.7569401264190674,0.18068444728851318
1782777588773135000,3.541135009765625,-0.6396245956420898,-1.594664216041565,0.26266980171203613
1782777588783296300,3.551296142578125,-0.491912841796875,-1.4216139316558838,0.4248945713043213
1782777588793245200,3.5612451171875,-0.38490867614746094,-1.1785054206848145,0.5874291658401489
1782777588803224300,3.571224365234375,-0.1412506103515625,-0.9439090490341187,0.7650551795959473
1782777588813234000,3.58123388671875,0.20483875274658203,-0.7704670429229736,0.9340972900390625
1782777588823243800,3.591243896484375,0.41351795196533203,-0.4076646566390991,0.7964789867401123
1782777588833223000,3.601222900390625,0.5762195587158203,-0.051166415214538574,0.5080350637435913
1782777588843232800,3.611232666015625,0.7770500183105469,0.19938790798187256,0.18452024459838867
1782777588853242600,3.62124267578125,0.8861856460571289,0.2929697036743164,-0.04376673698425293
1782777588863221800,3.6312216796875,0.7890872955322266,0.2610480785369873,-0.17998993396759033
1782777588873231600,3.641231689453125,0.5380134582519531,0.24064111709594727,-0.39999091625213623
1782777588883241500,3.651241455078125,0.3057107925415039,0.2499082088470459,-0.5570145845413208
1782777588893220600,3.661220703125,0.14274215698242188,0.2262817621231079,-0.6345510482788086
1782777588903230500,3.67123046875,-0.02723217010498047,0.21139192581176758,-0.627320408821106
1782777588913240000,3.681239990234375,-0.24240398406982422,0.2006000280380249,-0.5694832801818848
1782777588923219200,3.69121923828125,-0.44072437286376953,0.16529858112335205,-0.4816098213195801
1782777588933229000,3.70122900390625,-0.6820821762084961,0.06760549545288086,-0.4332233667373657
1782777588943239000,3.711239013671875,-0.9810390472412109,-0.11375284194946289,-0.5071878433227539
1782777588953248800,3.721248779296875,-1.2419795989990234,-0.27968788146972656,-0.6961902379989624
1782777588963228000,3.731227783203125,-1.3501005172729492,-0.46059632301330566,-0.9354246258735657
1782777588973237800,3.74123779296875,-1.458287239074707,-0.6674230098724365,-1.1488804817199707
1782777588983247400,3.751247314453125,-1.6120238304138184,-0.8861177563667297,-1.3004471063613892
1782777588993226800,3.761226806640625,-1.818593978881836,-1.0472413301467896,-1.4996517896652222
1782777589003236600,3.771236572265625,-2.037574291229248,-1.1456787586212158,-1.6755328178405762
1782777589013246200,3.78124609375,-2.0870771408081055,-1.3193225860595703,-1.984196662902832
1782777589023225300,3.791225341796875,-2.019590377807617,-1.4540709257125854,-2.21820330619812
1782777589033235200,3.801235107421875,-1.772451400756836,-1.5584949254989624,-2.4278080463409424
1782777589043245000,3.8112451171875,-1.355229377746582,-1.5986193418502808,-2.5592193603515625
1782777589053224200,3.82122412109375,-0.7772283554077148,-1.6256921291351318,-2.6569101810455322
1782777589063234000,3.831234130859375,-0.20576000213623047,-1.674894094467163,-2.8099265098571777
1782777589073244000,3.841243896484375,0.0629568099975586,-1.7305901050567627,-2.9091830253601074
1782777589083223000,3.85122314453125,0.019454002380371094,-1.7304657697677612,-2.7627289295196533
1782777589093173200,3.86117333984375,-0.099884033203125,-1.6964068412780762,-2.556515693664551
1782777589103243800,3.871243896484375,-0.12281227111816406,-1.648695945739746,-2.3471829891204834
1782777589113313300,3.881313232421875,-0.014123916625976562,-1.4932241439819336,-2.2076690196990967
1782777589123231500,3.8912314453125,0.2901754379272461,-1.1659241914749146,-2.0319020748138428
1782777589133241300,3.901241455078125,0.7731189727783203,-0.7039831280708313,-1.6460686922073364
1782777589143220500,3.911220458984375,1.1909236907958984,-0.2835007905960083,-1.1466399431228638
1782777589153230300,3.921230224609375,1.403742790222168,0.08023715019226074,-0.7339995503425598
1782777589163180500,3.9311806640625,1.3673944473266602,0.5232876539230347,-0.5712012052536011
1782777589173311000,3.94131103515625,1.4572763442993164,0.9334160089492798,-0.5304762721061707
1782777589183229200,3.951229248046875,1.6377668380737305,1.2367790937423706,-0.6885770559310913
1782777589193238800,3.96123876953125,1.9164972305297852,1.4405430555343628,-0.8661962747573853
1782777589203248600,3.97124853515625,2.459151268005371,1.6284364461898804,-1.067224144935608
1782777589213228000,3.98122802734375,3.141669273376465,1.790163516998291,-1.2486196756362915
1782777589223237600,3.991237548828125,3.725048065185547,1.8341083526611328,-1.271040916442871
1782777589233247500,4.00124755859375,4.165627479553223,1.7911710739135742,-1.1988544464111328
1782777589243226600,4.0112265625,4.263591766357422,1.735332727432251,-1.1863187551498413
1782777589253236500,4.021236572265625,4.0219573974609375,1.7340912818908691,-1.1783708333969116
1782777589263246300,4.031246337890625,3.2214574813842773,1.6518421173095703,-1.0482399463653564
1782777589273225500,4.0412255859375,2.2667932510375977,1.65208899974823,-0.8818933963775635
1782777589283235300,4.0512353515625,1.3743772506713867,1.6858594417572021,-0.9384994506835938
1782777589293185300,4.061185302734375,0.7283878326416016,1.6988649368286133,-1.2523757219314575
1782777589303256000,4.071256103515625,0.35309886932373047,1.5961555242538452,-1.6379640102386475
1782777589313295000,4.081295166015625,0.14398765563964844,1.363863468170166,-1.8789629936218262
1782777589323243800,4.091243896484375,0.26006317138671875,1.1464600563049316,-2.151184558868408
1782777589333163300,4.101163330078125,0.3840503692626953,0.8969090580940247,-2.7210917472839355
1782777589343234000,4.111234130859375,0.3514690399169922,0.6271005868911743,-3.225687026977539
1782777589353242600,4.12124267578125,0.11155414581298828,0.4725395441055298,-3.4398064613342285
1782777589364122600,4.13212255859375,-0.1893749237060547,0.5027920007705688,-3.3431806564331055
1782777589383241500,4.151241455078125,-1.1949796676635742,0.512712836265564,-3.0197296142578125
1782777589393220600,4.161220703125,-1.8152351379394531,0.4554268717765808,-2.9739012718200684
1782777589403230200,4.171230224609375,-2.322575092315674,0.4852842092514038,-3.041584014892578
1782777589413240000,4.181239990234375,-2.731997489929199,0.5130496621131897,-3.0455398559570312
1782777589423159600,4.19115966796875,-2.9023547172546387,0.5020638704299927,-2.966142177581787
1782777589433261000,4.201260986328125,-2.7429165840148926,0.4982287883758545,-2.7288777828216553
1782777589444149800,4.212149658203125,-2.1487746238708496,0.49682629108428955,-2.393099069595337
1782777589463228000,4.231227783203125,-0.9402599334716797,0.35862720012664795,-2.048002243041992
1782777589473237800,4.24123779296875,-0.3103141784667969,0.35278427600860596,-1.9320147037506104
1782777589483247600,4.25124755859375,0.05335521697998047,0.371667742729187,-1.8412688970565796
1782777589493226800,4.261226806640625,0.3395681381225586,0.3382890224456787,-1.8657441139221191
1782777589503236400,4.271236328125,0.4785909652709961,0.2300792932510376,-1.9290428161621094
1782777589513246200,4.28124609375,0.6044845581054688,0.19017183780670166,-2.037998914718628
1782777589523225300,4.291225341796875,0.7413244247436523,0.2214188575744629,-2.0475423336029053
1782777589533235200,4.301235107421875,0.9251699447631836,0.2836120128631592,-1.9802292585372925
1782777589543245000,4.3112451171875,1.013319969177246,0.1551816463470459,-0.8469269871711731
1782777589553224200,4.32122412109375,1.1853551864624023,0.12105894088745117,-0.25878679752349854
1782777589563234000,4.331234130859375,1.2667789459228516,0.08848917484283447,0.08764524757862091
1782777589573244000,4.341243896484375,1.2254447937011719,0.09227395057678223,0.2637120485305786
1782777589583223000,4.35122314453125,0.9813919067382812,0.02306807041168213,0.2474917471408844
1782777589593233000,4.36123291015625,0.7568874359130859,-0.04383444786071777,0.0993153527379036
1782777589603242500,4.371242431640625,0.5807199478149414,-0.08735430240631104,-0.06108811870217323
1782777589613221600,4.3812216796875,0.519500732421875,-0.15966808795928955,-0.1915431022644043
1782777589623231500,4.3912314453125,0.513214111328125,-0.2237391471862793,-0.18818026781082153
1782777589633241300,4.401241455078125,0.48766231536865234,-0.2270338535308838,-0.18997403979301453
1782777589643220500,4.411220458984375,0.43478965759277344,-0.18023324012756348,-0.10613881796598434
1782777589653230300,4.421230224609375,0.4421730041503906,-0.1547919511795044,-0.03270731121301651
1782777589663240200,4.431240234375,0.35878467559814453,-0.15210342407226562,-0.10458934307098389
1782777589673219300,4.44121923828125,0.2397441864013672,-0.11057984828948975,-0.20618364214897156
1782777589683229200,4.451229248046875,0.0780344009399414,-0.043625712394714355,-0.27560287714004517
1782777589693238800,4.46123876953125,-0.04922008514404297,0.054497718811035156,-0.2286556512117386
1782777589703248600,4.47124853515625,-0.11772346496582031,0.18102490901947021,-0.15325622260570526
1782777589713228000,4.48122802734375,-0.14668750762939453,0.2862405776977539,-0.06803865730762482
1782777589723237600,4.491237548828125,-0.14804363250732422,0.3820796012878418,-0.043615397065877914
1782777589733247500,4.50124755859375,-0.12570953369140625,0.49532997608184814,-0.02368069998919964
1782777589743226600,4.5112265625,-0.18876934051513672,0.5987319946289062,0.021946288645267487
1782777589753236500,4.521236572265625,-0.2603168487548828,0.7240288257598877,0.055978789925575256
1782777589763246300,4.531246337890625,-0.303985595703125,0.8591790199279785,0.15321776270866394
1782777589773225500,4.5412255859375,-0.2693510055541992,1.045122742652893,0.3274739980697632
1782777589783235300,4.5512353515625,-0.23308658599853516,1.1616896390914917,0.4921070337295532
1782777589793245200,4.5612451171875,-0.23819732666015625,1.2311367988586426,0.6281611919403076
1782777589803224300,4.571224365234375,-0.3492870330810547,1.2421560287475586,0.5948431491851807
1782777589813234000,4.58123388671875,-0.39898204803466797,1.263309121131897,0.3293913006782532
1782777589823243800,4.591243896484375,-0.2841978073120117,1.3062350749969482,0.09383484721183777
1782777589833223000,4.601222900390625,-0.06732368469238281,1.3871961832046509,0.12207874655723572
1782777589843232800,4.611232666015625,0.1872110366821289,1.588173508644104,0.4356086552143097
1782777589853242600,4.62124267578125,0.3650197982788086,1.8148491382598877,0.9143078923225403
1782777589863221800,4.6312216796875,0.43080806732177734,2.0464792251586914,1.6425487995147705
1782777589873231600,4.641231689453125,0.2967529296875,2.249047040939331,2.3121042251586914
1782777589883241500,4.651241455078125,0.1177978515625,2.3882899284362793,2.7245078086853027
1782777589893220600,4.661220703125,-0.2433319091796875,2.5506644248962402,2.8982837200164795
1782777589903230500,4.67123046875,-0.8029756546020508,2.5429177284240723,3.229823112487793
1782777589913240000,4.681239990234375,-1.751847267150879,2.1147165298461914,3.305576801300049
1782777589923219500,4.691219482421875,-2.6541080474853516,1.931734561920166,3.130598306655884
1782777589933229000,4.70122900390625,-2.959244728088379,1.8343591690063477,2.7784786224365234
1782777589943239000,4.711239013671875,-2.1835274696350098,1.4261901378631592,2.326218605041504
1782777589953248800,4.721248779296875,-0.4221038818359375,0.533306360244751,1.822187066078186
1782777589963228000,4.731227783203125,1.7407646179199219,-0.4897141456604004,1.5934818983078003
1782777589973237800,4.74123779296875,4.057226181030273,-1.5170619487762451,0.8058823347091675
1782777589983247600,4.75124755859375,5.873176574707031,-2.3795275688171387,-0.3417487144470215
1782777589993226800,4.761226806640625,6.627555847167969,-3.111311674118042,-1.7897543907165527
1782777590003236400,4.771236328125,6.314424514770508,-3.5563535690307617,-2.994852066040039
1782777590013246200,4.78124609375,5.206930160522461,-3.666883945465088,-3.4693245887756348
1782777590023225300,4.791225341796875,3.695950508117676,-3.811544418334961,-3.6090519428253174
1782777590033235200,4.801235107421875,2.0790014266967773,-3.898087501525879,-3.46061635017395
1782777590043245000,4.8112451171875,0.31711483001708984,-3.8733296394348145,-2.8404061794281006
1782777590053224200,4.82122412109375,-1.2250404357910156,-3.666807174682617,-2.1724436283111572
1782777590063234000,4.831234130859375,-2.493104934692383,-3.2080955505371094,-1.3285791873931885
1782777590073244000,4.841243896484375,-3.453172206878662,-2.683405637741089,-0.4501442015171051
1782777590083223000,4.85122314453125,-4.043012619018555,-2.1809682846069336,0.37370771169662476
1782777590093232600,4.861232666015625,-4.301734447479248,-1.7583134174346924,1.1116958856582642
1782777590103242500,4.871242431640625,-4.329863548278809,-1.3882181644439697,1.631188154220581
1782777590113221600,4.8812216796875,-4.0033674240112305,-1.1336028575897217,2.0225634574890137
1782777590123231500,4.8912314453125,-3.45845890045166,-0.9139235019683838,2.2360520362854004
1782777590133241300,4.901241455078125,-2.8138537406921387,-0.7559788227081299,2.3647866249084473
1782777590143220500,4.911220458984375,-2.1128292083740234,-0.6849112510681152,2.3669042587280273
1782777590153230300,4.921230224609375,-1.4335651397705078,-0.7045645713806152,2.138401746749878
1782777590163240200,4.931240234375,-0.9206943511962891,-0.7812061309814453,1.7013156414031982
1782777590173219300,4.94121923828125,-0.5578479766845703,-0.865673303604126,1.1745481491088867
1782777590183229200,4.951229248046875,-0.3669300079345703,-0.9226570129394531,0.6407281160354614
1782777590193238800,4.96123876953125,-0.310028076171875,-0.9306926727294922,0.12221986055374146
1782777590203248600,4.97124853515625,-0.285125732421875,-0.8762750625610352,-0.19470801949501038
1782777590213228000,4.98122802734375,-0.3533611297607422,-0.7883000373840332,-0.38727742433547974
1782777590223237600,4.991237548828125,-0.5522956848144531,-0.6020021438598633,-0.20696687698364258
1782777590233247200,5.001247314453125,-0.8362102508544922,-0.38768553733825684,-0.0028342604637145996
1782777590243226600,5.0112265625,-1.0184364318847656,-0.15475010871887207,0.3213447332382202
1782777590253236500,5.021236572265625,-1.1665353775024414,0.09861159324645996,0.7636383771896362
1782777590263246300,5.031246337890625,-1.2762670516967773,0.30713796615600586,1.0697145462036133
1782777590273225500,5.0412255859375,-1.3434257507324219,0.5228414535522461,1.489614486694336
1782777590283235300,5.0512353515625,-1.4622960090637207,0.6430718898773193,1.7144641876220703
1782777590293245200,5.0612451171875,-1.5640883445739746,0.7434353828430176,2.038360118865967
1782777590303224300,5.071224365234375,-1.5947766304016113,0.7838606834411621,2.0734753608703613
1782777590313234200,5.081234130859375,-1.5956878662109375,0.7900331020355225,2.1134557723999023
1782777590323243800,5.091243896484375,-1.5986123085021973,0.6774756908416748,1.8350863456726074
1782777590333223000,5.101222900390625,-1.4505939483642578,0.5641448497772217,1.474327564239502
1782777590343232800,5.111232666015625,-1.161245346069336,0.445817232131958,1.08682382106781
1782777590353242600,5.12124267578125,-0.8979339599609375,0.2673358917236328,0.6986876130104065
1782777590363221800,5.1312216796875,-0.5522880554199219,0.19956111907958984,0.5086535215377808
1782777590373231600,5.141231689453125,-0.18822097778320312,0.1349809169769287,0.2715185284614563
1782777590383241500,5.151241455078125,0.23334503173828125,0.15267467498779297,0.3066657781600952
1782777590393220600,5.161220703125,0.4474143981933594,0.16364645957946777,0.27942949533462524
1782777590403230200,5.171230224609375,0.5170707702636719,0.20274114608764648,0.3258310556411743
1782777590413240000,5.181239990234375,0.37083911895751953,0.27271437644958496,0.3411729335784912
1782777590423219200,5.19121923828125,0.16207218170166016,0.19690823554992676,-0.0033596158027648926
1782777590433229000,5.20122900390625,-0.08125591278076172,0.21993684768676758,-0.05981850624084473
1782777590443239000,5.211239013671875,-0.27068614959716797,0.28942322731018066,-0.05977350473403931
1782777590453248800,5.221248779296875,-0.2991981506347656,0.34105634689331055,-0.09056061506271362
1782777590463228000,5.231227783203125,-0.18152332305908203,0.4455757141113281,-0.14771562814712524
1782777590473237800,5.24123779296875,0.036579132080078125,0.49861645698547363,-0.0999077558517456
1782777590483247600,5.25124755859375,0.5703306198120117,0.5274457931518555,0.02140289545059204
1782777590493226800,5.261226806640625,1.0487060546875,0.498659610748291,0.12383681535720825
1782777590503236600,5.271236572265625,1.3899297714233398,0.4092264175415039,0.24283814430236816
1782777590513246200,5.28124609375,1.5200128555297852,0.3602917194366455,0.30605560541152954
1782777590523225300,5.291225341796875,1.67169189453125,0.31760430335998535,0.4156573414802551
1782777590533235200,5.301235107421875,1.7803478240966797,0.254453182220459,0.47907501459121704
1782777590543245000,5.3112451171875,1.7846965789794922,0.28031325340270996,0.3883207440376282
1782777590553224200,5.32122412109375,1.6822032928466797,0.340099573135376,0.329817533493042
1782777590563234000,5.331234130859375,1.4227609634399414,0.28728604316711426,0.2679558992385864
1782777590573244000,5.341243896484375,1.0134735107421875,0.13019084930419922,0.3604743480682373
1782777590583223000,5.35122314453125,0.6048440933227539,-0.04297208786010742,0.601587176322937
1782777590593233000,5.36123291015625,0.38028812408447266,-0.16369199752807617,0.9514532089233398
1782777590603242500,5.371242431640625,0.37541770935058594,-0.27083468437194824,1.2134349346160889
1782777590613221600,5.3812216796875,0.8657779693603516,-0.41354823112487793,1.0386130809783936
1782777590623231500,5.3912314453125,1.784184455871582,-0.691328763961792,0.642360270023346
1782777590633241300,5.401241455078125,2.7541685104370117,-1.0216000080108643,0.4240243434906006
1782777590643220500,5.411220458984375,3.665559768676758,-1.2367808818817139,0.10809957981109619
1782777590653230300,5.421230224609375,4.047165870666504,-1.4354314804077148,-0.33684754371643066
1782777590663240200,5.431240234375,4.0936784744262695,-1.5326203107833862,-0.7580084800720215
1782777590673219300,5.44121923828125,3.7226743698120117,-1.6180803775787354,-1.0286749601364136
1782777590683229200,5.451229248046875,2.886355400085449,-1.6218218803405762,-0.814837634563446
1782777590693238800,5.46123876953125,1.7784175872802734,-1.4167306423187256,-0.36436790227890015
1782777590703248600,5.47124853515625,0.6397390365600586,-1.251362919807434,-0.14637577533721924
1782777590713228000,5.48122802734375,-0.5313043594360352,-1.2428770065307617,-0.019651174545288086
1782777590723237600,5.491237548828125,-1.5502848625183105,-1.34880793094635,-0.07151597738265991
1782777590733247500,5.50124755859375,-2.3155102729797363,-1.498741626739502,-0.3434915244579315
1782777590743226600,5.5112265625,-2.886416435241699,-1.6886309385299683,-0.6907209157943726
1782777590753236500,5.521236572265625,-3.102741241455078,-1.8849551677703857,-1.0804022550582886
1782777590763246300,5.531246337890625,-3.141071319580078,-2.1048083305358887,-1.3633438348770142
1782777590773225500,5.5412255859375,-2.936028003692627,-2.3175930976867676,-1.5329378843307495
1782777590783235300,5.5512353515625,-2.3739190101623535,-2.4246513843536377,-1.2790300846099854
1782777590793245200,5.5612451171875,-1.6541495323181152,-2.3213346004486084,-0.6600874066352844
1782777590803224300,5.571224365234375,-0.9224395751953125,-2.073206663131714,0.14350304007530212
1782777590813234200,5.581234130859375,-0.1542196273803711,-1.7684221267700195,0.8080590963363647
1782777590823243800,5.591243896484375,0.6537876129150391,-1.4431633949279785,1.3274011611938477
1782777590833223000,5.601222900390625,1.4070348739624023,-1.1968183517456055,1.61420476436615
1782777590843232800,5.611232666015625,2.015758514404297,-1.1912205219268799,1.5396919250488281
1782777590853242600,5.62124267578125,2.2129621505737305,-1.4021670818328857,0.9993204474449158
1782777590863221800,5.6312216796875,2.0350141525268555,-1.6296772956848145,0.24685990810394287
1782777590873231600,5.641231689453125,1.6119413375854492,-1.8290791511535645,-0.447421669960022
1782777590883241500,5.651241455078125,0.9280118942260742,-1.9139331579208374,-0.7877633571624756
1782777590893220600,5.661220703125,0.31899356842041016,-1.8923832178115845,-0.8478950262069702
1782777590903230500,5.67123046875,-0.25374698638916016,-1.7466259002685547,-0.6769710779190063
1782777590913240000,5.681239990234375,-0.8159618377685547,-1.556452989578247,-0.32982537150382996
1782777590923219500,5.691219482421875,-1.3509025573730469,-1.3020994663238525,-0.041388481855392456
1782777590933229000,5.70122900390625,-1.772562026977539,-1.1526261568069458,0.12422186136245728
1782777590943239000,5.711239013671875,-2.1510844230651855,-1.0074737071990967,0.2853606641292572
1782777590953248800,5.721248779296875,-2.433417797088623,-0.8701121807098389,0.3236658275127411
1782777590963228000,5.731227783203125,-2.465148448944092,-0.7965123653411865,0.33788153529167175
1782777590973237800,5.74123779296875,-2.4672927856445312,-0.7749283313751221,0.27541232109069824
1782777590983247600,5.75124755859375,-2.253519058227539,-0.7446084022521973,0.07386595010757446
1782777590993226800,5.761226806640625,-1.9271597862243652,-0.7547192573547363,-0.1464967131614685
1782777591003236400,5.771236328125,-1.6578783988952637,-0.7798652648925781,-0.40948206186294556
1782777591013246200,5.78124609375,-1.3252077102661133,-0.7288293838500977,-0.4619556665420532
1782777591023225300,5.791225341796875,-1.0291872024536133,-0.6004884243011475,-0.39927202463150024
1782777591033235200,5.801235107421875,-0.8001928329467773,-0.45212221145629883,-0.2912810146808624
1782777591043245000,5.8112451171875,-0.549311637878418,-0.37589502334594727,-0.2994288206100464
1782777591053224200,5.82122412109375,-0.3478975296020508,-0.29656291007995605,-0.19956371188163757
1782777591063234000,5.831234130859375,-0.11202430725097656,-0.21683526039123535,-0.19806838035583496
1782777591073244000,5.841243896484375,-0.011470794677734375,-0.11583375930786133,0.04758864641189575
1782777591083163400,5.851163330078125,0.1286029815673828,-0.02014946937561035,0.11189493536949158
1782777591093293800,5.8612939453125,0.35579490661621094,0.004063129425048828,0.17277264595031738
1782777591103242500,5.871242431640625,0.511815071105957,-0.05180191993713379,0.20880836248397827
1782777591113221600,5.8812216796875,0.654210090637207,-0.04033780097961426,0.37001746892929077
1782777591123231500,5.8912314453125,0.9122591018676758,0.012396097183227539,0.6023995876312256
1782777591133241300,5.901241455078125,1.3053340911865234,0.1130974292755127,0.8905540704727173
1782777591143220500,5.911220458984375,1.4913702011108398,0.23079657554626465,1.1879771947860718
1782777591153230300,5.921230224609375,1.4904966354370117,0.2809939384460449,1.3515563011169434
1782777591163240200,5.931240234375,1.519796371459961,0.24119234085083008,1.4296550750732422
1782777591173219300,5.94121923828125,1.5621891021728516,0.07983255386352539,1.4361876249313354
1782777591183229200,5.951229248046875,1.5809011459350586,0.015191316604614258,1.2511167526245117
1782777591193238800,5.96123876953125,1.27325439453125,0.03263115882873535,1.0028181076049805
1782777591203248600,5.97124853515625,0.7483530044555664,-0.13312196731567383,0.9809343814849854
1782777591213228000,5.98122802734375,0.20911216735839844,-0.33719897270202637,1.1341383457183838
1782777591223237600,5.991237548828125,-0.15457820892333984,-0.41246628761291504,1.4077459573745728
1782777591233247500,6.00124755859375,-0.17012786865234375,-0.3822453022003174,1.7756071090698242
1782777591243226600,6.0112265625,0.3777885437011719,-0.4185452461242676,2.083961009979248
1782777591253236500,6.021236572265625,1.364241600036621,-0.6340460777282715,2.0854105949401855
1782777591263246300,6.031246337890625,2.2428693771362305,-0.908942461013794,1.8740712404251099
1782777591273225500,6.0412255859375,2.795905113220215,-1.25444495677948,1.1700080633163452
1782777591283235300,6.0512353515625,2.7283639907836914,-1.591172695159912,0.2029285430908203
1782777591293245200,6.0612451171875,2.267367362976074,-1.859370231628418,-0.5785121917724609
1782777591303224300,6.071224365234375,1.4978094100952148,-2.0443813800811768,-1.063474416732788
1782777591313234200,6.081234130859375,0.6319055557250977,-1.9944982528686523,-1.1668577194213867
1782777591323243800,6.091243896484375,-0.07580947875976562,-1.8260356187820435,-1.0833191871643066
1782777591333223000,6.101222900390625,-0.6729116439819336,-1.6714468002319336,-0.8624115586280823
1782777591343232800,6.111232666015625,-1.0830907821655273,-1.5068345069885254,-0.6272212862968445
1782777591353242600,6.12124267578125,-1.3293142318725586,-1.3267642259597778,-0.41553741693496704
1782777591363221800,6.1312216796875,-1.4863457679748535,-1.1617497205734253,-0.16173911094665527
1782777591373231600,6.141231689453125,-1.5998988151550293,-1.0779484510421753,0.025434911251068115
1782777591383241500,6.151241455078125,-1.6939611434936523,-1.0629558563232422,0.1494901180267334
1782777591393220600,6.161220703125,-1.711594581604004,-1.0260083675384521,0.28622299432754517
1782777591403230500,6.17123046875,-1.634660243988037,-0.975190281867981,0.6557111144065857
1782777591413240000,6.181239990234375,-1.4091014862060547,-0.8492178916931152,1.2363240718841553
1782777591423219500,6.191219482421875,-0.9015846252441406,-0.599278450012207,1.8710286617279053
1782777591433229000,6.20122900390625,-0.1871318817138672,-0.3461589813232422,2.352543830871582
1782777591443239000,6.211239013671875,0.7504434585571289,-0.2456672191619873,2.6607797145843506
1782777591453248800,6.221248779296875,1.7307491302490234,-0.22064805030822754,2.8378305435180664
1782777591463228000,6.231227783203125,2.446536064147949,-0.3665635585784912,2.6023495197296143
1782777591473237800,6.24123779296875,2.808889389038086,-0.5947644710540771,1.9289908409118652
1782777591483247400,6.251247314453125,2.772568702697754,-0.919575572013855,0.9925312995910645
1782777591493226800,6.261226806640625,2.331785202026367,-1.2055504322052002,-0.11038804054260254
1782777591503236600,6.271236572265625,1.6225061416625977,-1.4186487197875977,-0.9325951337814331
1782777591513246200,6.28124609375,0.8481712341308594,-1.4692833423614502,-1.546494722366333
1782777591523225300,6.291225341796875,0.0393218994140625,-1.3646316528320312,-1.7995092868804932
1782777591533235200,6.301235107421875,-0.7023591995239258,-1.167773962020874,-1.7728471755981445
1782777591543245000,6.3112451171875,-1.3478975296020508,-0.9425148963928223,-1.472419261932373
1782777591553224200,6.32122412109375,-1.933359146118164,-0.6653085947036743,-1.032788872718811
1782777591563234000,6.331234130859375,-2.3062796592712402,-0.42157793045043945,-0.6561971306800842
1782777591573244000,6.341243896484375,-2.5256433486938477,-0.22037291526794434,-0.33860674500465393
1782777591583223000,6.35122314453125,-2.6591830253601074,-0.062062740325927734,-0.08946442604064941
1782777591593233000,6.36123291015625,-2.6080145835876465,0.0487978458404541,0.08319860696792603
1782777591603242500,6.371242431640625,-2.459233283996582,0.06428384780883789,0.17484301328659058
1782777591613221600,6.3812216796875,-2.1875686645507812,0.07540345191955566,0.17226016521453857
1782777591633241300,6.401241455078125,-1.4204516410827637,-0.02720499038696289,0.011152207851409912
1782777591643220500,6.411220458984375,-1.0617170333862305,-0.11764335632324219,-0.06296330690383911
1782777591653230300,6.421230224609375,-0.6212234497070312,-0.22381973266601562,-0.19319242238998413
1782777591663240200,6.431240234375,-0.31908512115478516,-0.28940677642822266,-0.3111329674720764
1782777591673219300,6.44121923828125,-0.2339630126953125,-0.33289217948913574,-0.3483162522315979
1782777591683229200,6.451229248046875,-0.190765380859375,-0.39430689811706543,-0.4202501177787781
1782777591693239000,6.461239013671875,-0.12493515014648438,-0.4355320930480957,-0.6022818088531494
1782777591703248600,6.47124853515625,-0.029982566833496094,-0.5508005619049072,-0.8563017249107361
1782777591713228000,6.48122802734375,0.04475879669189453,-0.7030332088470459,-1.0532855987548828
1782777591723237600,6.491237548828125,0.09755992889404297,-0.8361673355102539,-1.2741107940673828
1782777591733247500,6.50124755859375,0.2799396514892578,-0.9321684837341309,-1.5865141153335571
1782777591743226600,6.5112265625,0.5230245590209961,-0.9941890239715576,-1.7089835405349731
1782777591753236500,6.521236572265625,0.8201150894165039,-1.054343342781067,-1.6436275243759155
1782777591763246300,6.531246337890625,1.1427650451660156,-1.02976393699646,-1.3857643604278564
1782777591773225500,6.5412255859375,1.2882518768310547,-1.010951042175293,-1.1196058988571167
1782777591783235300,6.5512353515625,1.3428688049316406,-1.080012321472168,-1.0350401401519775
1782777591793245200,6.5612451171875,1.4303646087646484,-1.0798451900482178,-1.1594058275222778
1782777591803224300,6.571224365234375,1.2936954498291016,-1.0063197612762451,-1.4189823865890503
1782777591813234200,6.581234130859375,1.010782241821289,-1.0224709510803223,-1.7460778951644897
1782777591823243800,6.591243896484375,0.6527976989746094,-1.0093789100646973,-1.9658032655715942
1782777591833223000,6.601222900390625,0.13812732696533203,-1.0060007572174072,-2.0077178478240967
1782777591843232800,6.611232666015625,-0.4686002731323242,-1.1141607761383057,-1.7184441089630127
1782777591853242600,6.62124267578125,-0.6432342529296875,-1.2401883602142334,-0.832700252532959
1782777591863221800,6.6312216796875,-0.31820201873779297,-1.0692267417907715,-0.10216620564460754
1782777591873231600,6.641231689453125,0.3705720901489258,-0.7883133888244629,0.5510978102684021
1782777591883241500,6.651241455078125,1.4134492874145508,-0.8551054000854492,1.2569289207458496
1782777591893220600,6.661220703125,2.7139644622802734,-0.8898379802703857,1.75596284866333
1782777591903230500,6.67123046875,4.012028694152832,-0.9968662261962891,1.8193439245224
1782777591913240000,6.681239990234375,4.9809370040893555,-1.3080133199691772,1.52409029006958
1782777591923219200,6.69121923828125,5.252877235412598,-1.6444664001464844,0.940595269203186
1782777591933229000,6.70122900390625,4.8973283767700195,-1.9621275663375854,0.1911231279373169
1782777591943239000,6.711239013671875,3.746617317199707,-2.242384910583496,-0.3983966112136841
1782777591953248800,6.721248779296875,2.136159896850586,-2.3239526748657227,-0.7333248853683472
1782777591963228000,6.731227783203125,0.6289224624633789,-2.183854103088379,-1.0648466348648071
1782777591973237800,6.74123779296875,-0.8414983749389648,-2.039245128631592,-1.1620633602142334
1782777591983247600,6.75124755859375,-2.0810627937316895,-1.9010612964630127,-1.0928610563278198
1782777591993226800,6.761226806640625,-2.920340061187744,-1.758607268333435,-1.0891845226287842
1782777592003236400,6.771236328125,-3.128943920135498,-1.5784374475479126,-1.0576598644256592
1782777592013246200,6.78124609375,-2.7350711822509766,-1.4672210216522217,-0.9869911670684814
1782777592023225300,6.791225341796875,-1.6152853965759277,-1.477174162864685,-0.798224687576294
1782777592033235200,6.801235107421875,-0.5307273864746094,-1.5591447353363037,-0.32403600215911865
1782777592043245000,6.8112451171875,0.44552040100097656,-1.5594565868377686,0.057370007038116455
1782777592053224200,6.82122412109375,1.3536720275878906,-1.4608399868011475,0.3208675980567932
1782777592063234000,6.831234130859375,2.049428939819336,-1.3722676038742065,0.5503051280975342
1782777592073244000,6.841243896484375,2.21364688873291,-1.3312087059020996,0.7290939092636108
1782777592083223000,6.85122314453125,1.9575815200805664,-1.3205184936523438,0.6790163516998291
1782777592093233000,6.86123291015625,1.4618377685546875,-1.3336451053619385,0.3857150673866272
1782777592103242500,6.871242431640625,0.7376642227172852,-1.4089313745498657,0.029404878616333008
1782777592113221600,6.8812216796875,0.02605152130126953,-1.5126864910125732,-0.32744312286376953
1782777592123231500,6.8912314453125,-0.49869346618652344,-1.5672030448913574,-0.4941366910934448
1782777592133241300,6.901241455078125,-0.8304357528686523,-1.5320115089416504,-0.48303213715553284
1782777592143220500,6.911220458984375,-1.079167366027832,-1.4782909154891968,-0.3914283514022827
1782777592153230300,6.921230224609375,-1.2677602767944336,-1.3748266696929932,-0.2537356913089752
1782777592163240200,6.931240234375,-1.3844871520996094,-1.2712448835372925,-0.06885398924350739
1782777592173219300,6.94121923828125,-1.4128665924072266,-1.1857043504714966,0.12400349974632263
1782777592183229200,6.951229248046875,-1.363698959350586,-1.1042728424072266,0.2533643841743469
1782777592193239000,6.961239013671875,-1.2539854049682617,-1.0492961406707764,0.32982033491134644
1782777592203248600,6.97124853515625,-1.1516332626342773,-1.029451608657837,0.3169965147972107
1782777592213228000,6.98122802734375,-1.1232662200927734,-1.0605790615081787,0.29253873229026794
1782777592223237600,6.991237548828125,-1.2236413955688477,-1.1102745532989502,0.2004692107439041
1782777592233247500,7.00124755859375,-1.3449373245239258,-1.0422074794769287,0.10327912867069244
1782777592243226600,7.0112265625,-1.4348678588867188,-1.0249834060668945,-0.029690898954868317
1782777592253236500,7.021236572265625,-1.5484380722045898,-1.0468497276306152,-0.0243971049785614
1782777592263246300,7.031246337890625,-1.5064663887023926,-1.0323634147644043,0.047758251428604126
1782777592273165800,7.041165771484375,-1.1395139694213867,-0.9845315217971802,0.11071699112653732
1782777592283571000,7.051571044921875,-0.7520465850830078,-0.9810007810592651,0.1533464789390564
1782777592293245200,7.0612451171875,-0.5901899337768555,-1.0042153596878052,0.40211108326911926
1782777592303224300,7.071224365234375,-0.5881500244140625,-0.974298357963562,0.4905382990837097
1782777592313234200,7.081234130859375,-0.2310791015625,-0.8627495765686035,0.5952116250991821
1782777592323243800,7.091243896484375,-0.4407386779785156,-0.623967170715332,1.0957690477371216
1782777592333223000,7.101222900390625,-1.0243959426879883,-0.7465112209320068,0.9706330299377441
1782777592343232800,7.111232666015625,-0.8580436706542969,-0.8945353031158447,0.5045788288116455
1782777592353242600,7.12124267578125,-0.4558897018432617,-1.0932458639144897,0.9349799752235413
1782777592363221800,7.1312216796875,0.2917346954345703,-1.089361548423767,1.3494616746902466
1782777592373231600,7.141231689453125,0.7965736389160156,-0.8501191139221191,1.367108941078186
1782777592383241500,7.151241455078125,0.9983596801757812,-0.8065226078033447,1.3262041807174683
1782777592393220600,7.161220703125,1.170914649963379,-0.9799975156784058,1.2171093225479126
1782777592403230500,7.17123046875,1.1217784881591797,-0.9572528600692749,0.5556219816207886
