time,seconds_elapsed,z,y,x
1782776370149259500,0.158259521484375,0.2174680233001709,0.375071257352829,-0.7275404930114746
1782776370159261200,0.16826123046875,0.3121521472930908,0.5852088928222656,-0.5424483418464661
1782776370169248500,0.17824853515625,0.45753806829452515,0.797789990901947,-0.2877175211906433
1782776370179280400,0.1882802734375,0.6218608021736145,0.9853256344795227,0.005497787147760391
1782776370189237800,0.19823779296875,0.7825183868408203,1.0885618925094604,0.4202753007411957
1782776370199269400,0.208269287109375,0.817337691783905,1.0751228332519531,0.6212499737739563
1782776370209257200,0.21825732421875,0.8332201838493347,1.018923282623291,0.7476990818977356
1782776370219258000,0.228258056640625,0.8436049222946167,0.9480628371238708,0.8100073337554932
1782776370229246200,0.23824609375,0.8484918475151062,0.8729264140129089,0.8112290501594543
1782776370239277300,0.24827734375,0.836885392665863,0.7825183868408203,0.7538077235221863
1782776370249235200,0.258235107421875,0.8087855577468872,0.6603453159332275,0.6487388610839844
1782776370259266600,0.2682666015625,0.7757988572120667,0.5229006409645081,0.5143485069274902
1782776370269254700,0.278254638671875,0.7550294399261475,0.37201693654060364,0.3738495409488678
1782776370279286300,0.288286376953125,0.7476990818977356,0.18325957655906677,0.22418753802776337
1782776370289244000,0.298243896484375,0.7373143434524536,-0.04398229718208313,0.0861319974064827
1782776370299275000,0.30827490234375,0.7226535677909851,-0.26939156651496887,-0.029932396486401558
1782776370309263600,0.318263671875,0.6817256212234497,-0.4398229718208313,-0.11239920556545258
1782776370319264000,0.328263916015625,0.6120869517326355,-0.5265658497810364,-0.16493362188339233
1782776370329252400,0.33825244140625,0.5412266254425049,-0.5149593949317932,-0.17776179313659668
1782776370339284200,0.3482841796875,0.48685958981513977,-0.4202753007411957,-0.16371189057826996
1782776370349241300,0.358241455078125,0.4660901725292206,-0.2620611786842346,-0.12522737681865692
1782776370359273500,0.3682734375,0.4740314185619354,-0.06169738993048668,-0.07635815441608429
1782776370369260800,0.3782607421875,0.504574716091156,0.13316862285137177,-0.02626720629632473
1782776370379262200,0.38826220703125,0.5546656250953674,0.28527405858039856,0.025045474991202354
1782776370389249800,0.398249755859375,0.607200026512146,0.3689626157283783,0.07147123664617538
1782776370399281200,0.40828125,0.646906316280365,0.39217549562454224,0.10812314599752426
1782776370409239000,0.418239013671875,0.6792821288108826,0.36713001132011414,0.13744467496871948
1782776370419270400,0.4282705078125,0.7031059265136719,0.30543261766433716,0.16004669666290283
1782776370429258500,0.438258544921875,0.7159340381622314,0.23029619455337524,0.17592918872833252
1782776370439259400,0.44825927734375,0.7128797173500061,0.15027284622192383,0.18387043476104736
1782776370449247500,0.45824755859375,0.6957755088806152,0.07452555745840073,0.18570303916931152
1782776370459278800,0.46827880859375,0.675006091594696,0.010995574295520782,0.18325957655906677
1782776370469236500,0.478236572265625,0.6548475623130798,-0.04337143152952194,0.17959438264369965
1782776370479267600,0.488267578125,0.6310238242149353,-0.0959058403968811,0.16920967400074005
1782776370489256200,0.498256103515625,0.6102544069290161,-0.15027284622192383,0.14782938361167908
1782776370499256800,0.5082568359375,0.5949827432632446,-0.2064724564552307,0.12339477986097336
1782776370509245200,0.5182451171875,0.5705481171607971,-0.2675589919090271,0.10445795953273773
1782776370519276500,0.528276611328125,0.5455026626586914,-0.3292563557624817,0.09773843735456467
1782776370529264600,0.5382646484375,0.5119050741195679,-0.38240164518356323,0.10445795953273773
1782776370539265300,0.548265380859375,0.4697553813457489,-0.42210787534713745,0.13072516024112701
1782776370549253400,0.55825341796875,0.4196644127368927,-0.43737950921058655,0.18020524084568024
1782776370559284700,0.56828466796875,0.3677408695220947,-0.413555771112442,0.24984388053417206
1782776370569242600,0.57824267578125,0.31459560990333557,-0.38179078698158264,0.3286454975605011
1782776370579274000,0.58827392578125,0.2632829248905182,-0.34636059403419495,0.4147774875164032
1782776370589262300,0.598262451171875,0.22296582162380219,-0.30604347586631775,0.4954117238521576
1782776370599262700,0.6082626953125,0.1869247704744339,-0.2730567753314972,0.5595525503158569
1782776370609251300,0.618251220703125,0.13377949595451355,-0.24923302233219147,0.6010913848876953
1782776370619282200,0.6282822265625,0.09712757170200348,-0.24923302233219147,0.59803706407547
1782776370629240000,0.638239990234375,0.05192354694008827,-0.2840523421764374,0.5723807215690613
1782776370639271400,0.648271484375,-0.001832595793530345,-0.3439171314239502,0.5265658497810364
1782776370649259500,0.658259521484375,-0.06902777403593063,-0.4141666293144226,0.4691445231437683
1782776370659259600,0.668259765625,-0.15454891324043274,-0.48319441080093384,0.3891211748123169
1782776370669248800,0.678248779296875,-0.23640485107898712,-0.53328537940979,0.2932153046131134
1782776370679279000,0.688279052734375,-0.30543261766433716,-0.5595525503158569,0.19547687470912933
1782776370689237800,0.69823779296875,-0.3549126982688904,-0.5607742667198181,0.1111774742603302
1782776370699269000,0.70826904296875,-0.3799581825733185,-0.5247332453727722,0.06719517707824707
1782776370709257500,0.718257568359375,-0.38728857040405273,-0.43615779280662537,0.05864306539297104
1782776370719257900,0.7282578125,-0.37690386176109314,-0.3176499307155609,0.08368854224681854
1782776370729246200,0.73824609375,-0.3543018400669098,-0.26572638750076294,0.12522737681865692
1782776370739277800,0.74827783203125,-0.3237585723400116,-0.33047810196876526,0.14966198801994324
1782776370749235200,0.758235107421875,-0.3219259977340698,-0.5002986192703247,0.14416420459747314
1782776370759266000,0.76826611328125,-0.35674530267715454,-0.7409795522689819,0.09224065393209457
1782776370769254700,0.778254638671875,-0.41599923372268677,-0.969443142414093,0.012828170321881771
1782776370779285200,0.78828515625,-0.5106833577156067,-1.086118459701538,-0.06902777403593063
1782776370789244000,0.798243896484375,-0.6065891981124878,-1.081842303276062,-0.14538592100143433
1782776370799274200,0.808274169921875,-0.6817256212234497,-0.9822713136672974,-0.20402899384498596
1782776370809263600,0.818263671875,-0.7373143434524536,-0.8014551997184753,-0.24129177629947662
1782776370819262200,0.82826220703125,-0.7733554244041443,-0.5943718552589417,-0.2626720666885376
1782776370829251800,0.838251953125,-0.8026769161224365,-0.4184426963329315,-0.2791654169559479
1782776370839282400,0.848282470703125,-0.8240572214126587,-0.2822197377681732,-0.2828305959701538
1782776370849240800,0.85824072265625,-0.8387179970741272,-0.18570303916931152,-0.27000242471694946
1782776370859271400,0.868271484375,-0.8515461683273315,-0.11423180252313614,-0.23090706765651703
1782776370869260300,0.87826025390625,-0.8448266386985779,-0.04153883829712868,-0.1563815027475357
1782776370879261200,0.88826123046875,-0.8124507665634155,0.025045474991202354,-0.04398229718208313
1782776370889249000,0.8982490234375,-0.7489207983016968,0.056810468435287476,0.0910189226269722
1782776370899280600,0.90828076171875,-0.6597344875335693,0.02687807008624077,0.22846360504627228
1782776370909238500,0.918238525390625,-0.5656611919403076,-0.07696902006864548,0.3439171314239502
1782776370919270400,0.9282705078125,-0.4801400899887085,-0.2278527319431305,0.4306600093841553
1782776370929258500,0.938258544921875,-0.4129449129104614,-0.3738495409488678,0.4789183437824249
1782776370939258400,0.94825830078125,-0.3689626157283783,-0.46792277693748474,0.48808133602142334
1782776370949247500,0.95824755859375,-0.3488040566444397,-0.5051855444908142,0.45814892649650574
1782776370959278000,0.968278076171875,-0.3536909818649292,-0.5100724697113037,0.38667771220207214
1782776370969236500,0.978236572265625,-0.38240164518356323,-0.47769662737846375,0.2742784917354584
1782776370979267000,0.98826708984375,-0.43127086758613586,-0.41599923372268677,0.12950342893600464
1782776370989256200,0.998256103515625,-0.48808133602142334,-0.31520646810531616,-0.027488935738801956
1782776370999256000,1.008256103515625,-0.5326744914054871,-0.17409659922122955,-0.17287486791610718
1782776371009245200,1.0182451171875,-0.5516113042831421,-0.01466076634824276,-0.28466320037841797
1782776371019276300,1.0282763671875,-0.5491678714752197,0.1362229436635971,-0.3530801236629486
1782776371029264600,1.0382646484375,-0.5088507533073425,0.3023782968521118,-0.37690386176109314
1782776371039265300,1.048265380859375,-0.44287729263305664,0.37079519033432007,-0.342695415019989
1782776371049253400,1.05825341796875,-0.34208452701568604,0.4043927788734436,-0.2791654169559479
1782776371059284700,1.06828466796875,-0.2272418737411499,0.40256020426750183,-0.19914206862449646
1782776371069242600,1.07824267578125,-0.11667526513338089,0.36163222789764404,-0.12034045159816742
1782776371079273700,1.088273681640625,-0.007941247895359993,0.29504790902137756,-0.04642575979232788
1782776371089262000,1.098261962890625,0.0861319974064827,0.20952677726745605,0.02015855349600315
1782776371099262700,1.1082626953125,0.15332718193531036,0.11728613078594208,0.07452555745840073
1782776371109251000,1.1182509765625,0.20036379992961884,0.0354301854968071,0.11056660860776901
1782776371119282700,1.12828271484375,0.24129177629947662,-0.025045474991202354,0.1215621829032898
1782776371129240000,1.138239990234375,0.26572638750076294,-0.05375614017248154,0.10201449692249298
1782776371139271000,1.14827099609375,0.2687807083129883,-0.06169738993048668,0.06230825558304787
1782776371149259500,1.158259521484375,0.24617868661880493,-0.039706241339445114,-0.00366519158706069
1782776371159260000,1.168260009765625,0.21930062770843506,0.01160643994808197,-0.08552113175392151
1782776371169248800,1.178248779296875,0.1814269721508026,0.07330382615327835,-0.16493362188339233
1782776371179279000,1.188279052734375,0.14844025671482086,0.1508837193250656,-0.2474004179239273
1782776371189237800,1.19823779296875,0.1313360333442688,0.23396138846874237,-0.33536502718925476
1782776371199268900,1.208268798828125,0.1313360333442688,0.32009339332580566,-0.41722095012664795
1782776371209257200,1.21825732421875,0.14905111491680145,0.4092797040939331,-0.48380526900291443
1782776371219257900,1.2282578125,0.16859880089759827,0.485027015209198,-0.5296201705932617
1782776371229246200,1.23824609375,0.1765400618314743,0.543059229850769,-0.5473352670669556
1782776371239307500,1.2483076171875,0.19853121042251587,0.6017022728919983,-0.5387831330299377
1782776371249235200,1.258235107421875,0.23029619455337524,0.6322455406188965,-0.49785518646240234
1782776371259266300,1.268266357421875,0.26145032048225403,0.6340781450271606,-0.423329621553421
1782776371269254700,1.278254638671875,0.2840523421764374,0.6304129362106323,-0.3243694305419922
1782776371279286000,1.2882861328125,0.2987131178379059,0.6010913848876953,-0.22296582162380219
1782776371289244000,1.298243896484375,0.3066543638706207,0.5290092825889587,-0.13927727937698364
1782776371299275000,1.30827490234375,0.3182607889175415,0.4404338300228119,-0.07330382615327835
1782776371309263400,1.318263427734375,0.3433062732219696,0.38667771220207214,-0.015271631069481373
1782776371319264000,1.328263916015625,0.3799581825733185,0.4349360466003418,0.03420845419168472
1782776371329252400,1.33825244140625,0.4337143301963806,0.6120869517326355,0.05619960278272629
1782776371339283500,1.348283447265625,0.513737678527832,0.8344419002532959,0.05619960278272629
1782776371349241300,1.358241455078125,0.6194173693656921,0.96883225440979,0.03420845419168472
1782776371359272400,1.3682724609375,0.7232644557952881,0.9902125597000122,-0.012828170321881771
1782776371369260800,1.3782607421875,0.7898487448692322,0.8625417351722717,-0.0861319974064827
1782776371379261000,1.388260986328125,0.7739662528038025,0.5522221922874451,-0.1814269721508026
1782776371389250000,1.39825,0.6676757335662842,0.1215621829032898,-0.2779437005519867
1782776371399280600,1.40828076171875,0.5064072608947754,-0.3280346393585205,-0.3323107063770294
1782776371419269400,1.428269287109375,0.13866640627384186,-0.5974262356758118,-0.2828305959701538
1782776371429258500,1.438258544921875,-0.10934487730264664,-0.4434881806373596,-0.3023782968521118
1782776371439259000,1.4482587890625,-0.2528982162475586,-0.1661553531885147,-0.30482175946235657
1782776371449247200,1.458247314453125,-0.21074850857257843,0.44654250144958496,-0.2620611786842346
1782776371459279000,1.468279052734375,-0.054367005825042725,0.8631525635719299,-0.21013765037059784
1782776371469236500,1.478236572265625,0.15332718193531036,1.2064588069915771,-0.15332718193531036
1782776371479268400,1.488268310546875,0.3683517575263977,1.4086552858352661,-0.10384709388017654
1782776371489256200,1.498256103515625,0.5412266254425049,1.455691933631897,-0.06108652427792549
1782776371499256800,1.5082568359375,0.6475171446800232,1.406822681427002,-0.021991148591041565
1782776371509245200,1.5182451171875,0.7055493593215942,1.2901474237442017,0.013439035043120384
1782776371519276000,1.528276123046875,0.7336491346359253,1.1288789510726929,0.07024950534105301
1782776371529264600,1.5382646484375,0.7177666425704956,0.9352346658706665,0.15760323405265808
1782776371539265300,1.548265380859375,0.6585127115249634,0.7141014933586121,0.2687807083129883
1782776371549253600,1.558253662109375,0.5736024379730225,0.4404338300228119,0.3738495409488678
1782776371559284700,1.56828466796875,0.5015203952789307,0.152105450630188,0.46303585171699524
1782776371569242600,1.57824267578125,0.47708576917648315,-0.10018189996480942,0.5283984541893005
1782776371579273700,1.588273681640625,0.4996877610683441,-0.32009339332580566,0.5497786998748779
1782776371589262000,1.598261962890625,0.5467243790626526,-0.5418374538421631,0.5271766781806946
1782776371599263000,1.608262939453125,0.5754350423812866,-0.7733554244041443,0.4599815309047699
1782776371609251000,1.6182509765625,0.5742133259773254,-0.9761626720428467,0.37751471996307373
1782776371619282400,1.628282470703125,0.5320636034011841,-1.0965031385421753,0.30115658044815063
1782776371638799000,1.647799072265625,0.2993239760398865,-1.0409144163131714,0.2217440903186798
1782776371648788200,1.657788330078125,0.16493362188339233,-0.8338310718536377,0.22540926933288574
1782776371658788900,1.667788818359375,0.045204028487205505,-0.5442809462547302,0.2583959996700287
1782776371668777200,1.677777099609375,-0.03420845419168472,-0.2070833146572113,0.27000242471694946
1782776371678808300,1.687808349609375,-0.05253441259264946,0.10506882518529892,0.2626720666885376
1782776371688766200,1.69776611328125,-0.02015855349600315,0.3646865487098694,0.21930062770843506
1782776371698797300,1.70779736328125,0.04153883829712868,0.5241223573684692,0.14233160018920898
1782776371708786000,1.717785888671875,0.12034045159816742,0.5876523852348328,0.05925392732024193
1782776371718786600,1.72778662109375,0.1869247704744339,0.5913175344467163,-0.01466076634824276
1782776371728775000,1.73777490234375,0.2272418737411499,0.5387831330299377,-0.07147123664617538
1782776371738806000,1.747805908203125,0.2382374405860901,0.43737950921058655,-0.11484266817569733
1782776371748763600,1.757763671875,0.22418753802776337,0.29565876722335815,-0.1569923609495163
1782776371758795000,1.767794921875,0.19547687470912933,0.13561208546161652,-0.19547687470912933
1782776371768783400,1.777783447265625,0.1563815027475357,-0.00855211354792118,-0.22907446324825287
1782776371778814500,1.787814453125,0.1111774742603302,-0.12278391420841217,-0.2541199326515198
1782776371788772400,1.7977724609375,0.05742133408784866,-0.22968533635139465,-0.26939156651496887
1782776371798803500,1.807803466796875,0.00733038317412138,-0.32620203495025635,-0.2718350291252136
1782776371808791800,1.817791748046875,-0.03420845419168472,-0.3952298164367676,-0.25961771607398987
1782776371818791400,1.82779150390625,-0.06841690838336945,-0.4453207552433014,-0.23640485107898712
1782776371828780300,1.8377802734375,-0.10445795953273773,-0.46303585171699524,-0.2119702398777008
1782776371838811600,1.847811767578125,-0.14355333149433136,-0.46242499351501465,-0.19975294172763824
1782776371848769300,1.857769287109375,-0.17531833052635193,-0.4660901725292206,-0.20402899384498596
1782776371858800400,1.86780029296875,-0.20341812074184418,-0.4911356568336487,-0.22357667982578278
1782776371868789000,1.8777890625,-0.25595253705978394,-0.5540547966957092,-0.2528982162475586
1782776371878789400,1.887789306640625,-0.3090978264808655,-0.5748242139816284,-0.25595253705978394
1782776371888778000,1.897778076171875,-0.3781255781650543,-0.588263213634491,-0.24556782841682434
1782776371898808300,1.907808349609375,-0.4538728892803192,-0.5919284224510193,-0.22540926933288574
1782776371908767000,1.91776708984375,-0.5229006409645081,-0.5705481171607971,-0.19608774781227112
1782776371918798600,1.927798583984375,-0.5754350423812866,-0.5259549617767334,-0.1563815027475357
1782776371928787000,1.937786865234375,-0.5998696684837341,-0.45753806829452515,-0.10873401165008545
1782776371938787800,1.947787841796875,-0.6163630485534668,-0.34574973583221436,-0.04398229718208313
1782776371948776000,1.95777587890625,-0.6316346526145935,-0.18325957655906677,0.03298672288656235
1782776371958807600,1.9678076171875,-0.6218608021736145,0.006108652334660292,0.1007927656173706
1782776371968765000,1.977764892578125,-0.59803706407547,0.10567969083786011,0.16004669666290283
1782776371978796300,1.98779638671875,-0.5742133259773254,0.07819075137376785,0.1875356286764145
1782776371988784400,1.997784423828125,-0.578489363193512,-0.059864792972803116,0.16004669666290283
1782776371998784800,2.00778466796875,-0.6377432942390442,-0.34513887763023376,0.05803219974040985
1782776372008773600,2.017773681640625,-0.7611380815505981,-0.7641924023628235,-0.11239920556545258
1782776372018804200,2.02780419921875,-0.9260717034339905,-1.1753047704696655,-0.3194825351238251
1782776372028793000,2.03779296875,-1.091616153717041,-1.4013248682022095,-0.5161811113357544
1782776372038793000,2.04779296875,-1.2394455671310425,-1.3933836221694946,-0.665232241153717
1782776372048782300,2.0577822265625,-1.356731653213501,-1.188132882118225,-0.7470881938934326
1782776372058813400,2.0678134765625,-1.4208725690841675,-0.8436049222946167,-0.7470881938934326
1782776372068770800,2.077770751953125,-1.3964380025863647,-0.43799036741256714,-0.694553792476654
1782776372078803200,2.08780322265625,-1.292590856552124,-0.10873401165008545,-0.626747727394104
1782776372088790500,2.09779052734375,-1.1276572942733765,0.08491026610136032,-0.5681046843528748
1782776372098791200,2.107791259765625,-0.9480628371238708,0.152105450630188,-0.5094616413116455
1782776372108779800,2.11777978515625,-0.797789990901947,0.13072516024112701,-0.4294382631778717
1782776372118811000,2.127810791015625,-0.694553792476654,0.07880161702632904,-0.31642818450927734
1782776372128768800,2.137768798828125,-0.6407976150512695,0.039706241339445114,-0.17470745742321014
1782776372138799400,2.14779931640625,-0.6285803318023682,0.015271631069481373,-0.010995574295520782
1782776372148788000,2.1577880859375,-0.646295428276062,-0.010995574295520782,0.152105450630188
1782776372158788400,2.167788330078125,-0.6731734871864319,-0.06902777403593063,0.2974913716316223
1782776372168777200,2.177777099609375,-0.6939429044723511,-0.14782938361167908,0.4147774875164032
1782776372178807800,2.187807861328125,-0.7043276429176331,-0.24007004499435425,0.5009095072746277
1782776372188766200,2.19776611328125,-0.7061602473258972,-0.3500257730484009,0.5516113042831421
1782776372198797000,2.207797119140625,-0.7000515460968018,-0.4495968222618103,0.5705481171607971
1782776372208785700,2.21778564453125,-0.6878342628479004,-0.5271766781806946,0.5546656250953674
1782776372218785800,2.227785888671875,-0.66584312915802,-0.588263213634491,0.49846604466438293
1782776372228775000,2.23777490234375,-0.645684540271759,-0.6310238242149353,0.40256020426750183
1782776372238805200,2.24780517578125,-0.6395758986473083,-0.6511823534965515,0.2779437005519867
1782776372248763600,2.257763671875,-0.6524040699005127,-0.6426302194595337,0.1362229436635971
1782776372258794500,2.26779443359375,-0.6805039048194885,-0.6163630485534668,-0.0012217304902151227
1782776372268783000,2.277783203125,-0.7177666425704956,-0.5644394755363464,-0.12095131725072861
1782776372278814000,2.28781396484375,-0.7519751191139221,-0.4813618063926697,-0.20952677726745605
1782776372288772400,2.2977724609375,-0.7855727076530457,-0.39156460762023926,-0.2626720666885376
1782776372298803000,2.307802978515625,-0.8112290501594543,-0.3017674386501312,-0.2840523421764374
1782776372308791800,2.317791748046875,-0.8038986921310425,-0.2834414839744568,-0.26083946228027344
1782776372318792000,2.3277919921875,-0.7819074988365173,-0.2974913716316223,-0.21868975460529327
1782776372328780800,2.33778076171875,-0.7544185519218445,-0.3543018400669098,-0.16554448008537292
1782776372338811600,2.347811767578125,-0.7257078886032104,-0.42699480056762695,-0.10323622822761536
1782776372348770000,2.35777001953125,-0.7006624341011047,-0.48380526900291443,-0.036651913076639175
1782776372358800600,2.367800537109375,-0.6921103000640869,-0.5155702829360962,0.029932396486401558
1782776372368789200,2.377789306640625,-0.7018841505050659,-0.5345070958137512,0.08918632566928864
1782776372378789600,2.38778955078125,-0.7250970602035522,-0.5149593949317932,0.14294247329235077
1782776372388778500,2.397778564453125,-0.7641924023628235,-0.4550946056842804,0.19058994948863983
1782776372398809000,2.40780908203125,-0.8148942589759827,-0.3732386529445648,0.22113321721553802
1782776372408767500,2.417767578125,-0.8674286603927612,-0.28466320037841797,0.2321287989616394
1782776372418798000,2.427798095703125,-0.9083566069602966,-0.19364428520202637,0.21319197118282318
1782776372428787000,2.437786865234375,-0.9364564418792725,-0.10873401165008545,0.16554448008537292
1782776372438787000,2.447787109375,-0.9535606503486633,-0.019547687843441963,0.09529497474431992
1782776372448776000,2.45777587890625,-0.960280179977417,0.0708603709936142,0.012828170321881771
1782776372458793500,2.46779345703125,-0.9560040831565857,0.1569923609495163,-0.0757472887635231
1782776372468765000,2.477764892578125,-0.9425650835037231,0.2272418737411499,-0.15943582355976105
1782776372478795800,2.487795654296875,-0.9224064946174622,0.26633724570274353,-0.2272418737411499
1782776372488784400,2.497784423828125,-0.8930850028991699,0.294437050819397,-0.2724458873271942
1782776372498784800,2.50778466796875,-0.8558222055435181,0.3243694305419922,-0.2926044464111328
1782776372508773600,2.517773681640625,-0.8191702961921692,0.3543018400669098,-0.2993239760398865
1782776372518805000,2.527804931640625,-0.788016140460968,0.36163222789764404,-0.3017674386501312
1782776372528793000,2.53779296875,-0.7470881938934326,0.33719760179519653,-0.2987131178379059
1782776372538794000,2.5477939453125,-0.6951646208763123,0.2981022298336029,-0.28099802136421204
1782776372548782000,2.557781982421875,-0.636521577835083,0.2590068578720093,-0.23884831368923187
1782776372558813700,2.567813720703125,-0.578489363193512,0.22846360504627228,-0.1661553531885147
1782776372568771000,2.57777099609375,-0.5277875661849976,0.2223549485206604,-0.06963863968849182
1782776372578802400,2.587802490234375,-0.475253164768219,0.22907446324825287,0.028099801391363144
1782776372588790500,2.59779052734375,-0.4105014503002167,0.25534167885780334,0.11178833991289139
1782776372598791400,2.60779150390625,-0.3219259977340698,0.303600013256073,0.17104226350784302
1782776372608779800,2.61777978515625,-0.21441370248794556,0.3903428912162781,0.21013765037059784
1782776372618811000,2.627810791015625,-0.1007927656173706,0.4801400899887085,0.2321287989616394
1782776372628768800,2.637768798828125,0.005497787147760391,0.4905247986316681,0.22663100063800812
1782776372638800000,2.6477998046875,0.09468411654233932,0.33169981837272644,0.15821409225463867
1782776372648788200,2.657788330078125,0.1270599663257599,-0.042760565876960754,0.015271631069481373
1782776372658788400,2.667788330078125,0.09651670604944229,-0.5161811113357544,-0.17409659922122955
1782776372668777200,2.677777099609375,0.012828170321881771,-0.901637077331543,-0.34513887763023376
1782776372678807800,2.687807861328125,-0.12278391420841217,-1.0775662660598755,-0.43676865100860596
1782776372688766200,2.69776611328125,-0.30543261766433716,-0.9920451641082764,-0.4349360466003418
1782776372698796800,2.707796875,-0.5015203952789307,-0.6988298296928406,-0.35185837745666504
1782776372708785700,2.71778564453125,-0.6475171446800232,-0.24862214922904968,-0.21441370248794556
1782776372718787000,2.727787109375,-0.7073819637298584,0.45204028487205505,-0.0012217304902151227
1782776372728775000,2.73777490234375,-0.6517932415008545,0.7476990818977356,0.09162978827953339
1782776372738806500,2.747806640625,-0.5338962078094482,0.8814785480499268,0.14477506279945374
1782776372748764000,2.757763916015625,-0.37140607833862305,0.9059131741523743,0.18997909128665924
1782776372758794800,2.767794677734375,-0.20525072515010834,0.8747590184211731,0.23884831368923187
1782776372768783000,2.777783203125,-0.08796459436416626,0.8307767510414124,0.30482175946235657
1782776372778814500,2.787814453125,-0.03420845419168472,0.7867944240570068,0.37751471996307373
1782776372788772400,2.7977724609375,-0.021991148591041565,0.7165449261665344,0.45142942667007446
1782776372798803500,2.807803466796875,-0.02626720629632473,0.6120869517326355,0.5149593949317932
1782776372808791800,2.817791748046875,-0.039095375686883926,0.4593706727027893,0.5607742667198181
1782776372818791400,2.82779150390625,-0.06352998316287994,0.25961771607398987,0.5858197808265686
1782776372828780300,2.8377802734375,-0.0959058403968811,0.013439035043120384,0.588263213634491
1782776372838811400,2.847811279296875,-0.13377949595451355,-0.2816088795661926,0.5571091175079346
1782776372848769300,2.857769287109375,-0.18509216606616974,-0.6792821288108826,0.4746423065662384
1782776372858799900,2.8677998046875,-0.25534167885780334,-1.1380419731140137,0.33292156457901
1782776372868789000,2.8777890625,-0.33719760179519653,-1.549154281616211,0.17104226350784302
1782776372878788900,2.887788818359375,-0.44715335965156555,-1.822821855545044,0.009773843921720982
1782776372888778000,2.897778076171875,-0.608421802520752,-1.929112434387207,-0.10690141469240189
1782776372898808600,2.90780859375,-0.7916813492774963,-1.80510675907135,-0.15393804013729095
1782776372908767000,2.91776708984375,-0.9395107626914978,-1.436144232749939,-0.12828169763088226
1782776372918797800,2.9277978515625,-1.0219775438308716,-0.9346238374710083,-0.05864306539297104
1782776372928787000,2.937786865234375,-1.026253581047058,-0.40744712948799133,0.019547687843441963
1782776372938787600,2.94778759765625,-0.959669291973114,0.07941248267889023,0.08002334833145142
1782776372948776000,2.95777587890625,-0.8491026759147644,0.45631635189056396,0.10323622822761536
1782776372958807600,2.9678076171875,-0.7330383062362671,0.675006091594696,0.09040805697441101
1782776372968765000,2.977764892578125,-0.6230825781822205,0.7684684991836548,0.06475171446800232
1782776372978796000,2.987796142578125,-0.5290092825889587,0.7684684991836548,0.04459316283464432
1782776372988784600,2.99778466796875,-0.4691445231437683,0.7147123217582703,0.03787364438176155
1782776372998785000,3.007784912109375,-0.455705463886261,0.6194173693656921,0.036651913076639175
1782776373008773600,3.017773681640625,-0.47708576917648315,0.4996877610683441,0.03848451003432274
1782776373018804500,3.027804443359375,-0.5174028873443604,0.375071257352829,0.04153883829712868
1782776373028793000,3.03779296875,-0.5693264007568359,0.2535090744495392,0.045204028487205505
1782776373038794000,3.0477939453125,-0.6285803318023682,0.13439035415649414,0.05192354694008827
1782776373048782300,3.0577822265625,-0.6921103000640869,0.03481931984424591,0.056810468435287476
1782776373058813400,3.0678134765625,-0.7574729323387146,-0.06536258012056351,0.04581489413976669
1782776373068771000,3.07777099609375,-0.8130616545677185,-0.18814650177955627,0.007941247895359993
1782776373078802400,3.087802490234375,-0.8546004891395569,-0.32009339332580566,-0.04459316283464432
1782776373088790500,3.09779052734375,-0.8802568316459656,-0.4245513379573822,-0.1007927656173706
1782776373098791400,3.10779150390625,-0.8949176073074341,-0.5021312236785889,-0.15821409225463867
1782776373108779800,3.11777978515625,-0.9059131741523743,-0.5607742667198181,-0.20952677726745605
1782776373118811000,3.127810791015625,-0.9193521738052368,-0.5955936312675476,-0.24617868661880493
1782776373128768800,3.137768798828125,-0.9419541954994202,-0.6163630485534668,-0.25473082065582275
1782776373138800000,3.147800048828125,-0.9773843884468079,-0.6389650702476501,-0.20952677726745605
1782776373148788200,3.157788330078125,-0.9993755221366882,-0.7092145681381226,-0.16310101747512817
1782776373158789000,3.1677890625,-1.0170906782150269,-0.8784242272377014,-0.1319468915462494
1782776373168777200,3.177777099609375,-1.0329731702804565,-1.1313223838806152,-0.1258382350206375
1782776373178807800,3.187807861328125,-1.0714576244354248,-1.4208725690841675,-0.13500121235847473
1782776373188766200,3.19776611328125,-1.156978726387024,-1.6701055765151978,-0.1313360333442688
1782776373198796800,3.207796875,-1.2864822149276733,-1.816102385520935,-0.09712757170200348
1782776373208785700,3.21778564453125,-1.4385876655578613,-1.8558086156845093,-0.03420845419168472
1782776373218785800,3.227785888671875,-1.595579981803894,-1.7550158500671387,0.05497787147760391
1782776373228775000,3.23777490234375,-1.7299703359603882,-1.529606580734253,0.15821409225463867
1782776373238837200,3.247837158203125,-1.8234328031539917,-1.216843605041504,0.25595253705978394
1782776373248764000,3.257763916015625,-1.872912883758545,-0.940732479095459,0.3176499307155609
1782776373258794200,3.267794189453125,-1.8961256742477417,-0.7733554244041443,0.3243694305419922
1782776373268783000,3.277783203125,-1.9022343158721924,-0.7000515460968018,0.28955012559890747
1782776373278814000,3.28781396484375,-1.9089539051055908,-0.6921103000640869,0.2278527319431305
1782776373288772400,3.2977724609375,-1.9236146211624146,-0.7305948138237,0.15882496535778046
1782776373298803000,3.307802978515625,-1.9413297176361084,-0.7849618196487427,0.0861319974064827
1782776373308791800,3.317791748046875,-1.9547687768936157,-0.8307767510414124,0.00733038317412138
1782776373318794200,3.327794189453125,-1.9535470008850098,-0.8710938692092896,-0.09651670604944229
1782776373328781000,3.337781005859375,-1.9431623220443726,-0.9187413454055786,-0.24068090319633484
1782776373338814000,3.34781396484375,-1.9602665901184082,-1.0519099235534668,-0.42760565876960754
1782776373348769800,3.357769775390625,-2.0366246700286865,-1.292590856552124,-0.6359107494354248
1782776373358802700,3.367802734375,-2.1844542026519775,-1.5668693780899048,-0.8246681094169617
1782776373368789200,3.377789306640625,-2.3817636966705322,-1.7660114765167236,-0.9847147464752197
1782776373378791700,3.387791748046875,-2.5912904739379883,-1.8362609148025513,-1.1191051006317139
1782776373388778500,3.397778564453125,-2.7794368267059326,-1.794722080230713,-1.238223910331726
1782776373398811100,3.40781103515625,-2.942537784576416,-1.720807433128357,-1.3542882204055786
1782776373408767500,3.417767578125,-3.0689868927001953,-1.6768250465393066,-1.4624114036560059
1782776373418798000,3.427798095703125,-3.1563408374786377,-1.6823228597640991,-1.5485434532165527
1782776373428787000,3.437786865234375,-3.2003231048583984,-1.758681058883667,-1.6114624738693237
1782776373438787000,3.447787109375,-3.205209970474243,-1.8949040174484253,-1.6487252712249756
1782776373448776000,3.45777587890625,-3.1813862323760986,-2.0512855052948,-1.655444860458374
1782776373458806500,3.467806640625,-3.1398472785949707,-2.1820106506347656,-1.6383405923843384
1782776373468765200,3.47776513671875,-3.0909781455993652,-2.2705860137939453,-1.5888605117797852
1782776373478795800,3.487795654296875,-3.039665460586548,-2.2992968559265137,-1.5045610666275024
1782776373488784400,3.497784423828125,-2.984687566757202,-2.2455406188964844,-1.380555510520935
1782776373498784800,3.50778466796875,-2.9303205013275146,-2.1313087940216064,-1.2247848510742188
1782776373508773600,3.517773681640625,-2.8802297115325928,-1.9938641786575317,-1.0555751323699951
1782776373518804200,3.52780419921875,-2.836247444152832,-1.870469331741333,-0.8955284357070923
1782776373528793000,3.53779296875,-2.791043281555176,-1.7800613641738892,-0.7709119319915771
1782776373538793200,3.547793212890625,-2.7507262229919434,-1.7324138879776,-0.7000515460968018
1782776373549811200,3.558811279296875,-2.693915843963623,-1.712866187095642,-0.6957755088806152
1782776373568771000,3.57777099609375,-2.623666286468506,-1.7263051271438599,-0.8283332586288452
1782776373578801700,3.5878017578125,-2.58762526512146,-1.709811806678772,-0.9040805697441101
1782776373588790500,3.59779052734375,-2.549140691757202,-1.645671010017395,-0.9535606503486633
1782776373598790700,3.607790771484375,-2.5057692527770996,-1.5418238639831543,-0.9724974632263184
1782776373608779800,3.61777978515625,-2.453234910964966,-1.433700680732727,-0.9706648588180542
1782776373618811600,3.627811767578125,-2.39214825630188,-1.32863187789917,-0.9523389339447021
1782776373628768800,3.637768798828125,-2.3243422508239746,-1.1997393369674683,-0.9175195693969727
1782776373638800600,3.647800537109375,-2.264477491378784,-1.0714576244354248,-0.8668177723884583
1782776373648788200,3.657788330078125,-2.202169179916382,-0.93095862865448,-0.8216137290000916
1782776373658788400,3.667788330078125,-2.138028383255005,-0.7929030656814575,-0.779464066028595
1782776373668777200,3.677777099609375,-2.079996109008789,-0.6597344875335693,-0.7434229850769043
1782776373678807800,3.687807861328125,-2.0305161476135254,-0.5308418869972229,-0.7134906053543091
1782776373688766200,3.69776611328125,-1.9908097982406616,-0.40744712948799133,-0.684779942035675
1782776373698797000,3.707797119140625,-1.957212209701538,-0.28649580478668213,-0.6633996367454529
1782776373708786000,3.717785888671875,-1.9327776432037354,-0.17837265133857727,-0.645684540271759
1782776373718786000,3.7277861328125,-1.910786509513855,-0.09162978827953339,-0.636521577835083
1782776373728775000,3.73777490234375,-1.8942930698394775,-0.04153883829712868,-0.6316346526145935
1782776373738805500,3.747805419921875,-1.8759671449661255,-0.02932153269648552,-0.616973876953125
1782776373748763600,3.757763671875,-1.8558086156845093,0.00366519158706069,-0.5833762884140015
1782776373758794500,3.76779443359375,-1.8374826908111572,0.03726277872920036,-0.5345070958137512
1782776373768783000,3.777783203125,-1.8270978927612305,0.06169738993048668,-0.48380526900291443
1782776373778814000,3.78781396484375,-1.8179349899291992,0.06902777403593063,-0.4349360466003418
1782776373788772400,3.7977724609375,-1.80510675907135,0.06352998316287994,-0.39217549562454224
1782776373798803200,3.80780322265625,-1.7898352146148682,0.04886921867728233,-0.36224308609962463
1782776373808792000,3.8177919921875,-1.7647897005081177,0.039706241339445114,-0.34574973583221436
1782776373818791200,3.827791259765625,-1.728137731552124,0.0403171069920063,-0.34636059403419495
1782776373828780300,3.8377802734375,-1.6927075386047363,0.0403171069920063,-0.36224308609962463
1782776373838811000,3.847810791015625,-1.6615535020828247,0.03848451003432274,-0.38606682419776917
1782776373848769300,3.857769287109375,-1.6413949728012085,0.05314527451992035,-0.4080579876899719
1782776373858800000,3.867800048828125,-1.6377297639846802,0.08368854224681854,-0.42760565876960754
1782776373868789000,3.8777890625,-1.6395623683929443,0.12461651116609573,-0.44776421785354614
1782776373878789000,3.8877890625,-1.642616629600525,0.1667662113904953,-0.46853363513946533
1782776373888778000,3.897778076171875,-1.6340645551681519,0.1918116807937622,-0.48685958981513977
1782776373898808600,3.90780859375,-1.605353832244873,0.20525072515010834,-0.4911356568336487
1782776373908767000,3.91776708984375,-1.5503759384155273,0.19792033731937408,-0.4709770977497101
1782776373918798000,3.927798095703125,-1.4715744256973267,0.17776179313659668,-0.4153883755207062
1782776373928787000,3.937786865234375,-1.3829989433288574,0.1508837193250656,-0.3194825351238251
1782776373938787300,3.947787353515625,-1.2932016849517822,0.13439035415649414,-0.18936823308467865
1782776373948776200,3.957776123046875,-1.2131783962249756,0.11362093687057495,-0.0403171069920063
1782776373958806500,3.967806640625,-1.140485405921936,0.08552113175392151,0.11423180252313614
1782776373968765000,3.977764892578125,-1.0775662660598755,0.05192354694008827,0.26145032048225403
1782776373978795500,3.98779541015625,-1.0054842233657837,0.045204028487205505,0.4453207552433014
1782776373988784600,3.99778466796875,-0.9944885969161987,0.02321287989616394,0.5149593949317932
1782776373998784800,4.00778466796875,-1.0109820365905762,-0.013439035043120384,0.5369505286216736
1782776374008773600,4.017773681640625,-1.0415252447128296,-0.04337143152952194,0.5070181488990784
1782776374018804000,4.027803955078125,-1.0793988704681396,-0.08491026610136032,0.42760565876960754
1782776374028793000,4.03779296875,-1.1032226085662842,-0.1313360333442688,0.31459560990333557
1782776374038793000,4.04779296875,-1.1117748022079468,-0.1612684279680252,0.1820378452539444
1782776374048782000,4.057781982421875,-1.0989465713500977,-0.15271630883216858,0.059864792972803116
1782776374058812700,4.067812744140625,-1.0781772136688232,-0.11728613078594208,-0.039095375686883926
1782776374068771000,4.07777099609375,-1.0598511695861816,-0.06841690838336945,-0.0959058403968811
1782776374078802000,4.087802001953125,-1.0409144163131714,-0.001832595793530345,-0.1007927656173706
1782776374088790500,4.09779052734375,-1.018923282623291,0.056810468435287476,-0.07330382615327835
1782776374098790700,4.107790771484375,-0.9969320893287659,0.0757472887635231,-0.03787364438176155
1782776374108779800,4.11777978515625,-0.9669997096061707,0.05619960278272629,-0.015271631069481373
1782776374118811000,4.127810791015625,-0.9260717034339905,0.009773843921720982,-0.012217304669320583
1782776374128768800,4.137768798828125,-0.8710938692092896,-0.05803219974040985,-0.030543262138962746
1782776374138800000,4.147800048828125,-0.8136724829673767,-0.13500121235847473,-0.07513642311096191
1782776374148788200,4.157788330078125,-0.759916365146637,-0.20463985204696655,-0.11423180252313614
1782776374158788900,4.167788818359375,-0.7000515460968018,-0.24617868661880493,-0.14294247329235077
1782776374168777200,4.177777099609375,-0.6328563690185547,-0.23579397797584534,-0.15760323405265808
1782776374178808600,4.18780859375,-0.5534439086914062,-0.16554448008537292,-0.15393804013729095
1782776374188766200,4.19776611328125,-0.4691445231437683,-0.08246681094169617,-0.13927727937698364
1782776374198797600,4.207797607421875,-0.3891211748123169,-0.03481931984424591,-0.12034045159816742
1782776374208785700,4.21778564453125,-0.32131510972976685,-0.05742133408784866,-0.10812314599752426
1782776374218786600,4.22778662109375,-0.2742784917354584,-0.13561208546161652,-0.11362093687057495
1782776374228774700,4.237774658203125,-0.2480112910270691,-0.2785545587539673,-0.1612684279680252
1782776374238806000,4.247805908203125,-0.27488934993743896,-0.4392121136188507,-0.21441370248794556
1782776374248763600,4.257763671875,-0.3481931984424591,-0.5613851547241211,-0.2565633952617645
1782776374258795000,4.267794921875,-0.413555771112442,-0.5766568183898926,-0.28099802136421204
1782776374268783400,4.277783447265625,-0.4489859640598297,-0.47342056035995483,-0.28588494658470154
1782776374278814200,4.287814208984375,-0.45753806829452515,-0.2871066629886627,-0.27122417092323303
1782776374288772400,4.2977724609375,-0.44104471802711487,-0.05253441259264946,-0.23945917189121246
1782776374298803700,4.3078037109375,-0.41661009192466736,0.1618792861700058,-0.2070833146572113
1782776374308791800,4.317791748046875,-0.3836233615875244,0.30543261766433716,-0.19120082259178162
1782776374318792700,4.327792724609375,-0.3390302062034607,0.3634648323059082,-0.19792033731937408
1782776374328780800,4.33778076171875,-0.29077184200286865,0.3433062732219696,-0.21135938167572021
1782776374338812200,4.347812255859375,-0.24068090319633484,0.24434609711170197,-0.2223549485206604
1782776374348770300,4.357770263671875,-0.18387043476104736,0.1160643994808197,-0.2321287989616394
1782776374358801200,4.36780126953125,-0.15577064454555511,-0.02626720629632473,-0.22968533635139465
1782776374368789500,4.37778955078125,-0.15760323405265808,-0.16798794269561768,-0.21563543379306793
1782776374378790000,4.387789794921875,-0.16554448008537292,-0.29077184200286865,-0.2223549485206604
1782776374388778200,4.3977783203125,-0.20036379992961884,-0.42088615894317627,-0.23579397797584534
1782776374398809300,4.407809326171875,-0.25961771607398987,-0.618195652961731,-0.3029891550540924
1782776374408767500,4.417767578125,-0.3072652220726013,-0.7470881938934326,-0.3695734739303589
1782776374418798600,4.427798583984375,-0.3591887652873993,-0.8607091307640076,-0.45142942667007446
1782776374428787000,4.437786865234375,-0.42088615894317627,-0.9334021210670471,-0.5259549617767334
1782776374438787800,4.447787841796875,-0.49296826124191284,-0.9248499870300293,-0.5742133259773254
1782776374448776000,4.45777587890625,-0.5662720799446106,-0.8155050873756409,-0.588263213634491
1782776374458807000,4.46780712890625,-0.6328563690185547,-0.6126978397369385,-0.5717698931694031
1782776374468765000,4.477764892578125,-0.6866125464439392,-0.3481931984424591,-0.5326744914054871
1782776374478796300,4.48779638671875,-0.7263187766075134,-0.06291911751031876,-0.48319441080093384
1782776374488784600,4.49778466796875,-0.7507534027099609,0.18997909128665924,-0.4355469346046448
1782776374498785300,4.507785400390625,-0.7629706859588623,0.394618958234787,-0.38179078698158264
1782776374508773600,4.517773681640625,-0.759305477142334,0.5589417219161987,-0.313373863697052
1782776374518804700,4.5278046875,-0.7428121566772461,0.6731734871864319,-0.23457226157188416
1782776374528793000,4.53779296875,-0.7122688889503479,0.7428121566772461,-0.1472185254096985
1782776374538793700,4.547793701171875,-0.675616979598999,0.7635815739631653,-0.06414084881544113
1782776374549378000,4.5583779296875,-0.6407976150512695,0.7342600226402283,0.01160643994808197
1782776374568771000,4.57777099609375,-0.5931501388549805,0.5204572081565857,0.12889257073402405
1782776374578802400,4.587802490234375,-0.5674937963485718,0.38117989897727966,0.17409659922122955
1782776374588790800,4.597790771484375,-0.5455026626586914,0.23579397797584534,0.20891591906547546
1782776374598791400,4.60779150390625,-0.5387831330299377,0.10506882518529892,0.23518311977386475
1782776374608779500,4.617779541015625,-0.5473352670669556,-0.009162978269159794,0.24923302233219147
1782776374618811000,4.627810791015625,-0.5681046843528748,-0.09834930300712585,0.2541199326515198
1782776374628768800,4.637768798828125,-0.5955936312675476,-0.1508837193250656,0.24984388053417206
1782776374638800100,4.647800048828125,-0.6334672570228577,-0.1918116807937622,0.24190263450145721
1782776374648788200,4.657788330078125,-0.675006091594696,-0.21624629199504852,0.2370157092809677
1782776374658789000,4.6677890625,-0.7177666425704956,-0.2272418737411499,0.22907446324825287
1782776374668777200,4.677777099609375,-0.7648032903671265,-0.24129177629947662,0.21502456068992615
1782776374678808600,4.68780859375,-0.8124507665634155,-0.2577851414680481,0.18875735998153687
1782776374688766200,4.69776611328125,-0.8600982427597046,-0.26145032048225403,0.15332718193531036
1782776374698797600,4.707797607421875,-0.901637077331543,-0.24923302233219147,0.11850785464048386
1782776374708786000,4.717785888671875,-0.940732479095459,-0.21380282938480377,0.09285151958465576
1782776374718786600,4.72778662109375,-0.9773843884468079,-0.15760323405265808,0.08246681094169617
1782776374728775000,4.73777490234375,-1.0183123350143433,-0.09957103431224823,0.08368854224681854
1782776374738806300,4.74780615234375,-1.0531316995620728,-0.05619960278272629,0.08857546001672745
1782776374748764000,4.757763916015625,-1.0708467960357666,-0.04581489413976669,0.0861319974064827
1782776374758795300,4.767795166015625,-1.0739010572433472,-0.0659734457731247,0.07696902006864548
1782776374768783000,4.777783203125,-1.0610729455947876,-0.09712757170200348,0.06780604273080826
1782776374778814700,4.787814697265625,-1.0396926403045654,-0.12767083942890167,0.06536258012056351
1782776374788772400,4.7977724609375,-1.017701506614685,-0.152105450630188,0.0659734457731247
1782776374798803700,4.8078037109375,-0.988990843296051,-0.17531833052635193,0.06902777403593063
1782776374808791800,4.817791748046875,-0.9553932547569275,-0.20525072515010834,0.0659734457731247
1782776374818791400,4.82779150390625,-0.8949176073074341,-0.2767219543457031,0.04581489413976669
1782776374828740900,4.837740966796875,-0.8515461683273315,-0.34208452701568604,0.022602014243602753
1782776374838872600,4.84787255859375,-0.8063421249389648,-0.41233405470848083,-0.0024434609804302454
1782776374848729600,4.8577294921875,-0.7629706859588623,-0.48319441080093384,-0.018325956538319588
1782776374858831000,4.8678310546875,-0.7226535677909851,-0.5577199459075928,-0.024434609338641167
1782776374870308000,4.87930810546875,-0.6780604124069214,-0.6310238242149353,-0.025656340643763542
1782776374888738300,4.89773828125,-0.5839871764183044,-0.759305477142334,-0.02687807008624077
1782776374898869500,4.907869384765625,-0.5448917746543884,-0.826500654220581,-0.033597588539123535
1782776374908727300,4.917727294921875,-0.5088507533073425,-0.9034696817398071,-0.04581489413976669
1782776374918859500,4.927859619140625,-0.4764748811721802,-0.978606104850769,-0.05742133408784866
1782776374928787000,4.937786865234375,-0.45204028487205505,-1.0134254693984985,-0.07024950534105301
1782776374938787600,4.94778759765625,-0.45265114307403564,-0.9651671051979065,-0.08429940044879913
1782776374948776000,4.95777587890625,-0.4746423065662384,-0.8344419002532959,-0.10934487730264664
1782776374958776000,4.967776123046875,-0.5015203952789307,-0.7189884185791016,-0.17104226350784302
1782776374968856600,4.977856689453125,-0.5241223573684692,-0.6988298296928406,-0.2938261926174164
1782776374978796000,4.987796142578125,-0.5516113042831421,-0.7654141783714294,-0.46364670991897583
1782776374988784600,4.99778466796875,-0.588874101638794,-0.8484918475151062,-0.6377432942390442
1782776374998784500,5.007784423828125,-0.645684540271759,-0.8741481900215149,-0.7745771408081055
1782776375008773600,5.017773681640625,-0.7202101349830627,-0.8295549750328064,-0.8533787727355957
1782776375018804700,5.0278046875,-0.8002334833145142,-0.7379252314567566,-0.8680394887924194
1782776375028793000,5.03779296875,-0.856433093547821,-0.6035348773002625,-0.8258898258209229
1782776375038793500,5.04779345703125,-0.8643743395805359,-0.4801400899887085,-0.7519751191139221
1782776375048782300,5.0577822265625,-0.8216137290000916,-0.4031710624694824,-0.6615670323371887
1782776375058813200,5.067813232421875,-0.7360926270484924,-0.38179078698158264,-0.5644394755363464
1782776375068771300,5.077771240234375,-0.6261368989944458,-0.3927863538265228,-0.4642575979232788
1782776375078802200,5.08780224609375,-0.5161811113357544,-0.4105014503002167,-0.3677408695220947
1782776375088790500,5.09779052734375,-0.4282165467739105,-0.44165557622909546,-0.28527405858039856
1782776375098791200,5.107791259765625,-0.36651915311813354,-0.44715335965156555,-0.2119702398777008
1782776375109642000,5.11864208984375,-0.3378084897994995,-0.42210787534713745,-0.15454891324043274
1782776375128728600,5.137728515625,-0.3439171314239502,-0.3170390725135803,-0.10812314599752426
1782776375138861000,5.147861083984375,-0.3390302062034607,-0.27000242471694946,-0.12095131725072861
1782776375148788200,5.157788330078125,-0.33108896017074585,-0.23884831368923187,-0.17104226350784302
1782776375158789000,5.1677890625,-0.35674530267715454,-0.23640485107898712,-0.23945917189121246
1782776375168777200,5.177777099609375,-0.3597996234893799,-0.21441370248794556,-0.31520646810531616
1782776375178808600,5.18780859375,-0.36713001132011414,-0.16004669666290283,-0.37140607833862305
1782776375188766200,5.19776611328125,-0.39767327904701233,-0.10506882518529892,-0.39156460762023926
1782776375198797300,5.20779736328125,-0.41661009192466736,-0.02015855349600315,-0.403781920671463
1782776375208786000,5.217785888671875,-0.45814892649650574,0.02321287989616394,-0.4282165467739105
1782776375218786600,5.22778662109375,-0.49724429845809937,-0.001832595793530345,-0.4795292317867279
1782776375228775000,5.23777490234375,-0.5167919993400574,-0.05803219974040985,-0.5674937963485718
1782776375238805500,5.247805419921875,-0.5222898125648499,-0.16493362188339233,-0.7409795522689819
1782776375248855600,5.25785546875,-0.5180137157440186,-0.2174680233001709,-0.8582656979560852
1782776375258795000,5.267794921875,-0.5119050741195679,-0.24068090319633484,-0.959669291973114
1782776375268783000,5.277783203125,-0.5051855444908142,-0.21991148591041565,-1.0323622226715088
1782776375278814200,5.287814208984375,-0.49235737323760986,-0.16554448008537292,-1.0604621171951294
1782776375288772400,5.2977724609375,-0.4538728892803192,-0.06475171446800232,-1.036027431488037
1782776375298803700,5.3078037109375,-0.3677408695220947,0.06230825558304787,-0.9462302923202515
1782776375308791800,5.317791748046875,-0.2541199326515198,0.19792033731937408,-0.7898487448692322
1782776375318793000,5.32779296875,-0.1411098688840866,0.32986724376678467,-0.5845980644226074
1782776375328780800,5.33778076171875,-0.0555887371301651,0.42149701714515686,-0.34697145223617554
1782776375338812700,5.347812744140625,-0.009773843921720982,0.45692721009254456,-0.10812314599752426
1782776375348769800,5.357769775390625,0.009162978269159794,0.4453207552433014,0.11911872029304504
1782776375358801000,5.36780078125,0.001832595793530345,0.4086688458919525,0.33169981837272644
1782776375368789500,5.37778955078125,-0.0012217304902151227,0.4050036668777466,0.5198463201522827
1782776375378790000,5.387789794921875,0.00733038317412138,0.4147774875164032,0.6884451508522034
1782776375388778500,5.397778564453125,0.028099801391363144,0.46181413531303406,0.8210029006004333
1782776375398808800,5.407808837890625,0.054367005825042725,0.5241223573684692,0.9162978529930115
1782776375408767500,5.417767578125,0.07024950534105301,0.5925393104553223,0.9651671051979065
1782776375418797800,5.4277978515625,0.05619960278272629,0.6444628238677979,0.950506329536438
1782776375428787200,5.437787109375,0.01710422709584236,0.6407976150512695,0.8643743395805359
1782776375438786800,5.447786865234375,-0.013439035043120384,0.5491678714752197,0.7299839854240417
1782776375448776000,5.45777587890625,-0.015882495790719986,0.46853363513946533,0.5894849896430969
1782776375458806500,5.467806640625,0.022602014243602753,0.5106833577156067,0.46792277693748474
1782776375468765200,5.47776513671875,0.06291911751031876,0.5699372887611389,0.3634648323059082
1782776375478795500,5.48779541015625,0.06780604273080826,0.6065891981124878,0.2590068578720093
1782776375488784600,5.49778466796875,0.04581489413976669,0.6157521605491638,0.17043140530586243
1782776375498785300,5.507785400390625,0.0403171069920063,0.6481280326843262,0.10751228034496307
1782776375508773600,5.517773681640625,0.04642575979232788,0.7104362845420837,0.0659734457731247
1782776375518804700,5.5278046875,0.05619960278272629,0.7660250067710876,0.04337143152952194
1782776375528793000,5.53779296875,0.07208210229873657,0.769690215587616,0.029932396486401558
1782776375538793700,5.547793701171875,0.09346238523721695,0.7244861721992493,0.015882495790719986
1782776375548782000,5.557781982421875,0.13011430203914642,0.6481280326843262,-0.00733038317412138
1782776375558813200,5.567813232421875,0.16737708449363708,0.5723807215690613,-0.048258353024721146
1782776375568771000,5.57777099609375,0.18997909128665924,0.48319441080093384,-0.1111774742603302
1782776375578802200,5.58780224609375,0.2119702398777008,0.4294382631778717,-0.18387043476104736
1782776375588790500,5.59779052734375,0.25045475363731384,0.4050036668777466,-0.25106561183929443
1782776375598791200,5.607791259765625,0.32009339332580566,0.36713001132011414,-0.30115658044815063
1782776375608779800,5.61777978515625,0.40744712948799133,0.30604347586631775,-0.3280346393585205
1782776375618811100,5.62781103515625,0.47280970215797424,0.2015855312347412,-0.3396410644054413
1782776375628768800,5.637768798828125,0.4899139404296875,0.056810468435287476,-0.3530801236629486
1782776375638800100,5.647800048828125,0.4599815309047699,-0.06475171446800232,-0.38179078698158264
1782776375648788200,5.657788330078125,0.394618958234787,-0.1264491081237793,-0.41233405470848083
1782776375658788400,5.667788330078125,0.31581732630729675,-0.07024950534105301,-0.44837507605552673
1782776375668777200,5.677777099609375,0.28527405858039856,0.0659734457731247,-0.455705463886261
1782776375678809000,5.68780908203125,0.2736676335334778,0.2431243658065796,-0.4508185386657715
1782776375688766200,5.69776611328125,0.2736676335334778,0.4086688458919525,-0.43737950921058655
1782776375698798000,5.707798095703125,0.29138273000717163,0.5094616413116455,-0.4098905920982361
1782776375708786000,5.717785888671875,0.35063666105270386,0.5552765130996704,-0.36163222789764404
1782776375718786800,5.727786865234375,0.4508185386657715,0.5742133259773254,-0.29016098380088806
1782776375728775000,5.73777490234375,0.5546656250953674,0.5809328556060791,-0.20097467303276062
1782776375738806500,5.747806640625,0.6401867866516113,0.5943718552589417,-0.09468411654233932
1782776375748764000,5.757763916015625,0.6963863968849182,0.645684540271759,0.018325956538319588
1782776375758795800,5.767795654296875,0.7299839854240417,0.7348709106445312,0.11423180252313614
1782776375768783000,5.777783203125,0.7440338730812073,0.769690215587616,0.15454891324043274
1782776375778813700,5.787813720703125,0.7452555894851685,0.7116580009460449,0.13011430203914642
1782776375788772600,5.797772705078125,0.7434229850769043,0.5931501388549805,0.05253441259264946
1782776375798803200,5.80780322265625,0.7269296646118164,0.40256020426750183,-0.04398229718208313
1782776375808792000,5.8177919921875,0.6957755088806152,0.19120082259178162,-0.15332718193531036
1782776375818791200,5.827791259765625,0.6682865619659424,0.01160643994808197,-0.24190263450145721
1782776375828780300,5.8377802734375,0.6688974499702454,-0.09712757170200348,-0.303600013256073
1782776375838812200,5.847812255859375,0.6914994716644287,-0.1508837193250656,-0.33169981837272644
1782776375848769300,5.857769287109375,0.7067710757255554,-0.19547687470912933,-0.32559117674827576
1782776375858801400,5.867801513671875,0.685390830039978,-0.2272418737411499,-0.28955012559890747
1782776375868789000,5.8777890625,0.6505714654922485,-0.22540926933288574,-0.2168571650981903
1782776375878790400,5.887790283203125,0.6108652353286743,-0.192422553896904,-0.12828169763088226
1782776375888778000,5.897778076171875,0.5894849896430969,-0.14477506279945374,-0.04459316283464432
1782776375898809900,5.907809814453125,0.578489363193512,-0.08918632566928864,0.02382374368607998
1782776375908767000,5.91776708984375,0.5791002511978149,-0.031154127791523933,0.059864792972803116
1782776375918799400,5.92779931640625,0.5968153476715088,0.019547687843441963,0.06841690838336945
1782776375928787000,5.937786865234375,0.6322455406188965,0.06230825558304787,0.060475658625364304
1782776375938788400,5.947788330078125,0.6768386960029602,0.09162978827953339,0.039706241339445114
1782776375948776200,5.957776123046875,0.7104362845420837,0.1062905490398407,0.012217304669320583
1782776375958807800,5.967807861328125,0.7250970602035522,0.11362093687057495,0.0024434609804302454
1782776375968765200,5.97776513671875,0.7171558141708374,0.10873401165008545,0.009773843921720982
1782776375978796300,5.98779638671875,0.6719517707824707,0.0757472887635231,0.016493361443281174
1782776375988784400,5.997784423828125,0.6126978397369385,0.006719517521560192,0.003054326167330146
1782776375998785000,6.007784912109375,0.5705481171607971,-0.05925392732024193,-0.01771509274840355
1782776376008773600,6.017773681640625,0.5400048494338989,-0.10690141469240189,-0.033597588539123535
1782776376018804700,6.0278046875,0.513737678527832,-0.13377949595451355,-0.045204028487205505
1782776376028793000,6.03779296875,0.48747047781944275,-0.1459967941045761,-0.051312681287527084
1782776376038794000,6.0477939453125,0.46792277693748474,-0.1417207419872284,-0.0555887371301651
1782776376048782000,6.057781982421875,0.4538728892803192,-0.13500121235847473,-0.06230825558304787
1782776376058813200,6.067813232421875,0.43615779280662537,-0.16310101747512817,-0.07452555745840073
1782776376068771000,6.07777099609375,0.41233405470848083,-0.19853121042251587,-0.07330382615327835
1782776376078802200,6.08780224609375,0.37140607833862305,-0.2535090744495392,-0.02076941914856434
1782776376088790500,6.09779052734375,0.32498031854629517,-0.2871066629886627,0.04337143152952194
1782776376098791400,6.10779150390625,0.2541199326515198,-0.3390302062034607,0.08429940044879913
1782776376108779800,6.11777978515625,0.19914206862449646,-0.4001167416572571,0.10873401165008545
1782776376118810600,6.127810546875,0.14966198801994324,-0.44165557622909546,0.12522737681865692
1782776376128768800,6.137768798828125,0.09407325088977814,-0.4544837474822998,0.13011430203914642
1782776376138799900,6.1477998046875,0.03726277872920036,-0.45142942667007446,0.11667526513338089
1782776376148788200,6.157788330078125,-0.010995574295520782,-0.4434881806373596,0.09468411654233932
1782776376168777200,6.177777099609375,-0.06658431142568588,-0.4288274049758911,0.08796459436416626
1782776376178808000,6.18780810546875,-0.08368854224681854,-0.42088615894317627,0.12278391420841217
1782776376188766200,6.19776611328125,-0.12339477986097336,-0.394008070230484,0.17531833052635193
1782776376198797300,6.20779736328125,-0.17898350954055786,-0.37751471996307373,0.2223549485206604
1782776376208785700,6.21778564453125,-0.22602014243602753,-0.36102136969566345,0.23335053026676178
1782776376218786600,6.22778662109375,-0.2474004179239273,-0.2822197377681732,0.21563543379306793
1782776376228775000,6.23777490234375,-0.21624629199504852,-0.21441370248794556,0.17592918872833252
1782776376238775000,6.247775146484375,-0.17409659922122955,-0.32131510972976685,0.09651670604944229
1782776376248855300,6.257855224609375,-0.15943582355976105,-0.5192354321479797,-0.001832595793530345
1782776376258795000,6.267794921875,-0.17959438264369965,-0.7177666425704956,-0.11239920556545258
1782776376268783400,6.277783447265625,-0.2431243658065796,-0.8955284357070923,-0.21563543379306793
1782776376278753000,6.2877529296875,-0.3396410644054413,-0.988379955291748,-0.2981022298336029
1782776376288863700,6.29786376953125,-0.46364670991897583,-0.9523389339447021,-0.342695415019989
1782776376298803000,6.307802978515625,-0.5845980644226074,-0.8106181621551514,-0.35185837745666504
1782776376308791800,6.317791748046875,-0.6719517707824707,-0.5907067060470581,-0.33658674359321594
1782776376318792000,6.3277919921875,-0.6994407176971436,-0.3378084897994995,-0.2968805134296417
1782776376328780800,6.33778076171875,-0.6768386960029602,-0.10567969083786011,-0.24129177629947662
1782776376338813000,6.34781298828125,-0.6145304441452026,0.06658431142568588,-0.16859880089759827
1782776376348769800,6.357769775390625,-0.504574716091156,0.21013765037059784,-0.05864306539297104
1782776376358802000,6.367802001953125,-0.3543018400669098,0.34636059403419495,0.10567969083786011
1782776376368789500,6.37778955078125,-0.20341812074184418,0.4508185386657715,0.304210901260376
1782776376378790700,6.387790771484375,-0.08185594528913498,0.4789183437824249,0.4905247986316681
1782776376388778200,6.3977783203125,0.02015855349600315,0.413555771112442,0.6401867866516113
1782776376398809300,6.407809326171875,0.10201449692249298,0.2638937830924988,0.7348709106445312
1782776376408767500,6.417767578125,0.13377949595451355,0.05314527451992035,0.7648032903671265
1782776376418797800,6.4277978515625,0.09712757170200348,-0.17837265133857727,0.7293730974197388
1782776376428787000,6.437786865234375,0.00427605677396059,-0.3878994286060333,0.6230825781822205
1782776376438786800,6.447786865234375,-0.11056660860776901,-0.5766568183898926,0.46242499351501465
1782776376448776200,6.457776123046875,-0.23640485107898712,-0.6841690540313721,0.2779437005519867
1782776376458806500,6.467806640625,-0.3591887652873993,-0.6591235995292664,0.10262536257505417
1782776376468765000,6.477764892578125,-0.46547931432724,-0.46792277693748474,-0.031154127791523933
1782776376478795800,6.487795654296875,-0.5320636034011841,-0.15271630883216858,-0.10812314599752426
1782776376488784400,6.497784423828125,-0.5277875661849976,0.20952677726745605,-0.12767083942890167
1782776376498785800,6.507785888671875,-0.45631635189056396,0.5064072608947754,-0.09224065393209457
1782776376508773600,6.517773681640625,-0.303600013256073,0.7513642311096191,0.03176499158143997
1782776376518805200,6.52780517578125,-0.17592918872833252,0.8100073337554932,0.1368338167667389
1782776376528793000,6.53779296875,-0.0354301854968071,0.7922922372817993,0.2528982162475586
1782776376538794200,6.547794189453125,0.0910189226269722,0.6951646208763123,0.36713001132011414
1782776376548782300,6.5577822265625,0.18020524084568024,0.5357288122177124,0.4691445231437683
1782776376558813200,6.567813232421875,0.2278527319431305,0.3494149148464203,0.5522221922874451
1782776376568771000,6.57777099609375,0.23640485107898712,0.15760323405265808,0.6035348773002625
1782776376578802200,6.58780224609375,0.20402899384498596,-0.009162978269159794,0.6120869517326355
1782776376588790500,6.59779052734375,0.15271630883216858,-0.13377949595451355,0.5772676467895508
1782776376598790700,6.607790771484375,0.09957103431224823,-0.19486601650714874,0.504574716091156
1782776376608779800,6.61777978515625,0.05314527451992035,-0.2125810980796814,0.3982841372489929
1782776376618810000,6.62781005859375,0.009773843921720982,-0.20586158335208893,0.27122417092323303
1782776376628768800,6.637768798828125,-0.029932396486401558,-0.1875356286764145,0.13561208546161652
1782776376638799000,6.647799072265625,-0.07391469180583954,-0.1508837193250656,0.003054326167330146
1782776376648788200,6.657788330078125,-0.11667526513338089,-0.09346238523721695,-0.1270599663257599
1782776376658788900,6.667788818359375,-0.14355333149433136,-0.012217304669320583,-0.24129177629947662
1782776376668777200,6.677777099609375,-0.14416420459747314,0.07819075137376785,-0.3286454975605011
1782776376678808300,6.687808349609375,-0.12522737681865692,0.16798794269561768,-0.3799581825733185
1782776376688766200,6.69776611328125,-0.10751228034496307,0.23457226157188416,-0.3952298164367676
1782776376698797600,6.707797607421875,-0.08429940044879913,0.2724458873271942,-0.3689626157283783
1782776376708785700,6.71778564453125,-0.048258353024721146,0.29504790902137756,-0.3078760802745819
1782776376718786300,6.727786376953125,-0.0012217304902151227,0.2926044464111328,-0.22663100063800812
1782776376728775000,6.73777490234375,0.05497787147760391,0.2675589919090271,-0.1411098688840866
1782776376738806000,6.747805908203125,0.11178833991289139,0.2278527319431305,-0.059864792972803116
1782776376748764000,6.757763916015625,0.15943582355976105,0.2021963894367218,0.022602014243602753
1782776376758795300,6.767795166015625,0.19853121042251587,0.192422553896904,0.08246681094169617
1782776376768783000,6.777783203125,0.23518311977386475,0.18997909128665924,0.1111774742603302
1782776376778814500,6.787814453125,0.2590068578720093,0.19120082259178162,0.10323622822761536
1782776376788772400,6.7977724609375,0.2767219543457031,0.1814269721508026,0.05925392732024193
1782776376798803700,6.8078037109375,0.2974913716316223,0.1618792861700058,-0.006719517521560192
1782776376808791800,6.817791748046875,0.32620203495025635,0.15821409225463867,-0.06841690838336945
1782776376818791700,6.827791748046875,0.3634648323059082,0.20586158335208893,-0.11178833991289139
1782776376828780300,6.8377802734375,0.4300491213798523,0.3597996234893799,-0.11239920556545258
1782776376838781000,6.847781005859375,0.543059229850769,0.46792277693748474,-0.07391469180583954
1782776376848861000,6.85786083984375,0.6731734871864319,0.4050036668777466,-0.029932396486401558
1782776376858800600,6.867800537109375,0.7745771408081055,0.1820378452539444,-0.01466076634824276
1782776376868789000,6.8777890625,0.8087855577468872,-0.13255776464939117,-0.05253441259264946
1782776376878789000,6.8877890625,0.7220427393913269,-0.4697553813457489,-0.15271630883216858
1782776376888778000,6.897778076171875,0.5448917746543884,-0.7122688889503479,-0.2736676335334778
1782776376898808000,6.90780810546875,0.3488040566444397,-0.7568620443344116,-0.35674530267715454
1782776376908767200,6.917767333984375,0.19425514340400696,-0.5876523852348328,-0.37201693654060364
1782776376918798800,6.927798828125,0.10445795953273773,-0.28955012559890747,-0.3243694305419922
1782776376928787000,6.937786865234375,0.11423180252313614,0.23273965716362,-0.20463985204696655
1782776376938788000,6.9477880859375,0.21868975460529327,0.5723807215690613,-0.13377949595451355
1782776376948776000,6.95777587890625,0.40744712948799133,0.8362745046615601,-0.06841690838336945
1782776376958806000,6.967805908203125,0.6524040699005127,1.0396926403045654,-0.010995574295520782
1782776376968765000,6.977764892578125,0.8979719281196594,1.1930198669433594,0.04703662544488907
1782776376978734600,6.987734619140625,1.0806206464767456,1.2852604389190674,0.09346238523721695
1782776376989647000,6.998647216796875,1.177748203277588,1.3182471990585327,0.11301007121801376
1782776377008773600,7.017773681640625,1.1704177856445312,1.1905763149261475,0.0354301854968071
1782776377018804000,7.027803955078125,1.1166616678237915,1.0464121103286743,-0.0555887371301651
1782776377028793000,7.03779296875,1.0977247953414917,0.93095862865448,-0.13866640627384186
1782776377038793200,7.047793212890625,1.0848966836929321,0.8161159753799438,-0.16493362188339233
1782776377048782000,7.057781982421875,1.0201449394226074,0.665232241153717,-0.06291911751031876
1782776377058812700,7.067812744140625,0.9340129494667053,0.23090706765651703,-0.02382374368607998
1782776377068771300,7.077771240234375,0.8698720932006836,-0.2626720666885376,-0.06230825558304787
1782776377078803000,7.087802978515625,0.8643743395805359,-0.7385360598564148,-0.1869247704744339
1782776377088790500,7.09779052734375,0.8600982427597046,-1.2119566202163696,-0.3585779070854187
1782776377098791700,7.107791748046875,0.8100073337554932,-1.5338826179504395,-0.5070181488990784
1782776377108779500,7.117779541015625,0.6988298296928406,-1.6169602870941162,-0.6206390857696533
1782776377118811400,7.127811279296875,0.5772676467895508,-1.4410310983657837,-0.6414085030555725
1782776377128768800,7.137768798828125,0.46731191873550415,-1.0293079614639282,-0.5473352670669556
