time,seconds_elapsed,z,y,x
1782776358758842400,0.17184228515625,-0.7512187957763672,0.20927906036376953,0.18343698978424072
1782776358769135600,0.182135498046875,-0.7435626983642578,0.21480560302734375,0.5817244052886963
1782776358779145500,0.1921455078125,-0.3207263946533203,0.150604248046875,1.0983397960662842
1782776358789124900,0.202124755859375,0.5346670150756836,-0.04929041862487793,1.609266757965088
1782776358799134500,0.212134521484375,1.601278305053711,-0.459381103515625,1.7413475513458252
1782776358809144300,0.222144287109375,2.6528472900390625,-1.0115437507629395,1.5478540658950806
1782776358819123500,0.23212353515625,3.5399951934814453,-1.5579538345336914,1.1668092012405396
1782776358829133000,0.242133056640625,3.848935127258301,-1.8664441108703613,0.6332807540893555
1782776358839143000,0.252142822265625,3.980757713317871,-2.042811393737793,0.13705241680145264
1782776358849122300,0.262122314453125,3.8650150299072266,-2.092751979827881,0.1553645133972168
1782776358859132000,0.2721318359375,3.309835433959961,-2.1032793521881104,0.355343222618103
1782776358869141800,0.282141845703125,2.2855234146118164,-2.117370128631592,0.48466742038726807
1782776358879121200,0.29212109375,1.040724754333496,-2.1802773475646973,0.3353457450866699
1782776358889131000,0.302131103515625,-0.1313943862915039,-2.335021495819092,0.037046074867248535
1782776358899140600,0.312140625,-1.0322422981262207,-2.508422374725342,-0.3920099139213562
1782776358909119700,0.32211962890625,-1.7320342063903809,-2.606870651245117,-0.6264759302139282
1782776358919129300,0.33212939453125,-2.248595714569092,-2.450655937194824,-0.5118653774261475
1782776358929139200,0.34213916015625,-2.460726737976074,-2.2164154052734375,-0.1406264305114746
1782776358939118600,0.35211865234375,-2.3538999557495117,-1.9532039165496826,0.3349858522415161
1782776358949128400,0.36212841796875,-2.1428351402282715,-1.6453146934509277,1.0024200677871704
1782776358959138300,0.37213818359375,-1.8144125938415527,-1.4288699626922607,1.5356738567352295
1782776358969117400,0.382117431640625,-1.5815796852111816,-1.1049623489379883,2.1482691764831543
1782776358979127300,0.392127197265625,-1.2547292709350586,-0.6451206207275391,2.715928077697754
1782776358989137000,0.402136962890625,-0.7184886932373047,-0.22854328155517578,3.4150466918945312
1782776358999116300,0.4121162109375,0.008231163024902344,-0.02926015853881836,3.892758369445801
1782776359009126000,0.4221259765625,0.5988149642944336,-0.21089935302734375,3.7344729900360107
1782776359019135500,0.432135498046875,1.0579004287719727,-0.6744287014007568,2.9424071311950684
1782776359029145300,0.442145263671875,1.049081802368164,-1.1759998798370361,1.6345398426055908
1782776359039124700,0.452124755859375,0.8396005630493164,-1.4844579696655273,0.4720141887664795
1782776359049134300,0.46213427734375,0.5247955322265625,-1.6993892192840576,-0.4921133518218994
1782776359059144200,0.472144287109375,0.22631072998046875,-1.7629287242889404,-0.9871087670326233
1782776359069123600,0.48212353515625,0.006924629211425781,-1.6143419742584229,-1.0199390649795532
1782776359079133400,0.492133544921875,-0.27649688720703125,-1.3223779201507568,-0.6177201271057129
1782776359089143000,0.50214306640625,-0.6399321556091309,-1.087092399597168,-0.07457268238067627
1782776359099122200,0.5121220703125,-1.075545310974121,-0.8544976711273193,0.35330724716186523
1782776359109132000,0.522132080078125,-1.598660945892334,-0.6435666084289551,0.7570304870605469
1782776359119141600,0.5321416015625,-2.121030807495117,-0.4221687316894531,1.134761095046997
1782776359129121000,0.54212109375,-2.4884305000305176,-0.29702281951904297,1.3776568174362183
1782776359139131000,0.552130859375,-2.658071994781494,-0.28594112396240234,1.4323787689208984
1782776359149140500,0.562140380859375,-2.606901168823242,-0.34159183502197266,1.3451777696609497
1782776359159120000,0.572119873046875,-2.4116225242614746,-0.49403905868530273,1.2322611808776855
1782776359169129500,0.58212939453125,-2.077244281768799,-0.5631918907165527,1.073333978652954
1782776359179139300,0.592139404296875,-1.6554007530212402,-0.6388235092163086,0.9167592525482178
1782776359189118700,0.60211865234375,-1.1464481353759766,-0.7738394737243652,0.750654935836792
1782776359199128600,0.612128662109375,-0.8064627647399902,-0.8161168098449707,0.7118650674819946
1782776359209138200,0.62213818359375,-0.6265721321105957,-0.6949491500854492,0.790052056312561
1782776359219117300,0.632117431640625,-0.4833970069885254,-0.5329074859619141,0.955894947052002
1782776359229127200,0.642127197265625,-0.546271800994873,-0.46973419189453125,1.1106665134429932
1782776359239136800,0.65213671875,-0.40798282623291016,-0.09871244430541992,1.1155033111572266
1782776359249116200,0.6621162109375,-0.45369958877563477,-0.43680763244628906,1.0393733978271484
1782776359259126000,0.6721259765625,-0.5621399879455566,-0.8447813987731934,0.9300216436386108
1782776359269135600,0.682135498046875,-0.36866092681884766,-0.7832517623901367,0.3733431100845337
1782776359279145500,0.6921455078125,-0.3218717575073242,-0.6879134178161621,-0.2889058589935303
1782776359289124900,0.702124755859375,-0.3690328598022461,-0.6586613655090332,-0.486510694026947
1782776359299134500,0.712134521484375,-0.33296871185302734,-0.5824055671691895,-0.41102904081344604
1782776359309144300,0.722144287109375,-0.17170333862304688,-0.49800777435302734,-0.2516130208969116
1782776359319123500,0.73212353515625,0.2187061309814453,-0.39274072647094727,-0.16199302673339844
1782776359329133300,0.74213330078125,0.591792106628418,-0.1952342987060547,-0.13864421844482422
1782776359339143000,0.752142822265625,0.8106145858764648,-0.2003321647644043,-0.032712697982788086
1782776359349122300,0.762122314453125,1.0496206283569336,-0.1187586784362793,-0.009469151496887207
1782776359359132200,0.772132080078125,1.1786441802978516,-0.07007074356079102,-0.090187668800354
1782776359369141800,0.782141845703125,1.3191804885864258,0.01013803482055664,0.07620131969451904
1782776359379121200,0.79212109375,1.2847328186035156,-0.015156269073486328,0.19962036609649658
1782776359389131000,0.802131103515625,1.225691795349121,-0.016952991485595703,0.06143379211425781
1782776359399140600,0.812140625,1.2487287521362305,0.04389333724975586,-0.16335636377334595
1782776359409119700,0.82211962890625,1.163142204284668,-0.05060291290283203,-0.41131019592285156
1782776359419129600,0.832129638671875,1.0521659851074219,-0.15772581100463867,-0.5348812341690063
1782776359429139200,0.84213916015625,1.219329833984375,-0.15169382095336914,-0.49611663818359375
1782776359439118600,0.85211865234375,1.570612907409668,-0.15106916427612305,-0.26995164155960083
1782776359449128400,0.86212841796875,1.9503002166748047,-0.26841115951538086,0.18131577968597412
1782776359459138000,0.872137939453125,2.1524648666381836,-0.41645383834838867,0.6131066083908081
1782776359469117400,0.882117431640625,2.3368682861328125,-0.533395528793335,0.6174570322036743
1782776359479127300,0.892127197265625,2.3665590286254883,-0.7105712890625,0.4882919192314148
1782776359489137000,0.902136962890625,2.1172914505004883,-0.8893365859985352,0.3991885185241699
1782776359499116000,0.912115966796875,1.752732276916504,-1.0815026760101318,0.18522429466247559
1782776359509126000,0.9221259765625,1.3335561752319336,-1.285789966583252,-0.23469477891921997
1782776359519135500,0.932135498046875,0.8415431976318359,-1.4912307262420654,-0.7258173227310181
1782776359529145300,0.942145263671875,0.25832080841064453,-1.584167718887329,-1.126901388168335
1782776359539124700,0.952124755859375,-0.3817148208618164,-1.623464584350586,-1.4281251430511475
1782776359549134300,0.96213427734375,-0.8340129852294922,-1.5802967548370361,-1.7231252193450928
1782776359559144200,0.972144287109375,-0.9194159507751465,-1.3984096050262451,-1.9059462547302246
1782776359569123600,0.98212353515625,-0.8362607955932617,-1.2045669555664062,-1.8130561113357544
1782776359579133200,0.99213330078125,-0.7780780792236328,-1.1114003658294678,-1.5067968368530273
1782776359589143000,1.00214306640625,-0.6188745498657227,-1.0720555782318115,-1.1463277339935303
1782776359599122200,1.0121220703125,-0.18838214874267578,-0.8927497863769531,-0.5690757632255554
1782776359609132000,1.022132080078125,0.5843133926391602,-0.5535013675689697,0.2800202965736389
1782776359619142000,1.032141845703125,1.4814481735229492,-0.2630271911621094,1.2011387348175049
1782776359629121000,1.04212109375,2.453990936279297,-0.1842174530029297,1.8443310260772705
1782776359639130600,1.052130615234375,3.2763938903808594,-0.18571758270263672,2.2408504486083984
1782776359649140500,1.062140380859375,3.8483076095581055,-0.2868804931640625,2.216676712036133
1782776359659119900,1.072119873046875,3.957221031188965,-0.571160078048706,1.7859182357788086
1782776359669129700,1.082129638671875,3.5227346420288086,-0.9033434391021729,0.9294230937957764
1782776359679139300,1.092139404296875,2.5599756240844727,-1.3143763542175293,0.0315704345703125
1782776359689118700,1.10211865234375,1.394953727722168,-1.6069645881652832,-0.683272123336792
1782776359699128600,1.112128662109375,0.23747730255126953,-1.7518091201782227,-1.1403032541275024
1782776359709138200,1.12213818359375,-0.7559528350830078,-1.7885441780090332,-1.451432704925537
1782776359719117300,1.132117431640625,-1.461153507232666,-1.7816658020019531,-1.4428133964538574
1782776359729127200,1.142127197265625,-2.020102024078369,-1.7095561027526855,-1.1980071067810059
1782776359739136800,1.15213671875,-2.5129857063293457,-1.5767881870269775,-0.801451563835144
1782776359749116200,1.1621162109375,-2.912895679473877,-1.4453721046447754,-0.47483372688293457
1782776359759126000,1.1721259765625,-3.2442054748535156,-1.2365310192108154,-0.23890888690948486
1782776359769135600,1.182135498046875,-3.516294479370117,-0.9704580307006836,0.030746757984161377
1782776359779145500,1.1921455078125,-3.410872459411621,-0.7839701175689697,0.22294765710830688
1782776359789124900,1.202124755859375,-2.951348304748535,-0.6717453002929688,0.37325072288513184
1782776359799134500,1.212134521484375,-2.461085319519043,-0.6911599636077881,0.37178224325180054
1782776359809144300,1.222144287109375,-1.809305191040039,-0.7637732028961182,0.1423187255859375
1782776359819123500,1.23212353515625,-1.1447672843933105,-0.771460771560669,0.005910515785217285
1782776359829133300,1.24213330078125,-0.7164154052734375,-0.8357679843902588,-0.044266462326049805
1782776359839143000,1.252142822265625,-0.3743009567260742,-0.945375919342041,-0.1106385588645935
1782776359849122300,1.262122314453125,-0.23725128173828125,-1.006483554840088,-0.13732784986495972
1782776359859132000,1.2721318359375,-0.29463672637939453,-0.9709048271179199,-0.08632981777191162
1782776359869141800,1.282141845703125,-0.4315185546875,-0.889045238494873,-0.08447754383087158
1782776359879121200,1.29212109375,-0.5381536483764648,-0.8077182769775391,-0.0541071891784668
1782776359889130800,1.302130859375,-0.5695133209228516,-0.7566027641296387,0.03133440017700195
1782776359899140600,1.312140625,-0.5933475494384766,-0.6889607906341553,0.20618724822998047
1782776359909119700,1.32211962890625,-0.5731735229492188,-0.6537272930145264,0.2861793041229248
1782776359919129300,1.33212939453125,-0.47290706634521484,-0.6639750003814697,0.32406651973724365
1782776359929139200,1.34213916015625,-0.40482044219970703,-0.6283161640167236,0.4623446464538574
1782776359939118600,1.35211865234375,-0.17650794982910156,-0.5858309268951416,0.5966752767562866
1782776359949128400,1.36212841796875,0.18839645385742188,-0.5391602516174316,0.7209055423736572
1782776359959138300,1.37213818359375,0.470550537109375,-0.642113208770752,0.7727247476577759
1782776359969117400,1.382117431640625,0.6379795074462891,-0.716975212097168,0.7753814458847046
1782776359979127300,1.392127197265625,0.6625604629516602,-0.8040173053741455,0.6828436851501465
1782776359989137000,1.402136962890625,0.695042610168457,-0.8242757320404053,0.4716914892196655
1782776359999116300,1.4121162109375,0.49321460723876953,-0.7634322643280029,0.05355870723724365
1782776360009126000,1.4221259765625,0.054154396057128906,-0.8514304161071777,-0.06984233856201172
1782776360019135500,1.432135498046875,-0.4875631332397461,-1.0631053447723389,-0.06821238994598389
1782776360029145300,1.442145263671875,-0.9436578750610352,-1.0825209617614746,-0.09265828132629395
1782776360039124700,1.452124755859375,-0.8854074478149414,-0.8112790584564209,0.1899266242980957
1782776360049134300,1.46213427734375,-0.4598827362060547,-0.5151276588439941,0.7979120016098022
1782776360059144200,1.472144287109375,0.46331310272216797,-0.3464040756225586,1.560318946838379
1782776360069123600,1.48212353515625,1.6007490158081055,-0.34334492683410645,2.003593921661377
1782776360079133400,1.492133544921875,2.707339286804199,-0.5337018966674805,1.9690061807632446
1782776360089143000,1.50214306640625,3.4007835388183594,-0.7654757499694824,1.6265114545822144
1782776360099122200,1.5121220703125,3.6826562881469727,-1.008939266204834,0.9734001159667969
1782776360109132000,1.522132080078125,3.552480697631836,-1.1498384475708008,0.35366594791412354
1782776360119142000,1.532141845703125,3.175436019897461,-1.1183562278747559,-0.054457664489746094
1782776360129121000,1.54212109375,2.7527713775634766,-1.0010931491851807,-0.1014242172241211
1782776360139131000,1.552130859375,2.3559770584106445,-0.7491466999053955,0.1580488681793213
1782776360148824800,1.561824951171875,2.009518623352051,-0.503345251083374,0.7217155694961548
1782776360159150300,1.572150390625,1.7612905502319336,-0.3694300651550293,1.3218860626220703
1782776360169129500,1.58212939453125,1.4639205932617188,-0.2570822238922119,1.677013635635376
1782776360179139300,1.592139404296875,0.9616336822509766,-0.1093297004699707,1.787071943283081
1782776360189118700,1.60211865234375,0.28772830963134766,-0.032080888748168945,1.884298324584961
1782776360199128600,1.612128662109375,-0.3437824249267578,-0.09408903121948242,1.9652379751205444
1782776360209138200,1.62213818359375,-0.9004983901977539,-0.22064757347106934,1.8526718616485596
1782776360219117300,1.632117431640625,-1.273087978363037,-0.3249192237854004,1.5539956092834473
1782776360229127200,1.642127197265625,-1.514348030090332,-0.42870402336120605,1.243984580039978
1782776360239136800,1.65213671875,-1.5190949440002441,-0.46891164779663086,0.9884283542633057
1782776360249116200,1.6621162109375,-1.299252986907959,-0.42245030403137207,0.8958636522293091
1782776360259126000,1.6721259765625,-0.9892387390136719,-0.3469367027282715,1.0833885669708252
1782776360269135600,1.682135498046875,-0.6707620620727539,-0.10750222206115723,0.7916529178619385
1782776360279145500,1.6921455078125,-0.3800239562988281,0.025391817092895508,0.674797773361206
1782776360289124900,1.702124755859375,-0.22301006317138672,0.011129140853881836,0.6778004169464111
1782776360299134500,1.712134521484375,-0.10371685028076172,-0.04439902305603027,0.49536991119384766
1782776360309144300,1.722144287109375,-0.045256614685058594,-0.12136411666870117,0.18926548957824707
1782776360319123500,1.73212353515625,-0.11618232727050781,-0.21425604820251465,-0.11669516563415527
1782776360329133300,1.74213330078125,-0.2216329574584961,-0.2843027114868164,-0.5757014751434326
1782776360339143000,1.752142822265625,-0.2764606475830078,-0.34064340591430664,-0.8309601545333862
1782776360349122300,1.762122314453125,-0.3352489471435547,-0.30782175064086914,-0.9629467725753784
1782776360359132200,1.772132080078125,-0.42606353759765625,-0.2684822082519531,-0.989500880241394
1782776360369141800,1.782141845703125,-0.6444997787475586,-0.17734646797180176,-0.8716346025466919
1782776360379121200,1.79212109375,-0.7942714691162109,-0.030050039291381836,-0.8051207065582275
1782776360389131000,1.802131103515625,-0.9040255546569824,0.08833503723144531,-0.6854757070541382
1782776360399140600,1.812140625,-1.0054068565368652,0.18645930290222168,-0.46501851081848145
1782776360409119700,1.82211962890625,-1.1088895797729492,0.272857666015625,-0.25984859466552734
1782776360419129600,1.832129638671875,-1.0980448722839355,0.3536040782928467,-0.10708379745483398
1782776360429139200,1.84213916015625,-1.0882139205932617,0.42153263092041016,-0.010138273239135742
1782776360439118600,1.85211865234375,-1.02496337890625,0.4318809509277344,0.04639601707458496
1782776360449128400,1.86212841796875,-0.9008607864379883,0.34058165550231934,0.08958697319030762
1782776360459138000,1.872137939453125,-0.7597360610961914,0.23098421096801758,-0.0002834796905517578
1782776360469117400,1.882117431640625,-0.5401735305786133,0.1219644546508789,-0.14156270027160645
1782776360479127300,1.892127197265625,-0.32292747497558594,0.038556575775146484,-0.2590761184692383
1782776360489137000,1.902136962890625,-0.3272247314453125,-0.04125642776489258,-0.3627939224243164
1782776360499116000,1.912115966796875,-0.4519538879394531,-0.07223987579345703,-0.4562723636627197
1782776360509126000,1.9221259765625,-0.5004425048828125,-0.046582698822021484,-0.5494076013565063
1782776360519135500,1.932135498046875,-0.5512218475341797,0.03478193283081055,-0.5647222995758057
1782776360529145300,1.942145263671875,-0.7208971977233887,0.07305335998535156,-0.4867379665374756
1782776360539124700,1.952124755859375,-0.9278120994567871,0.12056207656860352,-0.5095047950744629
1782776360549134300,1.96213427734375,-1.032994270324707,0.12730741500854492,-0.6505212783813477
1782776360559144200,1.972144287109375,-1.0606193542480469,0.03755617141723633,-0.9168751239776611
1782776360569123600,1.98212353515625,-0.9416179656982422,-0.04390096664428711,-1.112147331237793
1782776360579133200,1.99213330078125,-0.5662813186645508,-0.08182430267333984,-1.1690007448196411
1782776360589143000,2.00214306640625,-0.18546104431152344,-0.19891023635864258,-0.9790269732475281
1782776360599122200,2.0121220703125,0.06500816345214844,-0.326082706451416,-0.868587076663971
1782776360609132000,2.022132080078125,0.5024309158325195,-0.38039588928222656,-0.9560927748680115
1782776360619142000,2.032141845703125,0.8422183990478516,-0.3361063003540039,-1.107606053352356
1782776360629121000,2.04212109375,1.0247297286987305,-0.3491325378417969,-1.344827651977539
1782776360639130600,2.052130615234375,0.9185304641723633,-0.4400482177734375,-1.6482672691345215
1782776360649140500,2.062140380859375,0.6782159805297852,-0.5817809104919434,-1.6994301080703735
1782776360659119900,2.072119873046875,0.3453226089477539,-0.7040421962738037,-1.7877154350280762
1782776360669129700,2.082129638671875,0.4504117965698242,-0.578704833984375,-1.3804287910461426
1782776360679139300,2.092139404296875,1.2523527145385742,-0.4170360565185547,-0.5455793738365173
1782776360689118700,2.10211865234375,2.39450740814209,-0.336118221282959,0.7400248050689697
1782776360699128600,2.112128662109375,3.632077217102051,-0.0898137092590332,2.1288633346557617
1782776360709138200,2.12213818359375,4.795022010803223,0.015022754669189453,2.8916971683502197
1782776360719117300,2.132117431640625,5.375497817993164,-0.22557353973388672,2.7552013397216797
1782776360729127200,2.142127197265625,5.029691696166992,-0.7089231014251709,1.9295727014541626
1782776360739136800,2.15213671875,3.916314125061035,-1.2651286125183105,0.7119505405426025
1782776360749116200,2.1621162109375,2.341925621032715,-1.7900738716125488,-0.48311376571655273
1782776360759126000,2.1721259765625,0.8732185363769531,-2.0872466564178467,-1.3728845119476318
1782776360769135600,2.182135498046875,-0.23792457580566406,-2.2232666015625,-1.8658980131149292
1782776360779145500,2.1921455078125,-0.958198070526123,-2.3389267921447754,-1.964932918548584
1782776360789124900,2.202124755859375,-1.325324535369873,-2.305372714996338,-1.6845237016677856
1782776360799134500,2.212134521484375,-1.4491562843322754,-2.198824644088745,-1.273923397064209
1782776360809144300,2.222144287109375,-1.5661773681640625,-2.0352561473846436,-0.8338586091995239
1782776360819123500,2.23212353515625,-1.7090387344360352,-1.8057122230529785,-0.47230297327041626
1782776360829133000,2.242133056640625,-1.8242597579956055,-1.6670172214508057,-0.45500117540359497
1782776360839143000,2.252142822265625,-2.005244731903076,-1.6011390686035156,-0.5423569083213806
1782776360849122300,2.262122314453125,-2.289726734161377,-1.5523958206176758,-0.6765515804290771
1782776360859132000,2.2721318359375,-2.571077346801758,-1.523444652557373,-0.7183613777160645
1782776360869141800,2.282141845703125,-2.8644089698791504,-1.4426243305206299,-0.7406801581382751
1782776360879121200,2.29212109375,-3.1542162895202637,-1.3114373683929443,-0.7360100150108337
1782776360889130800,2.302130859375,-3.0538034439086914,-1.088484287261963,-0.40496593713760376
1782776360899140600,2.312140625,-2.3474130630493164,-0.7780146598815918,0.06411898136138916
1782776360909119700,2.32211962890625,-1.1108531951904297,-0.43995189666748047,0.7655354738235474
1782776360919129300,2.33212939453125,0.5341091156005859,-0.15550518035888672,1.6436203718185425
1782776360929139200,2.34213916015625,2.890427589416504,-0.04782390594482422,2.4460015296936035
1782776360939118600,2.35211865234375,4.724493980407715,-0.24385690689086914,2.5166497230529785
1782776360949128400,2.36212841796875,5.768211364746094,-0.5965688228607178,1.990135669708252
1782776360959138000,2.372137939453125,5.786443710327148,-0.9215140342712402,1.0988383293151855
1782776360969117400,2.382117431640625,4.991362571716309,-1.1471989154815674,0.04685819149017334
1782776360979127300,2.392127197265625,3.6752166748046875,-1.3033933639526367,-0.7339051365852356
1782776360989137000,2.402136962890625,2.314671516418457,-1.3121743202209473,-1.1693979501724243
1782776360999116300,2.4121162109375,1.1234283447265625,-1.2707033157348633,-1.384404182434082
1782776361009126000,2.4221259765625,0.052211761474609375,-1.1874356269836426,-1.3148149251937866
1782776361019135500,2.432135498046875,-0.8050575256347656,-1.0922646522521973,-1.1231021881103516
1782776361029145300,2.442145263671875,-1.6378650665283203,-1.031531572341919,-0.8861508369445801
1782776361039124700,2.452124755859375,-2.308800220489502,-0.8854320049285889,-0.6372593641281128
1782776361049134300,2.46213427734375,-2.917860507965088,-0.7710437774658203,-0.4613913297653198
1782776361059144200,2.472144287109375,-3.362128734588623,-0.6242692470550537,-0.3365294933319092
1782776361069123600,2.48212353515625,-3.58412504196167,-0.5171864032745361,-0.21597886085510254
1782776361079133400,2.492133544921875,-3.519465446472168,-0.43977785110473633,-0.11361205577850342
1782776361089143000,2.50214306640625,-3.2080726623535156,-0.39618635177612305,-0.016832590103149414
1782776361099122200,2.5121220703125,-2.588797092437744,-0.37290287017822266,0.07472598552703857
1782776361109132000,2.522132080078125,-1.7813529968261719,-0.4014315605163574,0.07200741767883301
1782776361119142000,2.532141845703125,-0.9594697952270508,-0.48421502113342285,-0.0039708614349365234
1782776361129121000,2.54212109375,-0.29125022888183594,-0.5825631618499756,-0.14345431327819824
1782776361139131000,2.552130859375,0.17522907257080078,-0.6202960014343262,-0.2841412425041199
1782776361149140500,2.562140380859375,0.3460254669189453,-0.6083784103393555,-0.3427467346191406
1782776361159120000,2.572119873046875,0.4261608123779297,-0.5856227874755859,-0.3711857795715332
1782776361169129500,2.58212939453125,0.45206356048583984,-0.5453529357910156,-0.3025304079055786
1782776361179139300,2.592139404296875,0.38100624084472656,-0.47580647468566895,-0.162939190864563
1782776361189118700,2.60211865234375,0.3014354705810547,-0.4005405902862549,0.023255228996276855
1782776361199128600,2.612128662109375,0.15787792205810547,-0.3116753101348877,0.19925379753112793
1782776361209138200,2.62213818359375,-0.04529380798339844,-0.263446569442749,0.3175438642501831
1782776361219117300,2.632117431640625,-0.16330242156982422,-0.2393965721130371,0.3707519769668579
1782776361229127200,2.642127197265625,-0.2119903564453125,-0.3133246898651123,0.35769927501678467
1782776361239136800,2.65213671875,0.1300802230834961,-0.3953392505645752,0.4009232521057129
1782776361249116200,2.6621162109375,0.48258113861083984,-0.3062608242034912,0.4650653600692749
1782776361259126000,2.6721259765625,0.91607666015625,-0.32077670097351074,0.5643517971038818
1782776361269135600,2.682135498046875,1.3139324188232422,-0.35031914710998535,0.6108548641204834
1782776361279085800,2.6920859375,1.605525016784668,-0.4337608814239502,0.5763444900512695
1782776361289216300,2.70221630859375,1.8183164596557617,-0.5660672187805176,0.44767892360687256
1782776361299134500,2.712134521484375,1.9936952590942383,-0.607619047164917,0.15546584129333496
1782776361309144300,2.722144287109375,1.9546232223510742,-0.6140034198760986,-0.13708078861236572
1782776361319123500,2.73212353515625,1.566695213317871,-0.6593339443206787,-0.1891021728515625
1782776361329133000,2.742133056640625,1.187077522277832,-0.6966798305511475,-0.007999777793884277
1782776361339143000,2.752142822265625,1.0798768997192383,-0.6338262557983398,0.39449453353881836
1782776361349122300,2.762122314453125,1.5403594970703125,-0.49642324447631836,1.0855573415756226
1782776361359132000,2.7721318359375,2.345658302307129,-0.44602060317993164,1.7244718074798584
1782776361369141800,2.782141845703125,3.0273303985595703,-0.6087634563446045,2.014561653137207
1782776361379121200,2.79212109375,3.3777332305908203,-0.8268804550170898,1.8986153602600098
1782776361389130800,2.802130859375,3.2427854537963867,-1.0946075916290283,1.3186143636703491
1782776361399140600,2.812140625,2.746664047241211,-1.4215888977050781,0.4599066972732544
1782776361409119700,2.82211962890625,2.053323745727539,-1.645716905593872,-0.2578655481338501
1782776361419129300,2.83212939453125,1.5366668701171875,-1.7457265853881836,-0.6796916723251343
1782776361429139200,2.84213916015625,1.1584854125976562,-1.748342514038086,-0.8098222017288208
1782776361439118600,2.85211865234375,0.9451866149902344,-1.6912574768066406,-0.6692585945129395
1782776361449128400,2.86212841796875,0.7620601654052734,-1.550109624862671,-0.29909634590148926
1782776361458704000,2.871703857421875,0.6052398681640625,-1.4084970951080322,0.20494043827056885
1782776361468683300,2.881683349609375,0.2798147201538086,-1.2134125232696533,0.6897505521774292
1782776361478693000,2.891693115234375,-0.159881591796875,-1.0744283199310303,1.0462462902069092
1782776361488702700,2.90170263671875,-0.6059083938598633,-0.9500842094421387,1.2866023778915405
1782776361498682000,2.91168212890625,-0.9142212867736816,-0.8461356163024902,1.5015870332717896
1782776361508691700,2.921691650390625,-1.035940170288086,-0.8094675540924072,1.6598398685455322
1782776361518701600,2.93170166015625,-1.1569881439208984,-0.8348450660705566,1.7076351642608643
1782776361528711200,2.941711181640625,-1.148155689239502,-0.8547828197479248,1.6104755401611328
1782776361538690600,2.951690673828125,-0.917572021484375,-0.9192020893096924,1.4744184017181396
1782776361548700200,2.9617001953125,-0.5591859817504883,-0.9688980579376221,1.3962743282318115
1782776361558710000,2.9717099609375,-0.17106151580810547,-1.0831809043884277,1.3782734870910645
1782776361568689400,2.981689453125,0.017312049865722656,-1.190509557723999,1.2775883674621582
1782776361578699300,2.99169921875,0.06161975860595703,-1.2939770221710205,1.0898995399475098
1782776361588708900,3.001708984375,-0.051352500915527344,-1.3896427154541016,0.8282485008239746
1782776361598688300,3.011688232421875,-0.26569652557373047,-1.5057945251464844,0.528609037399292
1782776361608697900,3.02169775390625,-0.48238277435302734,-1.595782995223999,0.2257368564605713
1782776361618707700,3.031707763671875,-0.7626075744628906,-1.6453757286071777,-0.08413195610046387
1782776361628686800,3.041686767578125,-1.0239949226379395,-1.6570038795471191,-0.3040724992752075
1782776361638696400,3.051696533203125,-1.2638764381408691,-1.601414680480957,-0.46952152252197266
1782776361648706300,3.061706298828125,-1.4917163848876953,-1.508695125579834,-0.5420352220535278
1782776361658685700,3.071685791015625,-1.6679673194885254,-1.3747522830963135,-0.5342401266098022
1782776361668695300,3.0816953125,-1.7189640998840332,-1.1695551872253418,-0.43926501274108887
1782776361678705200,3.091705078125,-1.7554974555969238,-1.0088646411895752,-0.29821693897247314
1782776361688684500,3.1016845703125,-1.7757902145385742,-0.8537242412567139,-0.12669014930725098
1782776361698694400,3.1116943359375,-1.6943387985229492,-0.6725707054138184,0.03171682357788086
1782776361708704000,3.1217041015625,-1.492314338684082,-0.5151956081390381,0.14859628677368164
1782776361718683100,3.13168310546875,-1.1750335693359375,-0.3664071559906006,0.2962820529937744
1782776361728693000,3.14169287109375,-0.7956314086914062,-0.2881641387939453,0.3372070789337158
1782776361738702600,3.15170263671875,-0.44043445587158203,-0.27385616302490234,0.3065304756164551
1782776361748682000,3.161681884765625,-0.12150192260742188,-0.24312591552734375,0.24966764450073242
1782776361758691800,3.17169189453125,0.16834449768066406,-0.20188426971435547,0.13038849830627441
1782776361768701400,3.181701416015625,0.43274879455566406,-0.16638946533203125,-0.004763364791870117
1782776361778711300,3.191711181640625,0.6638288497924805,-0.13871479034423828,-0.09618020057678223
1782776361788690700,3.201690673828125,0.8883657455444336,-0.12189006805419922,-0.1874237060546875
1782776361798700300,3.2117001953125,1.0545072555541992,-0.1100921630859375,-0.2982769012451172
1782776361808710100,3.221710205078125,1.1603765487670898,-0.09056854248046875,-0.36076343059539795
1782776361818689300,3.231689208984375,1.1829404830932617,-0.03386569023132324,-0.37059032917022705
1782776361828699100,3.24169921875,1.0894660949707031,-0.0014417171478271484,-0.3279463052749634
1782776361838708700,3.251708740234375,0.8928298950195312,0.09405112266540527,-0.21261024475097656
1782776361848688000,3.261688232421875,0.5723590850830078,0.15572357177734375,-0.10982584953308105
1782776361858698000,3.271697998046875,0.28658390045166016,0.2406938076019287,0.04602670669555664
1782776361868707600,3.28170751953125,0.03290843963623047,0.28300046920776367,0.19635725021362305
1782776361878687000,3.29168701171875,-0.24437618255615234,0.22207260131835938,0.3239867687225342
1782776361888696800,3.30169677734375,-0.49599170684814453,0.20761919021606445,0.35895466804504395
1782776361898706400,3.31170654296875,-0.6747827529907227,0.15513896942138672,0.37061285972595215
1782776361908685600,3.321685546875,-0.6330251693725586,0.045165061950683594,0.3770824670791626
1782776361918695400,3.3316953125,-0.48644447326660156,-0.07217073440551758,0.37000489234924316
1782776361928705000,3.341705078125,-0.33077144622802734,-0.1804342269897461,0.32343053817749023
1782776361938684400,3.351684326171875,-0.1492919921875,-0.2538599967956543,0.16924428939819336
1782776361948694300,3.3616943359375,0.016915321350097656,-0.2648606300354004,-0.2470722198486328
1782776361958703900,3.371703857421875,0.1996936798095703,-0.23842287063598633,-0.38426220417022705
1782776361968683300,3.381683349609375,0.2521400451660156,-0.23075342178344727,-0.17483079433441162
1782776361978693000,3.391693115234375,0.1484508514404297,-0.18850088119506836,0.2586970329284668
1782776361988702700,3.40170263671875,0.09678363800048828,0.006449699401855469,0.7718689441680908
1782776361998682000,3.41168212890625,0.3525714874267578,0.24266862869262695,1.2962610721588135
1782776362008691700,3.421691650390625,0.8279037475585938,0.2525496482849121,1.7808377742767334
1782776362018701600,3.43170166015625,1.3561229705810547,0.19119930267333984,2.0967516899108887
1782776362028711200,3.441711181640625,1.9144763946533203,0.15442848205566406,2.1604974269866943
1782776362038690600,3.451690673828125,2.1985435485839844,-0.12896966934204102,1.8186297416687012
1782776362048700200,3.4617001953125,2.099294662475586,-0.6008880138397217,1.0958423614501953
1782776362058710000,3.4717099609375,1.5579185485839844,-1.1391375064849854,0.15083909034729004
1782776362068689400,3.481689453125,0.6778898239135742,-1.6107776165008545,-0.727157711982727
1782776362078699000,3.491698974609375,-0.14205360412597656,-1.900172472000122,-1.389357328414917
1782776362088708900,3.501708984375,-0.6329879760742188,-2.064872980117798,-1.7656619548797607
1782776362098688300,3.511688232421875,-1.0432252883911133,-2.133679151535034,-1.8214695453643799
1782776362108698000,3.521697998046875,-1.1974244117736816,-2.069488763809204,-1.6467970609664917
1782776362118982400,3.531982421875,-1.3984079360961914,-1.9265592098236084,-1.356661081314087
1782776362128686800,3.541686767578125,-1.5453929901123047,-1.8711514472961426,-1.1045362949371338
1782776362138696700,3.55169677734375,-1.5809264183044434,-1.7252802848815918,-0.8028293251991272
1782776362148706300,3.561706298828125,-1.5523762702941895,-1.7230455875396729,-0.6034759283065796
1782776362158685700,3.571685791015625,-1.6225218772888184,-1.7694480419158936,-0.4974532723426819
1782776362168695600,3.581695556640625,-1.6235041618347168,-1.770904779434204,-0.43460869789123535
1782776362178705200,3.591705078125,-1.5169868469238281,-1.7358062267303467,-0.4813309907913208
1782776362188684500,3.6016845703125,-1.2834243774414062,-1.6888339519500732,-0.4930323362350464
1782776362198694400,3.6116943359375,-0.9333906173706055,-1.6446387767791748,-0.49916261434555054
1782776362208704000,3.6217041015625,-0.4834909439086914,-1.6345727443695068,-0.40436434745788574
1782776362218683100,3.63168310546875,0.14877796173095703,-1.6121952533721924,-0.23248958587646484
1782776362228693000,3.64169287109375,0.8546571731567383,-1.5606131553649902,0.03201901912689209
1782776362238702600,3.65170263671875,1.4993820190429688,-1.461606502532959,0.3342851400375366
1782776362248682000,3.661681884765625,2.2062301635742188,-1.2866344451904297,0.6226838827133179
1782776362258691800,3.67169189453125,2.878411293029785,-1.12404465675354,1.0244712829589844
1782776362268701400,3.681701416015625,3.380021095275879,-1.037712812423706,1.3832306861877441
1782776362278711300,3.691711181640625,3.699483871459961,-0.9437747001647949,1.5794585943222046
1782776362288690700,3.701690673828125,3.704695701599121,-0.9128513336181641,1.684418797492981
1782776362298700300,3.7117001953125,3.3496904373168945,-1.0199382305145264,1.6918156147003174
1782776362308710100,3.721710205078125,2.7103281021118164,-1.1521894931793213,1.6324514150619507
1782776362318689300,3.731689208984375,1.8797950744628906,-1.2325401306152344,1.545583963394165
1782776362328699000,3.741698974609375,1.1550960540771484,-1.3029847145080566,1.3564701080322266
1782776362338708700,3.751708740234375,0.5536108016967773,-1.3336753845214844,1.2352142333984375
1782776362348688100,3.761688232421875,0.023306846618652344,-1.4654395580291748,1.1854233741760254
1782776362358698000,3.771697998046875,-0.37600231170654297,-1.6446478366851807,1.1748046875
1782776362368707600,3.78170751953125,-0.8052220344543457,-1.782813549041748,1.1517384052276611
1782776362378687000,3.79168701171875,-1.2044310569763184,-1.8852496147155762,1.0613065958023071
1782776362388696800,3.80169677734375,-1.4177227020263672,-1.9557573795318604,0.920958936214447
1782776362398706400,3.81170654296875,-1.546675682067871,-2.0676448345184326,0.7841287851333618
1782776362408685600,3.821685546875,-1.5279035568237305,-2.239800453186035,0.6962080001831055
1782776362418695200,3.831695068359375,-1.1619057655334473,-2.3133010864257812,0.6506903767585754
1782776362428705000,3.841705078125,-0.8877849578857422,-2.4345855712890625,0.38998377323150635
1782776362438684400,3.851684326171875,-0.597987174987793,-2.574202537536621,0.14282268285751343
1782776362448694300,3.8616943359375,-0.3806772232055664,-2.6682424545288086,-0.020521968603134155
1782776362458704000,3.871703857421875,-0.12676239013671875,-2.6592817306518555,-0.06146895885467529
1782776362468683300,3.881683349609375,0.26264381408691406,-2.574777126312256,0.015481740236282349
1782776362478693000,3.891693115234375,0.6086063385009766,-2.499638080596924,0.22078867256641388
1782776362488702700,3.90170263671875,0.9121246337890625,-2.376415252685547,0.5523064136505127
1782776362498682000,3.91168212890625,1.308248519897461,-2.2243523597717285,0.831629753112793
1782776362508691700,3.921691650390625,1.7635765075683594,-1.9577674865722656,1.2151827812194824
1782776362518701600,3.93170166015625,2.0040225982666016,-1.671424150466919,1.6705372333526611
1782776362528711200,3.941711181640625,2.2170486450195312,-1.382422924041748,2.1852807998657227
1782776362538690600,3.951690673828125,2.191939353942871,-1.179413080215454,2.642651319503784
1782776362548700200,3.9617001953125,2.143705368041992,-1.0683238506317139,2.9855458736419678
1782776362558710000,3.9717099609375,1.995945930480957,-1.0054943561553955,3.330439329147339
1782776362568689400,3.981689453125,1.6756572723388672,-1.0048956871032715,3.5932693481445312
1782776362578699300,3.99169921875,1.2461624145507812,-0.9365947246551514,3.870192289352417
1782776362588708900,4.001708984375,0.8644599914550781,-0.934741735458374,4.0545806884765625
1782776362598688300,4.011688232421875,0.4163703918457031,-1.151378870010376,3.9096271991729736
1782776362608697900,4.02169775390625,0.011513710021972656,-1.4728412628173828,3.6471753120422363
1782776362618768600,4.0317685546875,-0.1874713897705078,-1.8385992050170898,3.296752452850342
1782776362628686800,4.041686767578125,-0.30493736267089844,-2.207960367202759,2.8593387603759766
1782776362638696400,4.051696533203125,-0.3994770050048828,-2.487539768218994,2.3096745014190674
1782776362648706300,4.061706298828125,-0.3845357894897461,-2.613330364227295,1.779843807220459
1782776362658685700,4.071685791015625,-0.17693710327148438,-2.6752147674560547,1.3693832159042358
1782776362668695300,4.0816953125,0.13794612884521484,-2.7490596771240234,0.9984017014503479
1782776362678705200,4.091705078125,0.4567604064941406,-2.8764584064483643,0.6693817973136902
1782776362688684500,4.1016845703125,0.7497568130493164,-2.9703116416931152,0.6267932057380676
1782776362698694400,4.1116943359375,0.8624353408813477,-3.1308608055114746,0.6593638062477112
1782776362708704000,4.1217041015625,0.7719945907592773,-3.326812982559204,0.5673837065696716
1782776362718683100,4.13168310546875,0.5427370071411133,-3.4599175453186035,0.4227275848388672
1782776362728693000,4.14169287109375,0.27468204498291016,-3.6109671592712402,0.36435091495513916
1782776362738702600,4.15170263671875,-0.07161712646484375,-3.9981637001037598,0.8282592296600342
1782776362748682000,4.161681884765625,0.179779052734375,-3.8605496883392334,-0.2591806650161743
1782776362758691800,4.17169189453125,0.46444129943847656,-3.568298816680908,-0.7884683012962341
1782776362768701400,4.181701416015625,0.7174673080444336,-3.677013397216797,-0.7708800435066223
1782776362778711300,4.191711181640625,1.0186223983764648,-3.891233205795288,-0.7069656252861023
1782776362788690700,4.201690673828125,1.4134788513183594,-4.012942790985107,-0.9142348766326904
1782776362798700300,4.2117001953125,1.6523847579956055,-4.067500591278076,-1.2375925779342651
1782776362808710100,4.221710205078125,1.8782758712768555,-3.9317665100097656,-1.6663155555725098
1782776362818689300,4.231689208984375,2.115009307861328,-3.658189058303833,-2.2224061489105225
1782776362828699100,4.24169921875,2.378411293029785,-3.342057228088379,-2.547248363494873
1782776362838708700,4.251708740234375,2.650397300720215,-3.057776689529419,-2.5330185890197754
1782776362848688000,4.261688232421875,2.89377498626709,-2.7383522987365723,-2.2228198051452637
1782776362858698000,4.271697998046875,3.2022809982299805,-2.3318305015563965,-1.5446223020553589
1782776362868707600,4.28170751953125,3.5649633407592773,-1.8869163990020752,-0.7413287162780762
1782776362878687000,4.29168701171875,4.133406639099121,-1.3683669567108154,0.16313791275024414
1782776362888696800,4.30169677734375,4.721532821655273,-0.8892495632171631,1.063831090927124
1782776362898706400,4.31170654296875,5.10737419128418,-0.5357146263122559,1.7988905906677246
1782776362908685600,4.321685546875,5.136578559875488,-0.3273632526397705,2.3080878257751465
1782776362918695400,4.3316953125,4.829937934875488,-0.18852972984313965,2.5744855403900146
1782776362928705000,4.341705078125,4.1119384765625,-0.2185070514678955,2.5319390296936035
1782776362938684400,4.351684326171875,3.2396240234375,-0.2810208797454834,2.1630020141601562
1782776362948694300,4.3616943359375,2.089106559753418,-0.40925168991088867,1.5753076076507568
1782776362958703900,4.371703857421875,0.8806838989257812,-0.5717053413391113,0.7599902153015137
1782776362968683300,4.381683349609375,-0.3225374221801758,-0.6899476051330566,-0.11044621467590332
1782776362978693000,4.391693115234375,-1.324242115020752,-0.673396110534668,-0.7632222175598145
1782776362988702700,4.40170263671875,-2.207580089569092,-0.6374578475952148,-1.267179250717163
1782776362998682000,4.41168212890625,-2.880608081817627,-0.6127300262451172,-1.5526844263076782
1782776363008691700,4.421691650390625,-3.3313703536987305,-0.526566743850708,-1.6720731258392334
1782776363018701600,4.43170166015625,-3.5940961837768555,-0.4149625301361084,-1.6580239534378052
1782776363028711200,4.441711181640625,-3.707146644592285,-0.31778621673583984,-1.555072546005249
1782776363038690600,4.451690673828125,-3.5883584022521973,-0.22673320770263672,-1.4515256881713867
1782776363048700200,4.4617001953125,-3.1951699256896973,-0.08958292007446289,-1.3837065696716309
1782776363058710000,4.4717099609375,-2.6943106651306152,0.018260478973388672,-1.3765807151794434
1782776363068689400,4.481689453125,-2.0376973152160645,0.08766794204711914,-1.3152105808258057
1782776363078699000,4.491698974609375,-1.5051488876342773,0.16379117965698242,-1.1649199724197388
1782776363088708900,4.501708984375,-1.0010700225830078,0.22249364852905273,-1.0547025203704834
1782776363098688300,4.511688232421875,-0.6008725166320801,0.27234411239624023,-0.9922103881835938
1782776363108698000,4.521697998046875,-0.40676307678222656,0.35891151428222656,-0.9110434055328369
1782776363118647800,4.531647705078125,-0.2861166000366211,0.46401071548461914,-0.9360955953598022
1782776363128778500,4.541778564453125,-0.2763080596923828,0.4799790382385254,-0.9818325042724609
1782776363138696700,4.55169677734375,-0.27400684356689453,0.48549890518188477,-1.0271590948104858
1782776363148706300,4.561706298828125,-0.22642898559570312,0.49399852752685547,-1.0533554553985596
1782776363158685700,4.571685791015625,-0.06479263305664062,0.4664316177368164,-1.079887866973877
1782776363168695600,4.581695556640625,0.2034463882446289,0.46157121658325195,-1.1080641746520996
1782776363178705200,4.591705078125,0.5396747589111328,0.5043530464172363,-1.1098542213439941
1782776363188624600,4.601624755859375,0.9006376266479492,0.5014081001281738,-1.0150460004806519
1782776363198755300,4.61175537109375,1.118875503540039,0.5341696739196777,-0.7357373833656311
1782776363208704000,4.6217041015625,1.1728601455688477,0.4446573257446289,-0.3193356990814209
1782776363218683100,4.63168310546875,1.0855979919433594,0.48501062393188477,-0.05649161338806152
1782776363228693000,4.64169287109375,1.092763900756836,0.6080074310302734,0.12713921070098877
1782776363238702600,4.65170263671875,0.9151401519775391,0.5923871994018555,0.31334376335144043
1782776363248682000,4.661681884765625,0.7682332992553711,0.508155345916748,0.5383958220481873
1782776363258691800,4.67169189453125,0.7262821197509766,0.41600608825683594,0.6422605514526367
1782776363268701400,4.681701416015625,0.8057928085327148,0.3234386444091797,0.7777652740478516
1782776363278711300,4.691711181640625,0.9615926742553711,0.2133631706237793,0.9503801465034485
1782776363288630800,4.701630859375,1.0577802658081055,0.08845043182373047,1.2098298072814941
1782776363298701600,4.71170166015625,1.0969276428222656,0.013616561889648438,1.496414303779602
1782776363309631000,4.722630859375,1.1732492446899414,0.11071634292602539,2.032607316970825
1782776363328699000,4.741698974609375,0.9220161437988281,0.34302568435668945,3.3806474208831787
1782776363338708700,4.751708740234375,0.48645782470703125,0.5075178146362305,4.350767135620117
1782776363348688100,4.761688232421875,-0.17512130737304688,0.7383127212524414,5.4177937507629395
1782776363358697700,4.77169775390625,-0.6600055694580078,0.9434323310852051,6.021829605102539
1782776363368707600,4.78170751953125,-0.8770837783813477,1.0218734741210938,6.124363899230957
1782776363378657800,4.79165771484375,-0.5685491561889648,0.802154541015625,5.327529430389404
1782776363389535700,4.80253564453125,0.11998462677001953,0.06258583068847656,3.6762828826904297
1782776363408685600,4.821685546875,0.8260660171508789,-1.4848856925964355,0.9469746351242065
1782776363418695400,4.8316953125,0.7463359832763672,-2.102017879486084,-0.02505260705947876
1782776363428705000,4.841705078125,0.2069101333618164,-2.298151731491089,-0.6789568662643433
1782776363438684400,4.851684326171875,-0.6215362548828125,-2.063168525695801,-1.0870789289474487
1782776363448694300,4.8616943359375,-1.7902202606201172,-1.6064536571502686,-1.285212755203247
1782776363458644200,4.871644287109375,-2.8208136558532715,-1.2332267761230469,-1.439941644668579
1782776363468715000,4.881715087890625,-3.697493076324463,-0.997431755065918,-1.4822518825531006
1782776363478754000,4.891754150390625,-4.257009029388428,-0.8156876564025879,-1.5565690994262695
1782776363488702700,4.90170263671875,-4.562813758850098,-0.6178641319274902,-1.7111939191818237
1782776363498622200,4.911622314453125,-4.5213775634765625,-0.39818906784057617,-1.89426589012146
1782776363511011300,4.92401123046875,-4.011721611022949,-0.3535017967224121,-2.145763635635376
1782776363528711200,4.941711181640625,-2.61617374420166,-0.7265753746032715,-2.5563535690307617
1782776363538690600,4.951690673828125,-1.6038613319396973,-1.1308836936950684,-2.8895437717437744
1782776363548700200,4.9617001953125,-0.5402312278747559,-1.5055594444274902,-3.268831729888916
1782776363558710000,4.9717099609375,0.7323284149169922,-1.6700894832611084,-3.5145487785339355
1782776363568689400,4.981689453125,1.9436635971069336,-1.6141023635864258,-3.4752564430236816
1782776363578639400,4.991639404296875,3.148183822631836,-1.4664716720581055,-3.0651373863220215
1782776363589516000,5.00251611328125,4.125995635986328,-1.167374849319458,-2.393880605697632
1782776363608758800,5.0217587890625,4.314885139465332,-0.6687984466552734,-1.2840421199798584
1782776363618647800,5.031647705078125,3.419675827026367,-0.3737485408782959,-0.742692232131958
1782776363630818300,5.043818359375,1.9774503707885742,-0.14828085899353027,-0.6648697257041931
1782776363648706300,5.061706298828125,0.3595008850097656,-0.16429901123046875,-0.7642593383789062
1782776363658685700,5.071685791015625,0.3352794647216797,-0.3089413642883301,-1.0855543613433838
1782776363668695600,5.081695556640625,1.0614347457885742,-0.6453454494476318,-1.6043916940689087
1782776363678705200,5.091705078125,1.4401788711547852,-1.082017183303833,-1.8740160465240479
1782776363688684500,5.1016845703125,1.5176801681518555,-1.3057146072387695,-2.0085320472717285
1782776363698694400,5.1116943359375,1.1940927505493164,-1.2624783515930176,-2.121196746826172
1782776363708704000,5.1217041015625,0.545283317565918,-1.1415517330169678,-2.11488938331604
1782776363718683100,5.13168310546875,-0.21929073333740234,-1.0402216911315918,-2.0397346019744873
1782776363728693000,5.14169287109375,-0.9416704177856445,-1.0287370681762695,-1.8994449377059937
1782776363738702600,5.15170263671875,-1.5800275802612305,-1.030106544494629,-1.6868691444396973
1782776363748682000,5.161681884765625,-1.9920411109924316,-0.9837572574615479,-1.4886881113052368
1782776363758691800,5.17169189453125,-2.219841480255127,-0.9411797523498535,-1.4699598550796509
1782776363768701400,5.181701416015625,-2.2386298179626465,-0.8614799976348877,-1.5193959474563599
1782776363778711300,5.191711181640625,-2.132631778717041,-0.7854416370391846,-1.5487867593765259
1782776363788690700,5.201690673828125,-2.0101161003112793,-0.6685595512390137,-1.4849576950073242
1782776363798700300,5.2117001953125,-1.9427108764648438,-0.5545661449432373,-1.3976844549179077
1782776363808710100,5.221710205078125,-1.8226532936096191,-0.4074685573577881,-1.4117431640625
1782776363818689300,5.231689208984375,-1.530381679534912,-0.24826478958129883,-1.353708267211914
1782776363828699100,5.24169921875,-1.3081979751586914,-0.08267426490783691,-1.1260663270950317
1782776363838708700,5.251708740234375,-1.0649833679199219,0.06262731552124023,-0.8573893308639526
1782776363848688000,5.261688232421875,-0.6088542938232422,0.28240418434143066,-0.5492250919342041
1782776363858698000,5.271697998046875,-0.10454082489013672,0.5125589370727539,-0.03769543766975403
1782776363868707600,5.28170751953125,0.4196910858154297,0.7458014488220215,0.5452931523323059
1782776363878687000,5.29168701171875,0.8546361923217773,1.0511939525604248,1.1851491928100586
1782776363888696800,5.30169677734375,1.3029718399047852,1.2447445392608643,1.5587453842163086
1782776363898706400,5.31170654296875,1.644515037536621,1.3027920722961426,1.7827677726745605
1782776363908685600,5.321685546875,1.9849815368652344,1.2422256469726562,1.8340342044830322
1782776363918695400,5.3316953125,2.1650753021240234,1.1358561515808105,1.7116948366165161
1782776363928705000,5.341705078125,2.194660186767578,0.9394655227661133,1.4393044710159302
1782776363938684400,5.351684326171875,2.0019102096557617,0.7795324325561523,1.0686657428741455
1782776363948694300,5.3616943359375,1.5438041687011719,0.5832374095916748,0.6804777383804321
1782776363958703900,5.371703857421875,0.9018545150756836,0.4908602237701416,0.27390995621681213
1782776363968683300,5.381683349609375,0.21714305877685547,0.5171394348144531,-0.0215468667447567
1782776363978693000,5.391693115234375,-0.39320850372314453,0.5837280750274658,-0.3483644723892212
1782776363988702700,5.40170263671875,-0.6659555435180664,0.6718184947967529,-0.5833190083503723
1782776363998682000,5.41168212890625,-0.8131313323974609,0.7176742553710938,-0.6169816255569458
1782776364008691700,5.421691650390625,-0.7813959121704102,0.8218245506286621,-0.5520212650299072
1782776364018701600,5.43170166015625,-0.7372493743896484,1.0213871002197266,-0.1763940304517746
1782776364028711400,5.44171142578125,-0.7465972900390625,1.2225983142852783,0.3759358525276184
1782776364038690600,5.451690673828125,-0.8013172149658203,1.385826587677002,0.9626868367195129
1782776364048700200,5.4617001953125,-0.9130039215087891,1.421712875366211,1.2674036026000977
1782776364058710000,5.4717099609375,-1.1796998977661133,1.421745777130127,1.3640369176864624
1782776364068689400,5.481689453125,-1.5524578094482422,1.3711040019989014,1.1712543964385986
1782776364078699300,5.49169921875,-1.7921466827392578,1.1558220386505127,0.8626185655593872
1782776364088708900,5.501708984375,-1.7721223831176758,0.8479454517364502,0.3631433844566345
1782776364098688300,5.511688232421875,-1.349398136138916,0.6460163593292236,-0.06650632619857788
1782776364108698000,5.521697998046875,-0.6980695724487305,0.5771405696868896,-0.6621471643447876
1782776364118707700,5.531707763671875,-0.08926582336425781,0.583643913269043,-1.112946629524231
1782776364128686800,5.541686767578125,0.37723255157470703,0.6261420249938965,-1.2848902940750122
1782776364138696700,5.55169677734375,0.9217643737792969,0.6745362281799316,-1.012585163116455
1782776364148706300,5.561706298828125,1.5055055618286133,0.8303632736206055,-0.5344200134277344
1782776364158685700,5.571685791015625,2.2791566848754883,0.9118778705596924,-0.11298918724060059
1782776364168695600,5.581695556640625,3.202577590942383,0.8100473880767822,0.4119051694869995
1782776364178705200,5.591705078125,3.9974727630615234,0.5042819976806641,0.583739161491394
1782776364188684500,5.6016845703125,4.753814697265625,0.15183067321777344,0.448486328125
1782776364198694400,5.6116943359375,5.2888641357421875,-0.21043133735656738,-0.030432701110839844
1782776364208704000,5.6217041015625,5.595241546630859,-0.5117740631103516,-0.7902146577835083
1782776364218683100,5.63168310546875,5.348196983337402,-0.7155234813690186,-1.5494693517684937
1782776364228693000,5.64169287109375,4.538958549499512,-0.8175311088562012,-2.201707363128662
1782776364238702600,5.65170263671875,3.5112991333007812,-0.9419666528701782,-2.642533779144287
1782776364248682000,5.661681884765625,2.389535903930664,-1.1036430597305298,-2.766403913497925
1782776364258691800,5.67169189453125,1.4401073455810547,-1.1780805587768555,-2.635378360748291
1782776364268641800,5.681641845703125,0.8015155792236328,-1.092084527015686,-2.3063926696777344
1782776364278772200,5.691772216796875,0.4549560546875,-0.9187941551208496,-1.810925006866455
1782776364288631000,5.701631103515625,0.4986858367919922,-0.8690280914306641,-1.292382836341858
1782776364298701600,5.71170166015625,0.5117521286010742,-0.9852421283721924,-1.2650071382522583
1782776364309881600,5.722881591796875,0.3793973922729492,-1.1221152544021606,-1.3955632448196411
1782776364328699100,5.74169921875,-0.44560813903808594,-1.2670488357543945,-1.0313880443572998
1782776364338708700,5.751708740234375,-0.6630287170410156,-0.928573489189148,-0.9885440468788147
1782776364348688100,5.761688232421875,-0.9839677810668945,-0.6133944988250732,-1.006593942642212
1782776364358698000,5.771697998046875,-1.4336223602294922,-0.42667675018310547,-0.5911366939544678
1782776364368707600,5.78170751953125,-1.795518398284912,-0.21660804748535156,-0.12761998176574707
1782776364378687000,5.79168701171875,-1.95330810546875,-0.16666746139526367,0.08289837837219238
1782776364388696600,5.801696533203125,-1.978652000427246,-0.18806958198547363,0.1131737232208252
1782776364398706400,5.81170654296875,-1.8724408149719238,-0.34688568115234375,0.050229668617248535
1782776364408685600,5.821685546875,-1.6505117416381836,-0.4332704544067383,0.09844362735748291
1782776364418695400,5.8316953125,-1.3228931427001953,-0.47028589248657227,0.17749810218811035
1782776364428705000,5.841705078125,-0.9160966873168945,-0.5532217025756836,0.11527550220489502
1782776364438684400,5.851684326171875,-0.6097431182861328,-0.694701075553894,0.01847994327545166
1782776364448694300,5.8616943359375,-0.32720947265625,-0.783787727355957,-0.12232983112335205
1782776364458704000,5.871703857421875,-0.08714580535888672,-0.7388935089111328,-0.2584754228591919
1782776364468683300,5.881683349609375,-0.03490638732910156,-0.6728830337524414,-0.35587620735168457
1782776364478693000,5.891693115234375,-0.06156158447265625,-0.6011794805526733,-0.40865886211395264
1782776364488702700,5.90170263671875,-0.2473602294921875,-0.5295780897140503,-0.3415100574493408
1782776364498682000,5.91168212890625,-0.7297487258911133,-0.3539400100708008,-0.06623673439025879
1782776364508691700,5.921691650390625,-1.3765811920166016,-0.09695267677307129,0.08599996566772461
1782776364518701600,5.93170166015625,-1.9704394340515137,0.08106207847595215,0.21259427070617676
1782776364528711400,5.94171142578125,-2.4589638710021973,0.13544964790344238,0.28637373447418213
1782776364538690600,5.951690673828125,-2.7688755989074707,0.16664505004882812,0.2190154790878296
1782776364548700200,5.9617001953125,-2.9492359161376953,0.2117595672607422,0.2055739164352417
1782776364558710000,5.9717099609375,-2.905294895172119,0.19931960105895996,0.07515060901641846
1782776364568689400,5.981689453125,-2.805251121520996,0.17411231994628906,-0.12864995002746582
1782776364578699300,5.99169921875,-2.5890679359436035,0.17883634567260742,-0.26808738708496094
1782776364588708900,6.001708984375,-2.275362968444824,0.1568467617034912,-0.2822081446647644
1782776364598688300,6.011688232421875,-1.968874454498291,0.18074798583984375,-0.13684028387069702
1782776364608698000,6.021697998046875,-1.9494891166687012,0.30420732498168945,0.022954583168029785
1782776364618707700,6.031707763671875,-1.9374561309814453,0.32328176498413086,-0.12426513433456421
1782776364630337000,6.0433369140625,-1.9578914642333984,0.2257237434387207,-0.26685166358947754
1782776364648706300,6.061706298828125,-1.935840129852295,0.18580389022827148,-0.3360840082168579
1782776364658685700,6.071685791015625,-1.7510013580322266,0.15305805206298828,-0.44432827830314636
1782776364668695600,6.081695556640625,-1.4430017471313477,0.10309123992919922,-0.5566859245300293
1782776364678705200,6.091705078125,-1.1093664169311523,0.05140852928161621,-0.6038616895675659
1782776364688684500,6.1016845703125,-0.7996282577514648,0.1016845703125,-0.5074877738952637
1782776364698694400,6.1116943359375,-0.32895946502685547,0.16639399528503418,-0.44398945569992065
1782776364708704000,6.1217041015625,0.25662803649902344,0.18224859237670898,-0.4574325382709503
1782776364718683100,6.13168310546875,0.7798910140991211,0.08591341972351074,-0.5605601072311401
1782776364728693000,6.14169287109375,1.1439847946166992,0.03255963325500488,-0.8182809352874756
1782776364738702600,6.15170263671875,1.4623785018920898,0.0503237247467041,-0.9876031279563904
1782776364748682000,6.161681884765625,1.7399473190307617,0.28046345710754395,-1.6710060834884644
1782776364758691800,6.17169189453125,1.997328758239746,0.5452218055725098,-2.2325358390808105
1782776364768701400,6.181701416015625,1.7476272583007812,0.6957919597625732,-1.935312032699585
1782776364778711300,6.191711181640625,1.2318363189697266,0.6772210597991943,-0.6249960064888
1782776364788690700,6.201690673828125,0.7846450805664062,0.6467382907867432,1.3365161418914795
1782776364798700300,6.2117001953125,0.6256704330444336,0.5020861625671387,2.9956188201904297
1782776364808710100,6.221710205078125,1.1599016189575195,0.1838696002960205,3.518982410430908
1782776364818689300,6.231689208984375,2.481321334838867,-0.43742847442626953,3.1746938228607178
1782776364828699000,6.241698974609375,3.7129125595092773,-1.0239368677139282,2.2062816619873047
1782776364838708700,6.251708740234375,4.462492942810059,-1.6256494522094727,1.1570179462432861
1782776364848688000,6.261688232421875,4.75813102722168,-1.995370626449585,-0.08720803260803223
1782776364858638300,6.271638427734375,4.663936614990234,-2.0331015586853027,-0.9861767888069153
1782776364868709000,6.281709228515625,4.259181022644043,-1.8164784908294678,-1.0979989767074585
1782776364878718700,6.29171875,3.518888473510742,-1.4985746145248413,-0.25600993633270264
1782776364888757800,6.3017578125,2.4653491973876953,-1.1101078987121582,0.6881826519966125
1782776364898706400,6.31170654296875,1.2538347244262695,-0.7139203548431396,1.1786601543426514
1782776364908685600,6.321685546875,-0.0786733627319336,-0.5731314420700073,1.2350503206253052
1782776364918695400,6.3316953125,-1.5095610618591309,-0.5436127185821533,1.0701167583465576
1782776364928705000,6.341705078125,-2.9419755935668945,-0.7429476976394653,0.5613436698913574
1782776364938684400,6.351684326171875,-3.8345274925231934,-1.0267785787582397,-0.14496111869812012
1782776364948694300,6.3616943359375,-4.373770236968994,-1.3122478723526,-0.9304102063179016
1782776364958703900,6.371703857421875,-4.556877136230469,-1.5119690895080566,-1.7062263488769531
1782776364968683300,6.381683349609375,-4.406982421875,-1.6813796758651733,-2.201138973236084
1782776364978693000,6.391693115234375,-3.889561176300049,-1.8741514682769775,-2.248488664627075
1782776364988702700,6.40170263671875,-3.1389212608337402,-2.0742504596710205,-1.8757555484771729
1782776364998682000,6.41168212890625,-2.3529725074768066,-2.125918388366699,-1.3890109062194824
1782776365008691700,6.421691650390625,-1.7719531059265137,-2.142472743988037,-0.7746148109436035
1782776365018701600,6.43170166015625,-1.207718849182129,-2.1576473712921143,-0.03151136636734009
1782776365028711400,6.44171142578125,-0.5285749435424805,-2.1111159324645996,0.6244141459465027
1782776365038690600,6.451690673828125,0.3275022506713867,-2.013094902038574,1.050385594367981
1782776365048700200,6.4617001953125,1.178767204284668,-1.924976110458374,1.2044672966003418
1782776365058710000,6.4717099609375,2.0168275833129883,-1.8779914379119873,1.1037070751190186
1782776365068689400,6.481689453125,2.567898750305176,-1.9289822578430176,0.7296265363693237
1782776365078699300,6.49169921875,2.752448081970215,-2.012422800064087,0.15355099737644196
1782776365088708900,6.501708984375,2.523883819580078,-2.0388200283050537,-0.45763635635375977
1782776365098688300,6.511688232421875,1.901031494140625,-1.9108668565750122,-0.7592949867248535
1782776365108698000,6.521697998046875,0.8784732818603516,-1.6562045812606812,-0.6505589485168457
1782776365118707700,6.531707763671875,-0.2124652862548828,-1.3293092250823975,-0.3767697811126709
1782776365128686800,6.541686767578125,-1.0486297607421875,-1.0050013065338135,-0.16900521516799927
1782776365138696700,6.55169677734375,-1.7418270111083984,-0.7564314603805542,0.08580832183361053
1782776365148706300,6.561706298828125,-2.2289066314697266,-0.5571730136871338,0.22079378366470337
1782776365158685700,6.571685791015625,-2.542572498321533,-0.4490971565246582,0.3157447874546051
1782776365168695300,6.5816953125,-2.6695175170898438,-0.36616945266723633,0.31216779351234436
1782776365178705200,6.591705078125,-2.507659435272217,-0.3867452144622803,0.20392653346061707
1782776365188684500,6.6016845703125,-2.119598865509033,-0.4784700870513916,-0.01608225703239441
1782776365198694400,6.6116943359375,-1.5527453422546387,-0.626101016998291,-0.26623326539993286
1782776365208704000,6.6217041015625,-0.9713840484619141,-0.7487493753433228,-0.5499786734580994
1782776365218683100,6.63168310546875,-0.4533662796020508,-0.8454668521881104,-0.7081050276756287
1782776365228693000,6.64169287109375,-0.04794883728027344,-0.8647878170013428,-0.701893150806427
1782776365238702600,6.65170263671875,0.2862882614135742,-0.7758727073669434,-0.5555936098098755
1782776365248682000,6.661681884765625,0.45883750915527344,-0.6524208784103394,-0.2986348867416382
1782776365258691800,6.67169189453125,0.5874881744384766,-0.48436903953552246,-0.10347338020801544
1782776365268701400,6.681701416015625,0.5666933059692383,-0.20057034492492676,0.13976137340068817
1782776365278711300,6.691711181640625,0.502598762512207,-0.11137962341308594,0.22570297122001648
1782776365288690700,6.701690673828125,0.4041604995727539,-0.028413057327270508,0.23900355398654938
1782776365298700300,6.7117001953125,0.3981037139892578,0.022701740264892578,0.2385672926902771
1782776365308710100,6.721710205078125,0.41466617584228516,0.09608936309814453,0.298506498336792
1782776365318689300,6.731689208984375,0.5971012115478516,0.13381075859069824,0.3775985836982727
1782776365328699000,6.741698974609375,0.9113149642944336,0.11942410469055176,0.5019524097442627
1782776365338708700,6.751708740234375,1.3045501708984375,0.14688634872436523,0.7279815673828125
1782776365348688100,6.761688232421875,1.7319574356079102,0.20567965507507324,0.9365235567092896
1782776365358698000,6.771697998046875,2.008953094482422,0.23890066146850586,1.0684438943862915
1782776365368707600,6.78170751953125,2.2056808471679688,0.28554701805114746,1.0667626857757568
1782776365378627300,6.79162744140625,2.3703317642211914,0.32973217964172363,0.8859665393829346
1782776365388698000,6.801697998046875,2.321547508239746,0.5985851287841797,0.36502742767333984
1782776365398767600,6.811767578125,1.5908336639404297,0.861140251159668,0.08633029460906982
1782776365408685600,6.821685546875,0.6381626129150391,0.8596277236938477,0.03473314642906189
1782776365418695400,6.8316953125,0.24025535583496094,0.8190608024597168,0.2857500910758972
1782776365428705000,6.841705078125,0.03029632568359375,0.82928466796875,1.163449764251709
1782776365438684400,6.851684326171875,0.13679027557373047,0.7802374362945557,2.24296236038208
1782776365448694300,6.8616943359375,0.5274562835693359,0.5419735908508301,3.108374834060669
1782776365458704000,6.871703857421875,1.0522327423095703,0.13004565238952637,3.4457168579101562
1782776365468623600,6.88162353515625,1.8512697219848633,-0.3135030269622803,2.939871072769165
1782776365478754000,6.891754150390625,2.416656494140625,-0.5911297798156738,2.1968390941619873
1782776365488702700,6.90170263671875,2.450693130493164,-0.8058924674987793,1.6504626274108887
1782776365498682000,6.91168212890625,1.9306879043579102,-1.0242221355438232,1.3637561798095703
1782776365508691700,6.921691650390625,1.2626419067382812,-1.2225165367126465,1.0070668458938599
1782776365518701600,6.93170166015625,0.6914997100830078,-1.4108330011367798,0.5524617433547974
1782776365528711400,6.94171142578125,0.1006765365600586,-1.601057529449463,0.03639352321624756
1782776365538690600,6.951690673828125,-0.3944435119628906,-1.687658429145813,-0.4469098448753357
1782776365548700200,6.9617001953125,-0.7936573028564453,-1.700792670249939,-0.8339201807975769
1782776365558710000,6.9717099609375,-1.1432828903198242,-1.6282150745391846,-1.0141451358795166
1782776365568689400,6.981689453125,-1.4637279510498047,-1.488990068435669,-0.7934409379959106
1782776365578699000,6.991698974609375,-1.6805410385131836,-1.2678864002227783,-0.48056262731552124
1782776365589928400,7.002928466796875,-1.8758182525634766,-1.0035765171051025,-0.09888434410095215
1782776365608638200,7.02163818359375,-1.9171042442321777,-0.671201229095459,0.45455092191696167
1782776365618768600,7.0317685546875,-1.7860898971557617,-0.556391716003418,0.7824632525444031
1782776365628686800,7.041686767578125,-1.484853744506836,-0.4931306838989258,1.0641406774520874
1782776365638696700,7.05169677734375,-1.0074577331542969,-0.49053072929382324,1.1221058368682861
1782776365648706300,7.061706298828125,-0.4315166473388672,-0.5419809818267822,1.1105464696884155
1782776365658685700,7.071685791015625,0.1536426544189453,-0.598499059677124,1.0761969089508057
1782776365668695600,7.081695556640625,0.8272924423217773,-0.598120927810669,1.071227788925171
1782776365678705200,7.091705078125,1.4344062805175781,-0.6167311668395996,1.0295958518981934
1782776365688684500,7.1016845703125,1.8733043670654297,-0.6681721210479736,0.8609826564788818
1782776365698694400,7.1116943359375,1.9827499389648438,-0.7317118644714355,0.44965624809265137
1782776365708644400,7.121644287109375,1.6299095153808594,-0.7960240840911865,-0.019408106803894043
1782776365718715000,7.13171484375,0.9897871017456055,-0.8289082050323486,-0.4356423318386078
1782776365728754200,7.141754150390625,0.15463542938232422,-0.8040564060211182,-0.6732786893844604
1782776365738702600,7.15170263671875,-0.6701755523681641,-0.6994173526763916,-0.7750793099403381
1782776365748682000,7.161681884765625,-1.34993314743042,-0.5296258926391602,-0.7704916596412659
1782776365758691800,7.17169189453125,-1.8451547622680664,-0.35947442054748535,-0.5965002775192261
1782776365768701400,7.181701416015625,-2.322298526763916,-0.12505483627319336,-0.32130396366119385
1782776365778711300,7.191711181640625,-2.579625129699707,0.0614621639251709,-0.10438007116317749
1782776365788690700,7.201690673828125,-2.594696044921875,0.22075819969177246,0.12634959816932678
1782776365798700300,7.2117001953125,-2.501194953918457,0.338909387588501,0.40680691599845886
1782776365808710100,7.221710205078125,-2.2738099098205566,0.4060397148132324,0.6635369062423706
1782776365818689300,7.231689208984375,-1.9209227561950684,0.4366014003753662,0.828327476978302
1782776365828699100,7.24169921875,-1.5289950370788574,0.4330155849456787,0.9877236485481262
1782776365838708700,7.251708740234375,-1.1359310150146484,0.38172483444213867,1.0332965850830078
1782776365848688000,7.261688232421875,-0.7888278961181641,0.3067185878753662,1.0063652992248535
1782776365858698000,7.271697998046875,-0.48419666290283203,0.20985150337219238,0.8582977056503296
1782776365868707600,7.28170751953125,-0.30474376678466797,0.05473518371582031,0.5881324410438538
1782776365878687000,7.29168701171875,-0.17073822021484375,-0.03857612609863281,0.2681792080402374
1782776365888696800,7.30169677734375,-0.08402061462402344,-0.10987615585327148,-0.09453883767127991
1782776365898706400,7.31170654296875,-0.14008235931396484,-0.17662954330444336,-0.39502501487731934
1782776365908685600,7.321685546875,-0.29465389251708984,-0.22490215301513672,-0.6104400157928467
1782776365918695400,7.3316953125,-0.4846162796020508,-0.17444872856140137,-0.6374509334564209
1782776365928705000,7.341705078125,-0.6318817138671875,-0.059152841567993164,-0.5243045687675476
1782776365938684400,7.351684326171875,-0.7385244369506836,0.07883620262145996,-0.3465113043785095
1782776365948694300,7.3616943359375,-0.7260808944702148,0.1827554702758789,-0.21256984770298004
1782776365958703900,7.371703857421875,-0.6806354522705078,0.25237560272216797,-0.0699077844619751
1782776365968683300,7.381683349609375,-0.5763092041015625,0.3294358253479004,0.008733510971069336
1782776365978693000,7.391693115234375,-0.24855899810791016,0.3868682384490967,0.05025866627693176
1782776365988702700,7.40170263671875,0.062264442443847656,0.34328436851501465,0.04335281252861023
1782776365998682000,7.41168212890625,0.3410310745239258,0.29020071029663086,-0.0032038986682891846
1782776366008692000,7.42169189453125,0.7519731521606445,0.24281096458435059,-0.1237817257642746
1782776366018701600,7.43170166015625,1.1235637664794922,0.3940451145172119,-0.6716026663780212
1782776366028711400,7.44171142578125,1.2672529220581055,0.6791870594024658,-1.2941186428070068
1782776366038690600,7.451690673828125,1.009963035583496,0.9087615013122559,-1.4130581617355347
1782776366048700200,7.4617001953125,0.5658855438232422,1.124135971069336,-0.756085216999054
1782776366058710000,7.4717099609375,0.18414592742919922,1.2162501811981201,0.5272737145423889
1782776366068689400,7.481689453125,0.1440572738647461,1.2002363204956055,2.0255870819091797
1782776366078699300,7.49169921875,0.6215219497680664,0.762075662612915,3.161886215209961
1782776366088708900,7.501708984375,1.8792591094970703,0.0867304801940918,3.335366725921631
1782776366098688300,7.511688232421875,2.9301528930664062,-0.6825251579284668,2.5224554538726807
1782776366108697900,7.52169775390625,3.401124954223633,-1.3373439311981201,1.108114242553711
1782776366118707700,7.531707763671875,3.241337776184082,-1.929398775100708,-0.5721467137336731
1782776366128686800,7.541686767578125,2.6171274185180664,-2.4578616619110107,-1.9577946662902832
1782776366138696400,7.551696533203125,1.777730941772461,-2.6872458457946777,-2.720942735671997
1782776366148706300,7.561706298828125,1.0157995223999023,-2.5950474739074707,-2.73132586479187
1782776366158685700,7.571685791015625,0.47243499755859375,-2.1193413734436035,-1.8313103914260864
1782776366168695300,7.5816953125,0.1012582778930664,-1.524556040763855,-0.579193115234375
1782776366178705200,7.591705078125,-0.25435447692871094,-1.0407896041870117,0.3836684823036194
1782776366188684500,7.6016845703125,-0.6836833953857422,-0.6489427089691162,0.9972227215766907
1782776366198694400,7.6116943359375,-1.1830644607543945,-0.5273585319519043,1.0859487056732178
1782776366208704000,7.6217041015625,-1.62998628616333,-0.6066300868988037,0.8357503414154053
1782776366218683100,7.63168310546875,-2.0260791778564453,-0.9068548679351807,0.29137569665908813
1782776366228693000,7.64169287109375,-2.0376157760620117,-1.2230043411254883,-0.3731009066104889
1782776366238702800,7.651702880859375,-1.9244771003723145,-1.5855518579483032,-1.132983684539795
1782776366248682000,7.661681884765625,-1.7351698875427246,-1.9048858880996704,-1.7364721298217773
1782776366258691800,7.67169189453125,-1.5815091133117676,-2.1090846061706543,-2.1020562648773193
1782776366268701400,7.681701416015625,-1.4723539352416992,-2.1719212532043457,-2.11134934425354
1782776366278711300,7.691711181640625,-1.388188362121582,-2.2243759632110596,-1.8265211582183838
1782776366288690700,7.701690673828125,-1.3338232040405273,-2.194807529449463,-1.1971356868743896
1782776366298700300,7.7117001953125,-1.0220823287963867,-2.0467395782470703,-0.1830221712589264
1782776366308710100,7.721710205078125,-0.4489908218383789,-1.736647367477417,0.6898980140686035
1782776366318689300,7.731689208984375,0.2862062454223633,-1.5333837270736694,1.2894668579101562
1782776366328699100,7.74169921875,1.0107927322387695,-1.4322867393493652,1.697571873664856
1782776366338708700,7.751708740234375,1.603407859802246,-1.4008033275604248,1.6566264629364014
1782776366348688100,7.761688232421875,1.9067010879516602,-1.538649320602417,1.0516152381896973
1782776366358698000,7.771697998046875,1.7876710891723633,-1.7995281219482422,0.088253453373909
1782776366368707600,7.78170751953125,1.2911901473999023,-2.0002496242523193,-0.7394663691520691
1782776366378687000,7.79168701171875,0.6892881393432617,-2.0674734115600586,-1.2744394540786743
1782776366388696800,7.80169677734375,0.16923236846923828,-1.952886939048767,-1.4624876976013184
1782776366398706400,7.81170654296875,-0.2881641387939453,-1.7312592267990112,-1.371483564376831
1782776366408685600,7.821685546875,-0.6577911376953125,-1.5118356943130493,-1.046329379081726
1782776366418695400,7.8316953125,-0.9693470001220703,-1.2634778022766113,-0.5876275897026062
1782776366428705000,7.841705078125,-1.2977352142333984,-1.075246810913086,-0.21838806569576263
1782776366438684400,7.851684326171875,-1.5934748649597168,-0.9517104625701904,-0.037104710936546326
1782776366448694300,7.8616943359375,-1.7452211380004883,-0.8627841472625732,-0.02016162872314453
1782776366458704000,7.871703857421875,-1.5745983123779297,-0.8526594638824463,-0.12268282473087311
1782776366468683300,7.881683349609375,-1.0825014114379883,-0.8227629661560059,-0.12598669528961182
1782776366478633500,7.891633544921875,-0.7067346572875977,-0.8218762874603271,-0.19282792508602142
1782776366488764000,7.901763916015625,-0.5539493560791016,-0.9584224224090576,-0.4501090347766876
1782776366498682000,7.91168212890625,-0.5514535903930664,-1.0149205923080444,-0.8134991526603699
1782776366508692000,7.92169189453125,-0.6747722625732422,-1.0843313932418823,-1.0730184316635132
1782776366518701600,7.93170166015625,-0.34429359436035156,-0.9425098896026611,-0.920507550239563
1782776366528711400,7.94171142578125,-0.4153909683227539,-0.7107570171356201,-0.5233839750289917
1782776366538690600,7.951690673828125,-0.34810638427734375,-0.6147279739379883,-0.3382303714752197
1782776366548700200,7.9617001953125,0.1138315200805664,-0.3678419589996338,-0.2464412897825241
1782776366558710000,7.9717099609375,0.5337419509887695,-0.24287652969360352,0.14670725166797638
1782776366568689400,7.981689453125,0.7800073623657227,-0.17435669898986816,0.5331141948699951
1782776366578699000,7.991698974609375,1.015944480895996,-0.1138315200805664,0.759371817111969
1782776366588708900,8.001708984375,1.025071144104004,0.01030278205871582,0.7991583347320557
