time,seconds_elapsed,z,y,x
1782776138748440300,0.1754404296875,0.11330223083496094,-1.7260220050811768,-0.03219050168991089
1782776138758768000,0.18576806640625,-0.03956127166748047,-1.227271556854248,-0.24916648864746094
1782776138768777700,0.19577783203125,-0.07429695129394531,-1.1223840713500977,-0.27766135334968567
1782776138778787600,0.20578759765625,-0.27893733978271484,-0.9170002937316895,-0.10535961389541626
1782776138788766700,0.2157666015625,-0.5908699035644531,-0.6718740463256836,0.026492297649383545
1782776138798776600,0.225776611328125,-1.0162038803100586,-0.4255650043487549,0.13366788625717163
1782776138808786200,0.2357861328125,-1.3791213035583496,-0.22782659530639648,0.14482301473617554
1782776138818765600,0.245765625,-1.6809215545654297,-0.056640625,0.05589038133621216
1782776138828775400,0.255775390625,-2.018219470977783,0.05631208419799805,-0.03924131393432617
1782776138838785000,0.265784912109375,-2.2457337379455566,0.12713241577148438,-0.06447336077690125
1782776138848764400,0.275764404296875,-2.2369251251220703,0.20245790481567383,-0.10225948691368103
1782776138858774300,0.285774169921875,-2.0836219787597656,0.2675909996032715,-0.08113455772399902
1782776138868783900,0.295783935546875,-1.8481030464172363,0.33684444427490234,0.003882080316543579
1782776138878763300,0.30576318359375,-1.4226946830749512,0.41010570526123047,0.14723026752471924
1782776138888772900,0.31577294921875,-1.0300102233886719,0.4391751289367676,0.28584349155426025
1782776138898782500,0.325782470703125,-0.7845344543457031,0.47077512741088867,0.3713027238845825
1782776138908761900,0.335761962890625,-0.6236667633056641,0.4703555107116699,0.4113420844078064
1782776138918771700,0.345771728515625,-0.5466833114624023,0.3939695358276367,0.40520524978637695
1782776138928781300,0.35578125,-0.5598335266113281,0.36096620559692383,0.46035319566726685
1782776138938760700,0.3657607421875,-0.6581153869628906,0.3602261543273926,0.5235359072685242
1782776138948770600,0.3757705078125,-0.7690925598144531,0.3143296241760254,0.5456909537315369
1782776138958780200,0.3857802734375,-0.8460216522216797,0.2538423538208008,0.5332807898521423
1782776138968759600,0.395759521484375,-0.7940201759338379,0.12397241592407227,0.39647406339645386
1782776138978769200,0.40576904296875,-0.7283916473388672,-0.026234149932861328,0.21255093812942505
1782776138988779000,0.415779052734375,-0.5791769027709961,-0.08379602432250977,0.031466126441955566
1782776138998758400,0.42575830078125,-0.6003851890563965,-0.128662109375,-0.060115158557891846
1782776139008768000,0.43576806640625,-0.6118650436401367,-0.09506368637084961,-0.09686988592147827
1782776139018777600,0.445777587890625,-0.6277146339416504,-0.026511669158935547,-0.04789912700653076
1782776139028787500,0.455787353515625,-0.6162829399108887,0.07876062393188477,0.04680603742599487
1782776139038766800,0.465766845703125,-0.5509858131408691,0.13678836822509766,0.14750438928604126
1782776139048776400,0.4757763671875,-0.5701260566711426,0.18986082077026367,0.1718982458114624
1782776139058786300,0.485786376953125,-0.7592463493347168,0.33025693893432617,0.2063562273979187
1782776139068765700,0.495765625,-1.039726734161377,0.5250105857849121,0.35747647285461426
1782776139078775600,0.505775634765625,-1.1299309730529785,0.6680698394775391,0.5335446000099182
1782776139088785200,0.51578515625,-0.9209613800048828,0.7112970352172852,0.6098887920379639
1782776139098764300,0.525764404296875,-0.6133313179016113,0.5891971588134766,0.38466769456863403
1782776139108774000,0.53577392578125,-0.28501415252685547,0.4313011169433594,0.13751184940338135
1782776139118724000,0.54572412109375,0.030838966369628906,0.25637292861938477,0.11788809299468994
1782776139128854500,0.5558544921875,0.4954843521118164,0.15066909790039062,0.24229031801223755
1782776139138772700,0.565772705078125,0.8563108444213867,0.03256511688232422,0.35138392448425293
1782776139148782600,0.575782470703125,1.0682601928710938,-0.02265644073486328,0.3488282561302185
1782776139158702000,0.5857021484375,1.2776966094970703,0.07732200622558594,0.2552623748779297
1782776139168832800,0.595832763671875,1.1928939819335938,0.535219669342041,-0.4709727168083191
1782776139178781400,0.605781494140625,0.5672779083251953,1.2331953048706055,-1.6912239789962769
1782776139188760600,0.615760498046875,-0.27431774139404297,1.3059024810791016,-1.8190408945083618
1782776139198770400,0.6257705078125,-1.120840072631836,1.0370182991027832,-1.2052927017211914
1782776139208780000,0.635780029296875,-1.7833175659179688,1.050905704498291,-0.5799545645713806
1782776139218759400,0.645759521484375,-1.3571209907531738,0.869194507598877,0.6572107672691345
1782776139228769300,0.655769287109375,0.20705223083496094,0.21211624145507812,1.7577712535858154
1782776139238779000,0.66577880859375,2.2567138671875,-0.43554162979125977,2.1585400104522705
1782776139248758300,0.67575830078125,4.263399124145508,-0.9178938865661621,1.9273929595947266
1782776139258768100,0.68576806640625,5.4015045166015625,-1.4636120796203613,1.4259333610534668
1782776139268777700,0.69577783203125,5.660012245178223,-1.9113526344299316,0.9683459997177124
1782776139278787600,0.70578759765625,4.959412574768066,-2.216364860534668,0.5194481611251831
1782776139288766700,0.7157666015625,3.4144248962402344,-2.2620816230773926,0.3626844882965088
1782776139298776300,0.7257763671875,1.5715646743774414,-2.150773048400879,0.12226301431655884
1782776139308786200,0.7357861328125,0.0713186264038086,-1.991997480392456,-0.3380144238471985
1782776139318765600,0.745765625,-1.3018856048583984,-1.8022537231445312,-0.7598327398300171
1782776139328775400,0.755775390625,-2.343301773071289,-1.6827449798583984,-1.16178297996521
1782776139338785000,0.765784912109375,-3.0355324745178223,-1.5994088649749756,-1.5949139595031738
1782776139348764400,0.775764404296875,-3.2811245918273926,-1.5345790386199951,-2.0590755939483643
1782776139358774300,0.785774169921875,-3.142524242401123,-1.5027706623077393,-2.323218822479248
1782776139368784000,0.795783935546875,-2.5630950927734375,-1.4283537864685059,-2.181030511856079
1782776139378763000,0.805762939453125,-1.6911382675170898,-1.409724235534668,-1.8878726959228516
1782776139388772900,0.81577294921875,-0.9374580383300781,-1.3482375144958496,-1.433474063873291
1782776139398782500,0.825782470703125,-0.5131206512451172,-1.2405900955200195,-0.8869849443435669
1782776139408761900,0.835761962890625,-0.41670989990234375,-1.132697343826294,-0.33093175292015076
1782776139418771700,0.845771728515625,-0.5902957916259766,-1.0616204738616943,-0.060129910707473755
1782776139428781300,0.85578125,-0.7949552536010742,-1.050546407699585,0.19001641869544983
1782776139438760700,0.8657607421875,-0.9383058547973633,-1.0975563526153564,0.4296015501022339
1782776139448770600,0.8757705078125,-0.714935302734375,-1.2506475448608398,0.4751666188240051
1782776139458720500,0.885720458984375,-0.030221939086914062,-1.4355499744415283,0.45131590962409973
1782776139468791300,0.895791259765625,1.042973518371582,-1.6884446144104004,0.3820428252220154
1782776139478830300,0.905830322265625,1.9758014678955078,-1.9453351497650146,0.18014538288116455
1782776139488779000,0.915779052734375,2.6366844177246094,-2.180534839630127,-0.13506636023521423
1782776139498758400,0.92575830078125,2.6504716873168945,-2.257214307785034,-0.36652910709381104
1782776139508768000,0.93576806640625,1.9914741516113281,-2.2014520168304443,-0.5169105529785156
1782776139518777600,0.945777587890625,0.907353401184082,-2.010227680206299,-0.5562875866889954
1782776139528787500,0.955787353515625,-0.07883453369140625,-1.710211992263794,-0.43240153789520264
1782776139538766800,0.965766845703125,-0.9087471961975098,-1.401548147201538,-0.2932565212249756
1782776139548776700,0.975776611328125,-1.4241137504577637,-1.1516342163085938,-0.21731168031692505
1782776139558786300,0.985786376953125,-1.6077775955200195,-1.0473918914794922,-0.22759926319122314
1782776139568705800,0.995705810546875,-1.243607997894287,-0.90614914894104,-0.17609190940856934
1782776139578776600,1.005776611328125,-0.8519163131713867,-0.8821122646331787,-0.14013662934303284
1782776139588478500,1.015478515625,-0.10339641571044922,-0.731769323348999,0.1454790234565735
1782776139598735000,1.025735107421875,0.27810001373291016,-0.6720981597900391,0.15530991554260254
1782776139608835300,1.03583544921875,0.02819538116455078,-0.6759774684906006,0.02154475450515747
1782776139618783700,1.04578369140625,-0.7308950424194336,-0.7387940883636475,-0.1742795705795288
1782776139628763100,1.05576318359375,-1.6810274124145508,-0.6022753715515137,-0.3401153087615967
1782776139638772700,1.065772705078125,-2.1005349159240723,-0.49448251724243164,-0.5416527390480042
1782776139648782600,1.075782470703125,-2.095503807067871,-0.5981159210205078,-0.7900646328926086
1782776139658762000,1.085761962890625,-1.7207002639770508,-0.6444869041442871,-0.8460427522659302
1782776139668771800,1.095771728515625,-1.0821332931518555,-0.6236648559570312,-0.7902028560638428
1782776139678781400,1.105781494140625,-0.32032012939453125,-0.5524368286132812,-0.5372048616409302
1782776139688760600,1.115760498046875,0.12884235382080078,-0.6538362503051758,-0.34450772404670715
1782776139698770400,1.1257705078125,-0.11313533782958984,-0.5295872688293457,0.0044664740562438965
1782776139708780000,1.135780029296875,-0.6751785278320312,-0.3394303321838379,0.10877454280853271
1782776139718759400,1.145759521484375,-0.5824103355407715,-0.3378734588623047,-0.19026201963424683
1782776139728769300,1.155769287109375,0.10939216613769531,-0.4062972068786621,-0.4411903917789459
1782776139738779000,1.16577880859375,1.494771957397461,-0.45425891876220703,-0.6121795773506165
1782776139748758300,1.17575830078125,2.6208009719848633,-0.6606898307800293,-0.3690696060657501
1782776139758768000,1.18576806640625,2.9788990020751953,-0.8048219680786133,-0.03700709342956543
1782776139768777700,1.19577783203125,2.3694887161254883,-0.9963216781616211,-0.12058204412460327
1782776139778787600,1.20578759765625,0.8186244964599609,-1.4127171039581299,-0.3690277934074402
1782776139788766700,1.2157666015625,-1.5498909950256348,-1.7200372219085693,0.3743913769721985
1782776139798776300,1.2257763671875,-3.3608174324035645,-1.9603228569030762,-0.48577773571014404
1782776139808786200,1.2357861328125,-4.783151626586914,-2.034498453140259,-1.4889116287231445
1782776139818765600,1.245765625,-5.431631088256836,-2.1092569828033447,-2.1298987865448
1782776139828775400,1.255775390625,-4.913034915924072,-2.149869203567505,-2.4322543144226074
1782776139838785000,1.265784912109375,-4.053861618041992,-1.996570110321045,-2.113367795944214
1782776139848764400,1.275764404296875,-3.2736339569091797,-1.94956636428833,-1.581851840019226
1782776139858774000,1.28577392578125,-2.802431583404541,-1.9025545120239258,-1.0909467935562134
1782776139868783900,1.295783935546875,-2.3367748260498047,-1.8467092514038086,-0.786848247051239
1782776139878763300,1.30576318359375,-1.9746174812316895,-1.942429542541504,-0.7416212558746338
1782776139888772900,1.31577294921875,-2.0234732627868652,-2.12562894821167,-0.7540381550788879
1782776139898782500,1.325782470703125,-2.0960726737976074,-1.7118239402770996,-0.4239002466201782
1782776139908761900,1.335761962890625,-1.9184722900390625,-0.7550210952758789,0.7089940309524536
1782776139918771500,1.345771484375,-1.2501940727233887,0.15007495880126953,2.0410022735595703
1782776139928781300,1.35578125,-0.01467275619506836,0.778480052947998,3.5262670516967773
1782776139938760700,1.3657607421875,2.088656425476074,0.8905229568481445,3.984473466873169
1782776139948770600,1.3757705078125,3.7256202697753906,0.8842167854309082,3.7402970790863037
1782776139958780400,1.385780517578125,4.923436164855957,0.8423676490783691,3.1661527156829834
1782776139968759600,1.395759521484375,5.890264511108398,0.7383337020874023,2.549844264984131
1782776139978769400,1.405769287109375,6.2360639572143555,0.6615715026855469,2.0182299613952637
1782776139988779000,1.415779052734375,5.889519214630127,0.5030088424682617,1.388337254524231
1782776139998758400,1.42575830078125,4.87748384475708,0.5033130645751953,0.6623060703277588
1782776140008768000,1.43576806640625,3.6050100326538086,0.7132081985473633,0.017756938934326172
1782776140018777900,1.44577783203125,2.414215087890625,0.8868670463562012,-0.3747379779815674
1782776140028787500,1.455787353515625,2.0090503692626953,1.112037181854248,-0.2584564685821533
1782776140038766800,1.465766845703125,2.438535690307617,1.1977453231811523,0.005779385566711426
1782776140048776400,1.4757763671875,3.248952865600586,1.182532787322998,0.5033174753189087
1782776140058786300,1.485786376953125,3.719254493713379,1.128882884979248,1.155513882637024
1782776140068765700,1.495765625,3.703883171081543,1.1659293174743652,1.865675449371338
1782776140078775600,1.505775634765625,3.2000856399536133,1.272979736328125,2.2814228534698486
1782776140088785200,1.51578515625,2.5386152267456055,1.300130844116211,2.5139360427856445
1782776140098764300,1.525764404296875,1.8491220474243164,1.089651107788086,2.540154457092285
1782776140108774100,1.535774169921875,1.1408653259277344,0.7509074211120605,2.338768720626831
1782776140118783700,1.54578369140625,0.3921546936035156,0.4121718406677246,1.9838800430297852
1782776140128763100,1.55576318359375,-0.31206321716308594,0.04979372024536133,1.266974687576294
1782776140138773000,1.56577294921875,-0.5262928009033203,-0.31697750091552734,0.48718392848968506
1782776140148782600,1.575782470703125,-0.4707341194152832,-0.6462187767028809,0.07673466205596924
1782776140158762000,1.585761962890625,-0.35591602325439453,-0.8606777191162109,-0.14693355560302734
1782776140168771800,1.595771728515625,-0.19501304626464844,-0.8761177062988281,-0.24726855754852295
1782776140178781400,1.605781494140625,0.18631744384765625,-0.7344675064086914,-0.15353131294250488
1782776140188760800,1.6157607421875,0.28389549255371094,-0.686004638671875,-0.026038289070129395
1782776140198770400,1.6257705078125,-0.13811016082763672,-0.6277832984924316,0.1511681079864502
1782776140208780300,1.6357802734375,-0.783759593963623,-0.5589799880981445,0.15136826038360596
1782776140218759400,1.645759521484375,-1.4010534286499023,-0.42966604232788086,0.09206044673919678
1782776140228769300,1.655769287109375,-1.7543706893920898,-0.30727100372314453,0.22882282733917236
1782776140238779000,1.66577880859375,-2.019718647003174,-0.16859054565429688,0.5087943077087402
1782776140248758300,1.67575830078125,-2.194770336151123,-0.08253717422485352,0.7302730083465576
1782776140258768100,1.68576806640625,-2.3851284980773926,-0.06894111633300781,0.8756732940673828
1782776140268778000,1.695778076171875,-2.6599297523498535,-0.12061882019042969,0.8960766792297363
1782776140278787600,1.70578759765625,-2.719102382659912,-0.1607832908630371,0.7581942081451416
1782776140288766700,1.7157666015625,-2.516695022583008,-0.305936336517334,0.6054093837738037
1782776140298776600,1.725776611328125,-2.1432700157165527,-0.40201854705810547,0.4685782194137573
1782776140308786200,1.7357861328125,-1.465449333190918,-0.4104595184326172,0.3792070150375366
1782776140318765600,1.745765625,-0.7506823539733887,-0.33979082107543945,0.38348186016082764
1782776140328775400,1.755775390625,-0.3004474639892578,-0.279940128326416,0.37900805473327637
1782776140338785000,1.765784912109375,-0.1378917694091797,-0.19113540649414062,0.3122907876968384
1782776140348764400,1.775764404296875,-0.27021217346191406,-0.14469385147094727,0.18452608585357666
1782776140358774300,1.785774169921875,-0.42816162109375,-0.08691883087158203,0.029850125312805176
1782776140368784000,1.795783935546875,-0.548616886138916,-0.03291606903076172,0.017655611038208008
1782776140378763000,1.805762939453125,-0.6717014312744141,0.05403757095336914,0.08504164218902588
1782776140388772900,1.81577294921875,-0.8480319976806641,0.17934417724609375,0.13329780101776123
1782776140398782500,1.825782470703125,-0.8277673721313477,0.44917869567871094,0.28386402130126953
1782776140408761900,1.835761962890625,-0.8837985992431641,0.39751291275024414,0.3572959899902344
1782776140418771700,1.845771728515625,-0.9918537139892578,0.41885948181152344,0.29148614406585693
1782776140428781300,1.85578125,-0.9091148376464844,0.41471099853515625,0.0173872709274292
1782776140438760700,1.8657607421875,-0.7908816337585449,0.3379197120666504,-0.24112218618392944
1782776140448770600,1.8757705078125,-0.5485234260559082,0.2608480453491211,-0.29935747385025024
1782776140458780200,1.8857802734375,0.060204505920410156,0.17871952056884766,-0.18048739433288574
1782776140468759600,1.895759521484375,0.7019414901733398,0.17165613174438477,-0.008522272109985352
1782776140478769400,1.905769287109375,1.0975189208984375,0.19084453582763672,0.04705822467803955
1782776140488779000,1.915779052734375,1.3225889205932617,0.2390432357788086,0.07146060466766357
1782776140498758100,1.925758056640625,1.3224334716796875,0.23363542556762695,-0.0730295181274414
1782776140508768000,1.93576806640625,1.3539066314697266,0.1656942367553711,-0.2613586187362671
1782776140518777600,1.945777587890625,1.2076539993286133,0.0345158576965332,-0.23862987756729126
1782776140528787500,1.955787353515625,1.0511293411254883,-0.09835338592529297,-0.3390808701515198
1782776140538766800,1.965766845703125,1.1127395629882812,-0.2449512481689453,-0.24345529079437256
1782776140548776700,1.975776611328125,1.6405792236328125,-0.44467878341674805,-0.05003201961517334
1782776140558786300,1.985786376953125,2.565373420715332,-0.7322893142700195,0.25321853160858154
1782776140568765700,1.995765625,3.5735225677490234,-0.9669814109802246,0.7212275266647339
1782776140578775600,2.005775634765625,3.850444793701172,-1.1557049751281738,1.0047922134399414
1782776140588785200,2.01578515625,3.5698843002319336,-1.3148975372314453,1.0015835762023926
1782776140598764300,2.025764404296875,2.7975664138793945,-1.5432815551757812,0.7586216926574707
1782776140608774100,2.035774169921875,1.816605567932129,-1.856534481048584,0.44099879264831543
1782776140618783700,2.04578369140625,0.7993745803833008,-2.0599915981292725,0.21150970458984375
1782776140628763100,2.05576318359375,-0.07462310791015625,-2.310412883758545,0.015657126903533936
1782776140638772700,2.065772705078125,-0.6592307090759277,-2.5179495811462402,-0.10960853099822998
1782776140648782600,2.075782470703125,-0.9284610748291016,-2.7169058322906494,-0.6077364683151245
1782776140658762000,2.085761962890625,-1.127920150756836,-2.911336898803711,-1.220916509628296
1782776140668771800,2.095771728515625,-1.3428988456726074,-2.975949287414551,-1.6785343885421753
1782776140678781400,2.105781494140625,-1.4954514503479004,-2.8392410278320312,-1.9205310344696045
1782776140688760600,2.115760498046875,-1.5877256393432617,-2.549304723739624,-1.795661211013794
1782776140698770400,2.1257705078125,-1.4547576904296875,-2.206319570541382,-1.462706446647644
1782776140708780000,2.135780029296875,-1.0880331993103027,-1.7969062328338623,-0.8185611367225647
1782776140718759400,2.145759521484375,-0.8044443130493164,-1.3653678894042969,-0.061091601848602295
1782776140728769300,2.155769287109375,-0.623530387878418,-0.9089598655700684,0.5734793543815613
1782776140738779000,2.16577880859375,-0.3281264305114746,-0.3908200263977051,1.0926532745361328
1782776140748758300,2.17575830078125,0.3744535446166992,-0.03321504592895508,1.4641609191894531
1782776140758768000,2.18576806640625,1.287801742553711,-0.0024161338806152344,1.6663168668746948
1782776140768777700,2.19577783203125,2.113636016845703,-0.23701000213623047,1.551985502243042
1782776140778787600,2.20578759765625,2.6388778686523438,-0.6092796325683594,1.0514917373657227
1782776140788766700,2.2157666015625,2.864490509033203,-0.9642782211303711,0.5525652170181274
1782776140798776300,2.2257763671875,2.7953319549560547,-1.2252449989318848,-0.01985710859298706
1782776140808786200,2.2357861328125,2.4947967529296875,-1.4589011669158936,-0.4113040864467621
1782776140818765600,2.245765625,2.258517265319824,-1.6067285537719727,-0.6901748180389404
1782776140828775400,2.255775390625,1.818251609802246,-1.738438606262207,-0.757348358631134
1782776140838785000,2.265784912109375,1.388357162475586,-1.695235252380371,-0.6618186235427856
1782776140848764400,2.275764404296875,1.1322059631347656,-1.645214557647705,-0.5542638301849365
1782776140858774300,2.285774169921875,0.8638572692871094,-1.6229748725891113,-0.331712543964386
1782776140868783900,2.295783935546875,0.6003055572509766,-1.6508798599243164,-0.07174977660179138
1782776140878763000,2.305762939453125,0.113677978515625,-1.716503381729126,-0.0874919593334198
1782776140888772900,2.31577294921875,-0.5083932876586914,-1.6557650566101074,-0.0796528160572052
1782776140898782500,2.325782470703125,-1.102189540863037,-1.6499075889587402,-0.12715500593185425
1782776140908761900,2.335761962890625,-1.5696067810058594,-1.6443181037902832,-0.16866335272789001
1782776140918771700,2.345771728515625,-1.6202149391174316,-1.524411678314209,-0.1342792958021164
1782776140928781300,2.35578125,-1.514510154724121,-1.4418785572052002,0.03770589828491211
1782776140938760700,2.3657607421875,-1.3439970016479492,-1.4519174098968506,0.178646981716156
1782776140948770600,2.3757705078125,-1.034986972808838,-1.4604442119598389,0.19705721735954285
1782776140958780200,2.3857802734375,-0.5921154022216797,-1.4797289371490479,0.1873268485069275
1782776140968759600,2.395759521484375,-0.2062549591064453,-1.4533751010894775,0.20753899216651917
1782776140978769400,2.405769287109375,0.22933197021484375,-1.4195339679718018,0.22447746992111206
1782776140988779000,2.415779052734375,0.8993339538574219,-1.4312989711761475,0.3354765772819519
1782776140998758400,2.42575830078125,1.3426513671875,-1.4009664058685303,0.49075406789779663
1782776141008768000,2.43576806640625,1.5057039260864258,-1.366008996963501,0.5638259649276733
1782776141018777900,2.44577783203125,1.4811115264892578,-1.33583664894104,0.5664147138595581
1782776141028787500,2.455787353515625,1.0666980743408203,-0.7156898975372314,0.46664080023765564
1782776141038766800,2.465766845703125,0.7369050979614258,-0.34471964836120605,0.3572045564651489
1782776141048776400,2.4757763671875,0.6426553726196289,-0.1361560821533203,0.27073174715042114
1782776141058786300,2.485786376953125,0.6113662719726562,-0.1254441738128662,0.20910954475402832
1782776141068765700,2.495765625,0.5477151870727539,-0.10316157341003418,0.12844491004943848
1782776141078775600,2.505775634765625,0.4999513626098633,-0.02438640594482422,0.10127025842666626
1782776141088785200,2.51578515625,0.3749227523803711,0.08938407897949219,0.13651812076568604
1782776141098764300,2.525764404296875,0.24180889129638672,0.15962934494018555,0.32609128952026367
1782776141108774100,2.535774169921875,0.12503623962402344,0.25661253929138184,0.5437376499176025
1782776141118783700,2.54578369140625,0.3535795211791992,0.5623025894165039,0.9374716281890869
1782776141128763100,2.55576318359375,0.7220096588134766,0.9026978015899658,1.4509707689285278
1782776141138773000,2.56577294921875,1.0085840225219727,1.1172130107879639,2.084244966506958
1782776141148782600,2.575782470703125,1.0029535293579102,1.345710277557373,2.4730701446533203
1782776141158762000,2.585761962890625,0.6168613433837891,1.5737354755401611,2.596200704574585
1782776141168771800,2.595771728515625,0.1626272201538086,1.6632463932037354,2.6212520599365234
1782776141178781400,2.605781494140625,-0.3056783676147461,1.6797618865966797,2.694770097732544
1782776141188760800,2.6157607421875,-0.7510871887207031,1.63470458984375,2.8376059532165527
1782776141198770400,2.6257705078125,-1.238929271697998,1.3953371047973633,2.784271240234375
1782776141208780000,2.635780029296875,-1.7869038581848145,1.0866384506225586,2.3524386882781982
1782776141218759400,2.645759521484375,-2.5043630599975586,0.7609405517578125,1.9304441213607788
1782776141228769300,2.655769287109375,-3.0612597465515137,0.35739707946777344,1.7958256006240845
1782776141238779000,2.66577880859375,-2.455883026123047,-0.2377939224243164,1.5320872068405151
1782776141248758300,2.67575830078125,-1.4600458145141602,-0.4447011947631836,1.7940312623977661
1782776141258768100,2.68576806640625,0.09511566162109375,-0.5296449661254883,2.6020281314849854
1782776141268778000,2.695778076171875,1.768855094909668,-1.0757243633270264,3.2864832878112793
1782776141278787600,2.70578759765625,3.266733169555664,-1.8451123237609863,3.183173179626465
1782776141288766700,2.7157666015625,4.565760612487793,-2.6123156547546387,2.480421543121338
1782776141298776300,2.7257763671875,5.42966365814209,-3.4046542644500732,1.531583309173584
1782776141308786200,2.7357861328125,5.644423484802246,-3.9086220264434814,0.18800067901611328
1782776141318765600,2.745765625,5.325233459472656,-4.23803186416626,-0.906123161315918
1782776141328775400,2.755775390625,4.65273380279541,-4.37022066116333,-1.6211477518081665
1782776141338785000,2.765784912109375,3.7453041076660156,-4.315228462219238,-1.8882275819778442
1782776141348764400,2.775764404296875,2.97739315032959,-4.065411567687988,-1.66092050075531
1782776141358774300,2.785774169921875,2.3164806365966797,-3.784884214401245,-1.1357102394104004
1782776141368784000,2.795783935546875,1.6681795120239258,-3.564932346343994,-0.5696176290512085
1782776141378763000,2.805762939453125,0.9160614013671875,-3.4712700843811035,-0.10237610340118408
1782776141388772900,2.81577294921875,0.08160686492919922,-3.4652655124664307,0.20260632038116455
1782776141398782500,2.825782470703125,-0.6860027313232422,-3.3716542720794678,0.49455904960632324
1782776141408761900,2.835761962890625,-1.5017590522766113,-3.3101420402526855,0.6942708492279053
1782776141418771700,2.845771728515625,-1.9689884185791016,-3.3246140480041504,0.7427077293395996
1782776141428781300,2.85578125,-2.2334818840026855,-3.3313846588134766,0.782630443572998
1782776141438760700,2.8657607421875,-2.262688636779785,-3.305878162384033,0.937978982925415
1782776141448770600,2.8757705078125,-2.104245185852051,-3.228065252304077,1.1137490272521973
1782776141458780200,2.8857802734375,-1.7162742614746094,-3.2162415981292725,1.3227505683898926
1782776141468759600,2.895759521484375,-1.1927566528320312,-3.236729860305786,1.4560868740081787
1782776141478769400,2.905769287109375,-0.4934382438659668,-3.3433780670166016,1.3951075077056885
1782776141488779000,2.915779052734375,0.18512248992919922,-3.4511027336120605,1.1329026222229004
1782776141498758100,2.925758056640625,0.8652305603027344,-3.5028085708618164,0.7843708992004395
1782776141508768000,2.93576806640625,1.3549375534057617,-3.554629325866699,0.3729586601257324
1782776141518777600,2.945777587890625,1.7434759140014648,-3.5271339416503906,-0.17328929901123047
1782776141528787500,2.955787353515625,1.946023941040039,-3.386410713195801,-0.522411584854126
1782776141538766800,2.965766845703125,2.0809059143066406,-3.189110279083252,-0.6741229295730591
1782776141548776400,2.9757763671875,2.2049636840820312,-2.8463735580444336,-0.6092264652252197
1782776141558786300,2.985786376953125,2.3335208892822266,-2.5165882110595703,-0.34034276008605957
1782776141568765700,2.995765625,2.78920841217041,-2.1641082763671875,0.18770909309387207
1782776141578775600,3.005775634765625,2.993112564086914,-1.9436209201812744,0.5635204315185547
1782776141588785200,3.01578515625,2.8746776580810547,-1.7478342056274414,0.6405460834503174
1782776141598764300,3.025764404296875,2.6076860427856445,-1.592902660369873,0.595012903213501
1782776141608774100,3.035774169921875,2.2680511474609375,-1.484220266342163,0.5509450435638428
1782776141618783700,3.04578369140625,1.9428091049194336,-1.4110791683197021,0.5582332611083984
1782776141628763100,3.05576318359375,1.7429389953613281,-1.3418421745300293,0.6101620197296143
1782776141638773000,3.06577294921875,1.6350221633911133,-1.2934613227844238,0.6516749858856201
1782776141648782600,3.075782470703125,1.5253257751464844,-1.2970623970031738,0.7076561450958252
1782776141658762000,3.085761962890625,1.3276491165161133,-1.3459787368774414,0.709364652633667
1782776141668771800,3.095771728515625,1.0162773132324219,-1.419980525970459,0.6616668701171875
1782776141678781400,3.105781494140625,0.7637205123901367,-1.4522557258605957,0.6411628723144531
1782776141688760600,3.115760498046875,0.6529865264892578,-1.5153956413269043,0.6788198947906494
1782776141698770400,3.1257705078125,0.37733936309814453,-1.6088988780975342,0.575969934463501
1782776141708780000,3.135780029296875,-0.030069351196289062,-1.6613147258758545,0.36309313774108887
1782776141718759400,3.145759521484375,-0.4907808303833008,-1.7065484523773193,0.09137773513793945
1782776141728769300,3.155769287109375,-0.8960018157958984,-1.7684743404388428,-0.14667749404907227
1782776141738779000,3.16577880859375,-1.0671701431274414,-1.7934491634368896,-0.25173020362854004
1782776141748758300,3.17575830078125,-1.1460561752319336,-1.7503154277801514,-0.147169828414917
1782776141758768000,3.18576806640625,-1.059502124786377,-1.6724615097045898,0.0390625
1782776141768777700,3.19577783203125,-0.9268035888671875,-1.4771504402160645,0.11976432800292969
1782776141778787600,3.20578759765625,-0.7650561332702637,-1.410536289215088,0.04464411735534668
1782776141788766700,3.2157666015625,-0.48442697525024414,-1.327660322189331,-0.1338057518005371
1782776141798776300,3.2257763671875,-0.13884449005126953,-1.284743070602417,-0.19272494316101074
1782776141808786200,3.2357861328125,0.1930255889892578,-1.1975080966949463,-0.14519166946411133
1782776141818765600,3.245765625,0.42337894439697266,-1.105422019958496,-0.15445566177368164
1782776141828775400,3.255775390625,0.644139289855957,-0.9790105819702148,-0.08892607688903809
1782776141838785000,3.265784912109375,0.8971452713012695,-0.8533523082733154,0.04570746421813965
1782776141848764400,3.275764404296875,0.9004354476928711,-0.4109475612640381,0.07123875617980957
1782776141858774300,3.285774169921875,0.9815683364868164,-0.07022809982299805,0.06186032295227051
1782776141868783900,3.295783935546875,0.9995584487915039,0.10427212715148926,-0.11529159545898438
1782776141878763000,3.305762939453125,0.9465341567993164,0.06569933891296387,-0.3319120407104492
1782776141888772900,3.31577294921875,0.7178325653076172,0.054738759994506836,-0.4560277462005615
1782776141898782700,3.32578271484375,0.36583900451660156,0.12972402572631836,-0.3989243507385254
1782776141908761900,3.335761962890625,-0.018553733825683594,0.2009899616241455,-0.36780714988708496
1782776141918771700,3.345771728515625,-0.34415531158447266,0.26285767555236816,-0.32963991165161133
1782776141928781300,3.35578125,-0.5416498184204102,0.31662464141845703,-0.2692422866821289
1782776141938760700,3.3657607421875,-0.692957878112793,0.3907802104949951,-0.078125
1782776141948770600,3.3757705078125,-0.7843399047851562,0.4764094352722168,0.034146785736083984
1782776141958780400,3.385780517578125,-0.8830089569091797,0.504213809967041,0.05587291717529297
1782776141968759600,3.395759521484375,-0.9102439880371094,0.5484838485717773,-0.00731205940246582
1782776141978769400,3.405769287109375,-0.8021559715270996,0.5988650321960449,-0.09794855117797852
1782776141988779000,3.415779052734375,-0.3652372360229492,0.47383785247802734,-0.2709556818008423
1782776141998758400,3.42575830078125,0.0904703140258789,0.38410043716430664,-0.32824039459228516
1782776142008768000,3.43576806640625,0.4295539855957031,0.35211610794067383,-0.46815216541290283
1782776142018777900,3.44577783203125,0.5811758041381836,0.3029470443725586,-0.7170445919036865
1782776142028787500,3.455787353515625,0.5884294509887695,0.2955927848815918,-0.8854773044586182
1782776142038766800,3.465766845703125,0.693049430847168,0.3510560989379883,-0.9685931205749512
1782776142048776400,3.4757763671875,0.9322566986083984,0.4456825256347656,-0.894900381565094
1782776142058786300,3.485786376953125,1.1464900970458984,0.5258607864379883,-0.7806517481803894
1782776142068765700,3.495765625,1.24267578125,0.5945711135864258,-0.7395361065864563
1782776142078775600,3.505775634765625,1.1368236541748047,0.5885729789733887,-0.7510448098182678
1782776142088785200,3.51578515625,0.8041677474975586,0.5648784637451172,-0.9695385098457336
1782776142098764300,3.525764404296875,0.24081993103027344,0.5582804679870605,-1.3177465200424194
1782776142108774100,3.535774169921875,-0.4753904342651367,0.4892234802246094,-1.833855390548706
1782776142118783700,3.54578369140625,-1.0219755172729492,0.42533063888549805,-2.46417236328125
1782776142128763100,3.55576318359375,-0.9857392311096191,0.39168548583984375,-2.8710784912109375
1782776142138773000,3.56577294921875,-0.12764930725097656,0.4817981719970703,-2.5664210319519043
1782776142148782600,3.575782470703125,1.1532011032104492,0.31354713439941406,-2.00276517868042
1782776142158762000,3.585761962890625,2.2319908142089844,0.2631649971008301,-1.6089545488357544
1782776142168771800,3.595771728515625,2.950680732727051,0.23962974548339844,-1.3645381927490234
1782776142178781400,3.605781494140625,3.0954694747924805,0.1742238998413086,-1.3288027048110962
1782776142188760600,3.615760498046875,2.602069854736328,0.02102184295654297,-1.5041552782058716
1782776142198770400,3.6257705078125,1.812307357788086,-0.16695117950439453,-2.0406174659729004
1782776142208780000,3.635780029296875,0.9835481643676758,-0.29613685607910156,-2.568081855773926
1782776142218759400,3.645759521484375,0.2422351837158203,-0.37404966354370117,-2.964416980743408
1782776142228769300,3.655769287109375,-0.34912109375,-0.43352484703063965,-3.174067974090576
1782776142238779100,3.665779052734375,-0.8404769897460938,-0.39144086837768555,-3.1130518913269043
1782776142248758300,3.67575830078125,-1.5073280334472656,-0.2129669189453125,-2.8828392028808594
1782776142258768100,3.68576806640625,-1.9919910430908203,-0.11311674118041992,-2.803403377532959
1782776142268777700,3.69577783203125,-2.20930814743042,-0.04301118850708008,-2.582021474838257
1782776142278787600,3.70578759765625,-2.068272113800049,-0.0417633056640625,-2.300682544708252
1782776142288766700,3.7157666015625,-1.2879772186279297,0.02464008331298828,-1.8193912506103516
1782776142298776600,3.725776611328125,-0.7680091857910156,-0.07990694046020508,-1.5541505813598633
1782776142308786200,3.7357861328125,-0.3311014175415039,-0.08448934555053711,-1.228895664215088
1782776142318765600,3.745765625,-0.04944324493408203,-0.024144649505615234,-0.955754280090332
1782776142328775200,3.755775146484375,0.047293663024902344,-0.032797813415527344,-0.7477322220802307
1782776142338785000,3.765784912109375,0.2017354965209961,-0.07687711715698242,-0.7735732197761536
1782776142348764400,3.775764404296875,0.29572200775146484,-0.2645730972290039,-0.9741772413253784
1782776142358774300,3.785774169921875,0.3234596252441406,-0.4311230182647705,-1.1086010932922363
1782776142368784000,3.795783935546875,0.21621227264404297,-0.5543694496154785,-1.2205394506454468
1782776142378763000,3.805762939453125,0.05147838592529297,-0.6657116413116455,-1.394610047340393
1782776142388772900,3.81577294921875,-0.17208003997802734,-0.8065347671508789,-1.68672776222229
1782776142398782700,3.82578271484375,-0.3398628234863281,-0.888286828994751,-1.9920823574066162
1782776142408761900,3.835761962890625,-0.29337501525878906,-0.8664572238922119,-2.2378664016723633
1782776142418771700,3.845771728515625,0.10789680480957031,-0.7674086093902588,-2.447676420211792
1782776142428781300,3.85578125,0.5807533264160156,-0.6246299743652344,-2.4028706550598145
1782776142438760700,3.8657607421875,0.6570882797241211,-0.5362496376037598,-2.165355920791626
1782776142448770600,3.8757705078125,0.28989505767822266,-0.44376611709594727,-1.887638807296753
1782776142458780200,3.8857802734375,-0.37069034576416016,-0.3066415786743164,-1.8289844989776611
1782776142468759600,3.895759521484375,-1.0267038345336914,-0.24045157432556152,-1.875261664390564
1782776142478769400,3.905769287109375,-1.5159873962402344,-0.23416519165039062,-1.9984426498413086
1782776142488779000,3.915779052734375,-1.7420501708984375,-0.2267303466796875,-1.8775125741958618
1782776142498758400,3.92575830078125,-1.7677288055419922,-0.2069551944732666,-1.7610976696014404
1782776142508768000,3.93576806640625,-1.6640267372131348,-0.20923995971679688,-1.6844909191131592
1782776142518777600,3.945777587890625,-1.5754036903381348,-0.1464846134185791,-1.4767417907714844
1782776142528787500,3.955787353515625,-1.3173561096191406,-0.04366874694824219,-1.30645751953125
1782776142538766800,3.965766845703125,-0.9203929901123047,0.023954391479492188,-1.2557960748672485
1782776142548776400,3.9757763671875,-0.5747213363647461,0.08943796157836914,-1.0895768404006958
1782776142558786300,3.985786376953125,-0.4415130615234375,0.14621877670288086,-0.939631462097168
1782776142568765700,3.995765625,-0.39772891998291016,0.14644408226013184,-0.9461151957511902
1782776142578775600,4.005775634765625,-0.5702247619628906,0.11419677734375,-1.0097349882125854
1782776142588785200,4.01578515625,-0.7628374099731445,-0.00880289077758789,-0.9949623942375183
1782776142598764300,4.025764404296875,-0.9606437683105469,-0.05521559715270996,-0.9236409068107605
1782776142608774000,4.03577392578125,-1.0027785301208496,-0.04716897010803223,-0.7832745313644409
1782776142618783700,4.04578369140625,-0.8805570602416992,-0.004995822906494141,-0.5551223754882812
1782776142628763100,4.05576318359375,-0.6920547485351562,0.005042076110839844,-0.364233136177063
1782776142638773000,4.06577294921875,-0.43872928619384766,0.01879405975341797,-0.1683221459388733
1782776142648782600,4.075782470703125,-0.3119831085205078,0.01181173324584961,-0.06842546164989471
1782776142658762000,4.085761962890625,-0.1629314422607422,0.049753665924072266,-0.03356485068798065
1782776142668771600,4.095771484375,-0.10868644714355469,0.01654195785522461,-0.05408594012260437
1782776142678781400,4.105781494140625,-0.11934375762939453,0.006526470184326172,-0.10312047600746155
1782776142688760600,4.115760498046875,-0.2030019760131836,-0.0013785362243652344,-0.1770179271697998
1782776142698770400,4.1257705078125,-0.3238506317138672,0.01940155029296875,-0.266198992729187
1782776142708780000,4.135780029296875,-0.48924827575683594,0.07872295379638672,-0.22164808213710785
1782776142718759400,4.145759521484375,-0.5651206970214844,0.15501070022583008,-0.1283251941204071
1782776142728769300,4.155769287109375,-0.4584980010986328,0.27539730072021484,0.011146396398544312
1782776142738779000,4.16577880859375,-0.24643611907958984,0.3283405303955078,0.15929538011550903
1782776142748758300,4.17575830078125,-0.10616588592529297,0.3526582717895508,0.32252371311187744
1782776142758768000,4.18576806640625,-0.079986572265625,0.3994598388671875,0.41684040427207947
1782776142768777700,4.19577783203125,-0.0931406021118164,0.3911452293395996,0.39571693539619446
1782776142778787600,4.20578759765625,-0.1341867446899414,0.3385181427001953,0.27608752250671387
1782776142788766700,4.2157666015625,-0.0819845199584961,0.30589866638183594,0.16487303376197815
1782776142798776300,4.2257763671875,0.08135318756103516,0.23611974716186523,0.13670651614665985
1782776142808786200,4.2357861328125,0.311370849609375,0.10729026794433594,0.26280906796455383
1782776142818765600,4.245765625,0.5212249755859375,-0.001117706298828125,0.32032138109207153
1782776142828775400,4.255775390625,0.8720626831054688,-0.01913928985595703,0.3777690827846527
1782776142838785000,4.265784912109375,1.1077642440795898,0.029541969299316406,0.25505584478378296
1782776142848764400,4.275764404296875,1.0257186889648438,0.13082075119018555,-0.1726803481578827
1782776142858774000,4.28577392578125,0.5967168807983398,0.13353633880615234,-0.35949936509132385
1782776142868783900,4.295783935546875,-0.04839801788330078,0.15320348739624023,-0.18283024430274963
1782776142878763300,4.30576318359375,-0.281005859375,0.3048715591430664,0.18342649936676025
1782776142888772900,4.31577294921875,0.3718223571777344,0.5794882774353027,0.8048304319381714
1782776142898782700,4.32578271484375,1.3108606338500977,0.5511207580566406,1.4866337776184082
1782776142908761900,4.335761962890625,2.1765708923339844,0.24456024169921875,1.842421054840088
1782776142918771700,4.345771728515625,2.841257095336914,-0.1512136459350586,1.8791214227676392
1782776142928781300,4.35578125,3.1162948608398438,-0.586918830871582,1.4445436000823975
1782776142938760700,4.3657607421875,3.0548534393310547,-0.9850101470947266,0.8688920140266418
1782776142948770600,4.3757705078125,2.496687889099121,-1.3044734001159668,0.28746330738067627
1782776142958780400,4.385780517578125,1.7484989166259766,-1.579712152481079,-0.16908037662506104
1782776142968759600,4.395759521484375,1.0090351104736328,-1.7593092918395996,-0.5040414333343506
1782776142978769400,4.405769287109375,0.33873558044433594,-1.8405792713165283,-0.7334890365600586
1782776142988779000,4.415779052734375,-0.41530609130859375,-1.811547040939331,-0.7977973222732544
1782776142998758400,4.42575830078125,-0.9918365478515625,-1.784519910812378,-0.7791630029678345
1782776143008768000,4.43576806640625,-1.5323619842529297,-1.777461051940918,-0.7278010845184326
1782776143018777900,4.44577783203125,-2.0009207725524902,-1.7035527229309082,-0.663663387298584
1782776143028787500,4.455787353515625,-2.262071132659912,-1.5859003067016602,-0.6514095664024353
1782776143038766800,4.465766845703125,-2.2760720252990723,-1.4791107177734375,-0.549967885017395
1782776143048776400,4.4757763671875,-2.173483371734619,-1.372649908065796,-0.38192880153656006
1782776143058786300,4.485786376953125,-2.024136543273926,-1.2801668643951416,-0.10793459415435791
1782776143068765700,4.495765625,-1.8336219787597656,-1.0976066589355469,0.2884253263473511
1782776143078775600,4.505775634765625,-1.631770133972168,-0.8664286136627197,0.7640517950057983
1782776143088785200,4.51578515625,-1.3308119773864746,-0.5829699039459229,1.1877961158752441
1782776143098764300,4.525764404296875,-0.9799885749816895,-0.34562253952026367,1.678144931793213
1782776143108774100,4.535774169921875,-0.6397943496704102,-0.10300874710083008,2.0900063514709473
1782776143118783700,4.54578369140625,-0.2415618896484375,0.013936042785644531,2.333538293838501
1782776143128763100,4.55576318359375,0.14236927032470703,-0.07541942596435547,2.1871891021728516
1782776143138773000,4.56577294921875,0.4879302978515625,-0.2998466491699219,1.6280207633972168
1782776143148782600,4.575782470703125,0.7114009857177734,-0.5359354019165039,0.9925974607467651
1782776143158762000,4.585761962890625,0.7857866287231445,-0.7373025417327881,0.35083746910095215
1782776143168771800,4.595771728515625,0.8106212615966797,-0.8900644779205322,-0.1986815333366394
1782776143178781400,4.605781494140625,0.6635093688964844,-0.9303874969482422,-0.4861683249473572
1782776143188760600,4.615760498046875,0.30644702911376953,-0.8471136093139648,-0.6857467889785767
1782776143198770400,4.6257705078125,-0.11076545715332031,-0.6345632076263428,-0.646278977394104
1782776143208780300,4.6357802734375,-0.5705251693725586,-0.3224153518676758,-0.3395656943321228
1782776143218759400,4.645759521484375,-0.9743528366088867,-0.04709124565124512,0.1029806137084961
1782776143228769300,4.655769287109375,-1.3688321113586426,0.21281194686889648,0.5095010995864868
1782776143238779000,4.66577880859375,-1.7652592658996582,0.44851088523864746,0.8642062544822693
1782776143248758300,4.67575830078125,-1.9909749031066895,0.5681092739105225,1.015923261642456
1782776143258768100,4.68576806640625,-2.132108688354492,0.6456658840179443,1.032308578491211
1782776143268777700,4.69577783203125,-2.015108108520508,0.6742124557495117,0.9881141185760498
1782776143278787600,4.70578759765625,-1.6647024154663086,0.6294534206390381,0.9514321684837341
1782776143288766700,4.7157666015625,-1.2291178703308105,0.5567739009857178,0.9014626145362854
1782776143298776600,4.725776611328125,-0.8675804138183594,0.5158200263977051,0.8836445212364197
1782776143308786200,4.7357861328125,-0.41653919219970703,0.43255090713500977,0.8048580884933472
1782776143318765600,4.745765625,-0.15196800231933594,0.30789947509765625,0.7220087647438049
1782776143328775400,4.755775390625,0.1446981430053711,0.2019197940826416,0.6161816716194153
1782776143338785000,4.765784912109375,0.23247623443603516,0.1696789264678955,0.5348235964775085
1782776143348764400,4.775764404296875,0.023847579956054688,0.16564631462097168,0.4369617700576782
1782776143358774300,4.785774169921875,-0.43502330780029297,0.2291271686553955,0.35066908597946167
1782776143368784000,4.795783935546875,-0.7828245162963867,0.4136393070220947,0.33221590518951416
1782776143378763000,4.805762939453125,-1.0849881172180176,0.5541903972625732,0.35680824518203735
1782776143388772900,4.81577294921875,-1.3320589065551758,0.5270001888275146,0.4035104513168335
1782776143398782700,4.82578271484375,-1.5578594207763672,0.47455286979675293,0.551201343536377
1782776143408761900,4.835761962890625,-1.600144863128662,0.513430118560791,0.8290790319442749
1782776143418771700,4.845771728515625,-1.5657625198364258,0.47951364517211914,1.0712225437164307
1782776143428781300,4.85578125,-1.5535078048706055,0.36643075942993164,1.1058862209320068
1782776143438760700,4.8657607421875,-1.172196388244629,0.22933006286621094,0.831552267074585
1782776143448770600,4.8757705078125,-0.27486610412597656,0.1380620002746582,0.6115509271621704
1782776143458780200,4.8857802734375,0.2822713851928711,0.013582229614257812,0.24670958518981934
1782776143468759600,4.895759521484375,0.4973106384277344,-0.05239677429199219,0.06596624851226807
1782776143478769400,4.905769287109375,0.48538970947265625,0.08095407485961914,0.004692673683166504
1782776143488779000,4.915779052734375,0.3539905548095703,0.16509580612182617,-0.019924640655517578
1782776143498758400,4.92575830078125,0.2848663330078125,0.1389784812927246,-0.06235402822494507
1782776143508768000,4.93576806640625,0.32999706268310547,0.16008472442626953,-0.019506633281707764
1782776143518777600,4.945777587890625,0.4172630310058594,0.25312328338623047,0.12673401832580566
1782776143528787500,4.955787353515625,0.5199880599975586,0.3922266960144043,0.07643532752990723
1782776143538766800,4.965766845703125,0.3435029983520508,0.6322641372680664,-0.2856671214103699
1782776143548776700,4.975776611328125,0.05036640167236328,0.6066675186157227,-0.7201799154281616
1782776143558786300,4.985786376953125,-0.10530281066894531,0.6048579216003418,-0.8451516032218933
1782776143568765700,4.995765625,0.10646629333496094,0.6765637397766113,-0.8764171004295349
1782776143578775300,5.005775390625,1.1490354537963867,0.7178516387939453,-0.6810254454612732
1782776143588785200,5.01578515625,2.446331024169922,0.4546833038330078,0.04190072417259216
1782776143598764300,5.025764404296875,3.57279109954834,0.14403438568115234,0.9081668853759766
1782776143608774000,5.03577392578125,4.375409126281738,-0.023908615112304688,1.3178284168243408
1782776143618783700,5.04578369140625,4.843183517456055,-0.1866297721862793,1.267181634902954
1782776143628763100,5.05576318359375,4.7936811447143555,-0.43134570121765137,1.114952564239502
1782776143638772700,5.065772705078125,4.228462219238281,-0.7683684825897217,0.8287294507026672
1782776143648782600,5.075782470703125,3.2589149475097656,-1.0365760326385498,0.38292086124420166
1782776143658762000,5.085761962890625,2.0616302490234375,-1.2493033409118652,-0.050890982151031494
1782776143668771800,5.095771728515625,0.8667106628417969,-1.4417564868927002,-0.5702633261680603
1782776143678781400,5.105781494140625,-0.21027278900146484,-1.5295016765594482,-0.9890570640563965
1782776143688760600,5.115760498046875,-1.1183671951293945,-1.5385026931762695,-1.2675492763519287
1782776143698770400,5.1257705078125,-1.8211283683776855,-1.5091502666473389,-1.4138708114624023
1782776143708780000,5.135780029296875,-2.2373013496398926,-1.375931739807129,-1.4005484580993652
1782776143718759400,5.145759521484375,-2.5804200172424316,-1.1187849044799805,-1.1667335033416748
1782776143728769300,5.155769287109375,-2.545137405395508,-0.9485547542572021,-0.9630008935928345
1782776143738779000,5.16577880859375,-2.3330087661743164,-0.9202022552490234,-0.7130469083786011
1782776143748758300,5.17575830078125,-2.0067296028137207,-1.0521368980407715,-0.50335693359375
1782776143758768000,5.18576806640625,-1.7415761947631836,-1.137225866317749,-0.3532754182815552
1782776143768718000,5.195718017578125,-1.3778071403503418,-1.2119810581207275,-0.2227342575788498
1782776143778819300,5.2058193359375,-0.9016809463500977,-1.2315547466278076,-0.019564256072044373
1782776143789896400,5.216896484375,-0.24668598175048828,-1.1727485656738281,0.38940364122390747
1782776143808786200,5.2357861328125,1.2121906280517578,-1.10068941116333,0.8342058062553406
1782776143818765600,5.245765625,2.025038719177246,-1.064993143081665,0.9984862804412842
1782776143828775200,5.255775146484375,2.616739273071289,-1.069960594177246,1.0813443660736084
1782776143838815500,5.2658154296875,2.782896041870117,-1.1781976222991943,0.90160071849823
1782776143848764400,5.275764404296875,2.585635185241699,-1.3137929439544678,0.5832691192626953
1782776143858774300,5.285774169921875,2.070117950439453,-1.507732629776001,0.1933690309524536
1782776143868783900,5.295783935546875,1.3456459045410156,-1.5522747039794922,-0.07771193981170654
1782776143878763300,5.30576318359375,0.5342826843261719,-1.427907943725586,-0.016699671745300293
1782776143888772900,5.31577294921875,-0.18614768981933594,-1.1985321044921875,0.15177184343338013
1782776143898782700,5.32578271484375,-0.7089128494262695,-1.016294240951538,0.3882659077644348
1782776143908761900,5.335761962890625,-1.1157960891723633,-0.8148136138916016,0.5577929615974426
1782776143918771500,5.345771484375,-1.4431815147399902,-0.7169647216796875,0.6729075908660889
1782776143928781300,5.35578125,-1.7768311500549316,-0.6577286720275879,0.6967851519584656
1782776143938760700,5.3657607421875,-2.033395290374756,-0.6403636932373047,0.5274681448936462
1782776143948770600,5.3757705078125,-2.0552868843078613,-0.6948847770690918,0.4149254560470581
1782776143958780200,5.3857802734375,-1.8881468772888184,-0.7249808311462402,0.38077789545059204
1782776143968759600,5.395759521484375,-1.4192914962768555,-0.7359435558319092,0.32356011867523193
1782776143978769400,5.405769287109375,-0.8477535247802734,-0.7724661827087402,0.2407855987548828
1782776143988779000,5.415779052734375,-0.3000783920288086,-0.7832529544830322,0.15446048974990845
1782776143998758400,5.42575830078125,0.03288555145263672,-0.7469069957733154,0.16223132610321045
1782776144008768000,5.43576806640625,0.233673095703125,-0.700031042098999,0.12408286333084106
1782776144018777900,5.44577783203125,0.3701601028442383,-0.6233184337615967,0.14585518836975098
1782776144028787500,5.455787353515625,0.3232736587524414,-0.5516266822814941,0.2166483998298645
1782776144038766800,5.465766845703125,0.13428020477294922,-0.49604129791259766,0.1762942671775818
1782776144048776400,5.4757763671875,-0.09377288818359375,-0.3069949150085449,-0.0423547625541687
1782776144058786300,5.485786376953125,-0.13292407989501953,-0.15190792083740234,0.020358741283416748
1782776144068765700,5.495765625,-0.09257125854492188,-0.018504619598388672,0.19414138793945312
1782776144078775600,5.505775634765625,0.146636962890625,0.14972186088562012,0.39062440395355225
1782776144088785200,5.51578515625,0.31838035583496094,0.27994394302368164,0.5105936527252197
1782776144098764300,5.525764404296875,0.4899587631225586,0.3411405086517334,0.4907829761505127
1782776144108774100,5.535774169921875,0.6304864883422852,0.31151342391967773,0.44289708137512207
1782776144118783700,5.54578369140625,0.7725610733032227,0.3122832775115967,0.37615835666656494
1782776144128763100,5.55576318359375,1.019230842590332,0.31450438499450684,0.3278939723968506
1782776144138773000,5.56577294921875,1.199197769165039,0.2694106101989746,0.39732325077056885
1782776144148782600,5.575782470703125,1.1105175018310547,0.2548084259033203,0.43995726108551025
1782776144158762000,5.585761962890625,0.8626260757446289,0.20042848587036133,0.37527918815612793
1782776144168771800,5.595771728515625,0.5757055282592773,0.129364013671875,0.3160526752471924
1782776144178781400,5.605781494140625,0.3183259963989258,0.11673402786254883,0.28649377822875977
1782776144188760600,5.615760498046875,0.19243526458740234,0.08197402954101562,0.3644675016403198
1782776144198770400,5.6257705078125,0.1084299087524414,0.08014750480651855,0.5317128896713257
1782776144208780000,5.635780029296875,0.14436721801757812,0.14890074729919434,0.39335548877716064
1782776144218759400,5.645759521484375,0.22725296020507812,0.31729722023010254,0.06795859336853027
1782776144228769300,5.655769287109375,0.08450126647949219,0.2892770767211914,-0.25937747955322266
1782776144238779000,5.66577880859375,-0.2906990051269531,0.0453946590423584,-0.2062056064605713
1782776144248758300,5.67575830078125,-0.4277181625366211,0.09400820732116699,0.015817999839782715
1782776144258768100,5.68576806640625,-0.33244800567626953,0.2823450565338135,0.29930973052978516
1782776144268778000,5.695778076171875,-0.13632488250732422,0.40526771545410156,0.8182522058486938
1782776144278787600,5.70578759765625,0.134246826171875,0.4201390743255615,1.4144725799560547
1782776144288766700,5.7157666015625,0.5621795654296875,0.4555535316467285,1.5826995372772217
1782776144298776300,5.7257763671875,1.2614517211914062,0.32337093353271484,1.6479755640029907
1782776144308786200,5.7357861328125,1.9217538833618164,0.07996344566345215,1.6405354738235474
1782776144318765600,5.745765625,2.4473037719726562,-0.13610243797302246,1.4824156761169434
1782776144328775200,5.755775146484375,2.7090721130371094,-0.4341723918914795,1.0171011686325073
1782776144338785000,5.765784912109375,2.600287437438965,-0.7168734073638916,0.3572803735733032
1782776144348764400,5.775764404296875,2.1707582473754883,-0.9578824043273926,-0.20677804946899414
1782776144358774000,5.78577392578125,1.528304100036621,-1.1225104331970215,-0.6653735637664795
1782776144368784000,5.795783935546875,0.9257125854492188,-1.118415355682373,-0.9287378191947937
1782776144378763300,5.80576318359375,0.34462928771972656,-1.0268754959106445,-0.9466851949691772
1782776144388772900,5.81577294921875,-0.3156890869140625,-0.8251259326934814,-0.7084825038909912
1782776144398782700,5.82578271484375,-0.8643045425415039,-0.6044309139251709,-0.34858274459838867
1782776144408761900,5.835761962890625,-1.2708067893981934,-0.49596333503723145,-0.10295236110687256
1782776144418771700,5.845771728515625,-1.6028857231140137,-0.44976806640625,0.0632777214050293
1782776144428781300,5.85578125,-1.7509937286376953,-0.4417383670806885,0.14410555362701416
1782776144438760700,5.8657607421875,-1.8166394233703613,-0.39417457580566406,0.2358914613723755
1782776144448770600,5.8757705078125,-1.7787528038024902,-0.3244760036468506,0.5075598955154419
1782776144458780200,5.8857802734375,-1.6214776039123535,-0.23040151596069336,0.8565999269485474
1782776144468759600,5.895759521484375,-1.2785730361938477,-0.22221827507019043,1.1965813636779785
1782776144478769400,5.905769287109375,-0.9020929336547852,-0.22416067123413086,1.3637299537658691
1782776144488779000,5.915779052734375,-0.4955005645751953,-0.3125309944152832,1.3395427465438843
1782776144498758400,5.92575830078125,-0.1698904037475586,-0.40392518043518066,1.2641271352767944
1782776144508768000,5.93576806640625,0.13438129425048828,-0.5717482566833496,0.8734763860702515
1782776144518777600,5.945777587890625,0.3481884002685547,-0.7747275829315186,0.3347240686416626
1782776144528787500,5.955787353515625,0.340911865234375,-0.9295365810394287,-0.18203222751617432
1782776144538766800,5.965766845703125,0.10961723327636719,-0.9686727523803711,-0.5103726387023926
1782776144548776400,5.9757763671875,-0.2573823928833008,-0.9224934577941895,-0.7326564788818359
1782776144558786300,5.985786376953125,-0.5406303405761719,-0.910362958908081,-0.9947865605354309
1782776144568765700,5.995765625,-0.8710794448852539,-0.8795797824859619,-1.1789706945419312
1782776144578775300,6.005775390625,-1.1749720573425293,-0.7423610687255859,-1.1917129755020142
1782776144588785200,6.01578515625,-1.5089154243469238,-0.5403316020965576,-1.0442630052566528
1782776144598764300,6.025764404296875,-1.7922964096069336,-0.2948577404022217,-0.7063818573951721
1782776144608774000,6.03577392578125,-1.9662456512451172,-0.013045549392700195,-0.30206620693206787
1782776144618783700,6.04578369140625,-1.9526662826538086,0.24531912803649902,0.08723819255828857
1782776144628763100,6.05576318359375,-1.8623371124267578,0.37880945205688477,0.27997076511383057
1782776144638773000,6.06577294921875,-1.7632818222045898,0.4126436710357666,0.3413546085357666
1782776144648782600,6.075782470703125,-1.6085395812988281,0.4102959632873535,0.36260855197906494
1782776144658762000,6.085761962890625,-1.4536633491516113,0.3916802406311035,0.3375614881515503
1782776144668771800,6.095771728515625,-1.136061668395996,0.38101649284362793,0.3505401611328125
1782776144678781400,6.105781494140625,-0.7468538284301758,0.31647253036499023,0.37023115158081055
1782776144688760600,6.115760498046875,-0.46067333221435547,0.28783607482910156,0.34351205825805664
1782776144698770400,6.1257705078125,-0.13107585906982422,0.20955109596252441,0.16917777061462402
1782776144708780000,6.135780029296875,0.2084941864013672,0.06672024726867676,-0.1565457582473755
1782776144718759400,6.145759521484375,0.4678030014038086,-0.027364015579223633,-0.49290013313293457
1782776144728769300,6.155769287109375,0.6548805236816406,-0.0962069034576416,-0.8139294385910034
1782776144738779100,6.165779052734375,0.6465272903442383,-0.08484768867492676,-0.9732210040092468
1782776144748758300,6.17575830078125,0.561182975769043,0.013963937759399414,-1.0058274269104004
1782776144758768000,6.18576806640625,0.5742406845092773,0.09911680221557617,-0.9887009859085083
1782776144768777700,6.19577783203125,0.6040239334106445,0.12669992446899414,-0.9719600081443787
1782776144778787600,6.20578759765625,0.6166086196899414,0.1696484088897705,-0.9175243377685547
1782776144788766700,6.2157666015625,0.7073249816894531,0.2404029369354248,-0.888206958770752
1782776144798776300,6.2257763671875,1.038142204284668,0.3339078426361084,-0.6275665163993835
1782776144808786200,6.2357861328125,1.3552093505859375,0.3353736400604248,-0.5736348628997803
1782776144818765600,6.245765625,1.4315690994262695,0.26029157638549805,-0.707275390625
1782776144828775400,6.255775390625,1.3350000381469727,0.19941425323486328,-0.8155339360237122
1782776144838785000,6.265784912109375,1.212021827697754,0.13996481895446777,-0.9088045954704285
1782776144848764400,6.275764404296875,1.0503110885620117,0.12658452987670898,-0.9838805198669434
1782776144858774300,6.285774169921875,1.0138206481933594,0.18593072891235352,-1.2927712202072144
1782776144868783900,6.295783935546875,0.8666572570800781,0.5473780632019043,-2.0608267784118652
1782776144878763300,6.30576318359375,0.41829586029052734,0.609158992767334,-2.7301487922668457
1782776144888772900,6.31577294921875,-0.3674755096435547,0.12189865112304688,-3.0050408840179443
1782776144898782700,6.32578271484375,-0.972935676574707,-0.12427592277526855,-2.668203592300415
1782776144908761900,6.335761962890625,-1.2632784843444824,-0.2085280418395996,-2.135570526123047
1782776144918771500,6.345771484375,-1.0495047569274902,-0.1837174892425537,-1.176167368888855
1782776144928781300,6.35578125,-0.4862222671508789,-0.2139723300933838,-0.3410157859325409
1782776144938760700,6.3657607421875,0.34650611877441406,-0.25490617752075195,0.19048380851745605
1782776144948770600,6.3757705078125,1.3408880233764648,-0.35372209548950195,0.36810779571533203
1782776144958780200,6.3857802734375,2.068004608154297,-0.5316472053527832,0.3162277936935425
1782776144968759600,6.395759521484375,2.4213171005249023,-0.9000804424285889,-0.06178569793701172
1782776144978769400,6.405769287109375,2.2668933868408203,-1.2513773441314697,-0.6037167310714722
1782776144988779300,6.415779296875,1.6401910781860352,-1.6640119552612305,-1.1531221866607666
1782776144998758400,6.42575830078125,1.0703411102294922,-1.9647808074951172,-1.6154245138168335
1782776145008768000,6.43576806640625,0.5267667770385742,-2.2150533199310303,-2.1140785217285156
1782776145018777900,6.44577783203125,0.035210609436035156,-2.3645100593566895,-2.415029525756836
1782776145028787500,6.455787353515625,-0.26602935791015625,-2.2619142532348633,-2.3914597034454346
1782776145038766800,6.465766845703125,-0.5021953582763672,-2.0750694274902344,-2.2345340251922607
1782776145048776700,6.475776611328125,-0.7109689712524414,-1.8918747901916504,-2.1096956729888916
1782776145058786300,6.485786376953125,-0.8201007843017578,-1.7326565980911255,-2.127345561981201
1782776145068765700,6.495765625,-0.8583774566650391,-1.5736985206604004,-2.2168588638305664
1782776145078775600,6.505775634765625,-0.8070268630981445,-1.4669804573059082,-2.267310857772827
1782776145088785200,6.51578515625,-0.7906303405761719,-1.3766899108886719,-2.3030526638031006
1782776145098764300,6.525764404296875,-0.9410791397094727,-1.3168020248413086,-2.174057960510254
1782776145108774100,6.535774169921875,-1.1077179908752441,-1.2461984157562256,-1.7874219417572021
1782776145118783700,6.54578369140625,-1.4733633995056152,-1.1842503547668457,-1.4089341163635254
1782776145128763100,6.55576318359375,-1.7408976554870605,-1.2119414806365967,-0.9794176816940308
1782776145138773000,6.56577294921875,-1.5806756019592285,-1.2212803363800049,-0.5786644220352173
1782776145148782600,6.575782470703125,-0.9927635192871094,-1.1922228336334229,-0.19828049838542938
1782776145158762000,6.585761962890625,-0.06193733215332031,-1.1850628852844238,-0.011236995458602905
1782776145168771800,6.595771728515625,0.8870506286621094,-1.2212462425231934,-0.011011958122253418
1782776145178781400,6.605781494140625,1.7055301666259766,-1.3493225574493408,-0.29163798689842224
1782776145188760600,6.615760498046875,2.249894142150879,-1.4797189235687256,-0.5914013981819153
1782776145198770400,6.6257705078125,2.6114187240600586,-1.643195390701294,-0.9282405376434326
1782776145208780000,6.635780029296875,2.5701913833618164,-1.6966197490692139,-1.1619466543197632
1782776145218759400,6.645759521484375,2.1201324462890625,-1.725456953048706,-1.4506486654281616
1782776145228769300,6.655769287109375,1.3991718292236328,-1.6417782306671143,-1.5567069053649902
1782776145238779000,6.66577880859375,0.71234130859375,-1.5335752964019775,-1.4220185279846191
1782776145248758300,6.67575830078125,0.23288440704345703,-1.314319372177124,-1.1839702129364014
1782776145258768100,6.68576806640625,-0.09127521514892578,-1.1156506538391113,-0.9605216979980469
1782776145268777700,6.69577783203125,-0.3186626434326172,-0.9556190967559814,-0.7518851161003113
1782776145278787600,6.70578759765625,-0.4498023986816406,-0.8365416526794434,-0.6559391021728516
1782776145288766700,6.7157666015625,-0.43088340759277344,-0.8086709976196289,-0.6808395385742188
1782776145298776300,6.7257763671875,-0.3696727752685547,-0.8168160915374756,-0.7890170812606812
1782776145308786200,6.7357861328125,-0.34783363342285156,-0.43758511543273926,-0.5408625602722168
1782776145318765600,6.745765625,-0.28750133514404297,-0.2297348976135254,-0.4500419497489929
1782776145328775200,6.755775146484375,-0.17961883544921875,-0.27670884132385254,-0.6424842476844788
1782776145338725400,6.765725341796875,0.020647048950195312,-0.24151206016540527,-0.7335303425788879
1782776145349705500,6.77670556640625,0.22454833984375,-0.16203641891479492,-0.6357607841491699
1782776145368784000,6.795783935546875,0.5878353118896484,0.1251850128173828,-0.14841356873512268
1782776145378703400,6.805703369140625,0.8685483932495117,0.2576606273651123,0.17542526125907898
1782776145389485300,6.8164853515625,1.1229543685913086,0.2728595733642578,0.2897951006889343
1782776145408761900,6.835761962890625,0.8473262786865234,0.008094072341918945,0.17667916417121887
1782776145418771700,6.845771728515625,0.4356040954589844,-0.0038428306579589844,0.08010289072990417
1782776145428781300,6.85578125,0.3253183364868164,-0.017376422882080078,0.1406576931476593
1782776145438760700,6.8657607421875,0.24869537353515625,-0.07756805419921875,0.202690988779068
1782776145448770600,6.8757705078125,0.18631362915039062,-0.015517950057983398,0.2975614666938782
1782776145458780200,6.8857802734375,0.19082069396972656,0.06597566604614258,0.48321956396102905
1782776145468759600,6.895759521484375,0.2549886703491211,0.09471678733825684,0.7041234374046326
1782776145478709500,6.90570947265625,0.23084068298339844,0.16989564895629883,0.8404704928398132
1782776145488840000,6.91583984375,0.060746192932128906,0.2277233600616455,0.7397503852844238
1782776145498688800,6.925688720703125,-0.22012615203857422,0.23780608177185059,0.7437326908111572
1782776145510164700,6.937164794921875,-0.4429922103881836,0.23931169509887695,0.6367244720458984
1782776145528787500,6.955787353515625,-0.4285850524902344,0.10515642166137695,0.10627886652946472
1782776145538766800,6.965766845703125,-0.4486246109008789,0.32366204261779785,-0.13048851490020752
1782776145548776400,6.9757763671875,-0.5195198059082031,0.36551523208618164,-0.198298841714859
1782776145558786300,6.985786376953125,-0.6483802795410156,0.16530656814575195,0.11662892997264862
1782776145568705800,6.995705810546875,-0.4327974319458008,0.16286325454711914,0.520944356918335
1782776145578836500,7.00583642578125,0.20351505279541016,0.31609392166137695,0.8530836701393127
1782776145588785200,7.01578515625,0.919032096862793,0.3422820568084717,1.120806097984314
1782776145598704600,7.02570458984375,1.4942150115966797,0.1821727752685547,1.3140469789505005
1782776145608835000,7.0358349609375,1.7009057998657227,-0.08037161827087402,1.1183501482009888
1782776145618783700,7.04578369140625,1.5759105682373047,-0.38137006759643555,0.7698816061019897
1782776145628763100,7.05576318359375,1.1147079467773438,-0.6628139019012451,0.3742636442184448
1782776145638772700,7.065772705078125,0.5730876922607422,-0.8259415626525879,0.16564378142356873
1782776145648782600,7.075782470703125,0.005269050598144531,-0.9570338726043701,0.06467333436012268
1782776145658762000,7.085761962890625,-0.4227132797241211,-1.0366382598876953,0.013316422700881958
1782776145668771800,7.095771728515625,-0.7990398406982422,-0.9912827014923096,0.030898183584213257
1782776145678781400,7.105781494140625,-1.2070951461791992,-0.9408061504364014,0.15243786573410034
1782776145688701000,7.115700927734375,-1.5909600257873535,-0.9088790416717529,0.17106744647026062
1782776145698831600,7.12583154296875,-1.9100728034973145,-0.9094223976135254,0.06355753540992737
1782776145708780000,7.135780029296875,-2.073543071746826,-0.8675365447998047,-0.06910490989685059
1782776145718759400,7.145759521484375,-2.1496782302856445,-0.8633685111999512,-0.13861602544784546
1782776145728769300,7.155769287109375,-2.0858988761901855,-0.8797433376312256,-0.14946836233139038
1782776145738779000,7.16577880859375,-1.8060908317565918,-0.8744125366210938,-0.2742615342140198
1782776145748758300,7.17575830078125,-1.4014649391174316,-0.8705043792724609,-0.3669597804546356
1782776145758708500,7.18570849609375,-0.8816719055175781,-0.8080978393554688,-0.17421278357505798
1782776145768839000,7.1958388671875,-0.47567081451416016,-0.6941823959350586,-0.09269607067108154
1782776145778787600,7.20578759765625,-0.19871234893798828,-0.5561144351959229,0.02301841974258423
1782776145789847800,7.216847900390625,0.05298614501953125,-0.382122278213501,0.1292535662651062
1782776145808786200,7.2357861328125,0.4958629608154297,-0.5834252834320068,-0.36837536096572876
1782776145818765600,7.245765625,0.7071266174316406,-0.7485063076019287,-0.5323073863983154
1782776145828775400,7.255775390625,0.9076919555664062,-0.7538959980010986,-0.5914645195007324
1782776145838785000,7.265784912109375,0.5221319198608398,-0.7761080265045166,-0.5382001399993896
1782776145848764400,7.275764404296875,-0.2729072570800781,-0.844334602355957,-0.46116650104522705
1782776145858774000,7.28577392578125,-0.7206439971923828,-1.0024187564849854,-0.5366408824920654
1782776145868783900,7.295783935546875,-1.4039592742919922,-1.1709535121917725,-0.40500277280807495
1782776145878763300,7.30576318359375,-1.7634711265563965,-1.1438117027282715,0.015584826469421387
1782776145888772900,7.31577294921875,-1.7654404640197754,-0.9090535640716553,0.7655642032623291
1782776145898782700,7.32578271484375,-1.6089072227478027,-0.6283135414123535,1.4756683111190796
1782776145908761900,7.335761962890625,-1.26704740524292,-0.34702301025390625,1.887699842453003
1782776145918771700,7.345771728515625,-0.8401303291320801,-0.1537947654724121,1.9440810680389404
1782776145928781300,7.35578125,-0.45856189727783203,0.03241539001464844,1.897845983505249
1782776145938760700,7.3657607421875,-0.22696399688720703,0.16384553909301758,1.9708657264709473
1782776145948770600,7.3757705078125,-0.3381919860839844,0.11035442352294922,1.7862578630447388
1782776145958780400,7.385780517578125,-0.6056404113769531,0.025612354278564453,1.446176528930664
1782776145968759600,7.395759521484375,-0.795598030090332,-0.08916282653808594,1.0598580837249756
1782776145978769400,7.405769287109375,-0.7147822380065918,-0.1954512596130371,0.7649545669555664
1782776145988779000,7.415779052734375,-0.4349784851074219,-0.2886319160461426,0.5387893915176392
1782776145998758400,7.42575830078125,-0.0654001235961914,-0.3042416572570801,0.5595431327819824
1782776146008768000,7.43576806640625,0.1627206802368164,-0.25817108154296875,0.6424040794372559
1782776146018777600,7.445777587890625,0.4608306884765625,-0.2359919548034668,0.659583568572998
1782776146028787500,7.455787353515625,0.7690525054931641,-0.19973993301391602,0.7492603063583374
1782776146038766800,7.465766845703125,1.0016794204711914,-0.1588573455810547,0.8844777345657349
1782776146048776400,7.4757763671875,1.274622917175293,-0.12514543533325195,0.927297830581665
1782776146058786300,7.485786376953125,1.560450553894043,-0.12686395645141602,0.8851355314254761
1782776146068765700,7.495765625,1.8043794631958008,-0.18981146812438965,0.6912256479263306
1782776146078775600,7.505775634765625,2.240995407104492,-0.2204899787902832,0.6851104497909546
1782776146088785200,7.51578515625,2.405154228210449,-0.2014026641845703,0.8115242719650269
1782776146098764300,7.525764404296875,2.137749671936035,-0.2146453857421875,0.8554434776306152
1782776146108774100,7.535774169921875,1.54364013671875,-0.2615621089935303,0.7059962749481201
1782776146118783700,7.54578369140625,1.0316524505615234,-0.2854273319244385,0.4015690088272095
1782776146128763100,7.55576318359375,0.7368927001953125,-0.43412351608276367,0.006810426712036133
1782776146138773000,7.56577294921875,0.6106901168823242,-0.48605847358703613,-0.04244530200958252
1782776146148782600,7.575782470703125,0.8365802764892578,-0.3642864227294922,0.029031991958618164
1782776146158762000,7.585761962890625,1.0459327697753906,-0.2356736660003662,0.021671593189239502
1782776146168771800,7.595771728515625,1.0647602081298828,-0.1891016960144043,-0.10238289833068848
1782776146178781400,7.605781494140625,0.8340816497802734,-0.26079440116882324,-0.25872546434402466
1782776146188760600,7.615760498046875,0.5082130432128906,-0.33541274070739746,-0.39202970266342163
1782776146198770400,7.6257705078125,0.04623699188232422,-0.3455994129180908,-0.45697399973869324
1782776146208780000,7.635780029296875,-0.49234580993652344,-0.38317251205444336,-0.30068573355674744
1782776146218759400,7.645759521484375,-0.6378345489501953,-0.42946648597717285,0.0023720264434814453
1782776146228769300,7.655769287109375,-0.3893251419067383,-0.5086817741394043,0.20310848951339722
1782776146238779000,7.66577880859375,0.1590280532836914,-0.7473547458648682,0.4125922918319702
1782776146248758300,7.67575830078125,0.6653642654418945,-0.962477445602417,0.5803147554397583
1782776146258768100,7.68576806640625,0.9289560317993164,-1.1850244998931885,0.5885016322135925
1782776146268778000,7.695778076171875,1.013096809387207,-1.4511336088180542,0.24306881427764893
1782776146278787600,7.70578759765625,0.8199939727783203,-1.788582682609558,-0.18555063009262085
1782776146288766700,7.7157666015625,0.2879962921142578,-2.0746095180511475,-0.5583534836769104
1782776146298776600,7.725776611328125,-0.5032176971435547,-2.2646069526672363,-0.8605228662490845
1782776146308786200,7.7357861328125,-1.230229377746582,-2.3614675998687744,-1.1777852773666382
1782776146318765600,7.745765625,-1.9689421653747559,-2.3689608573913574,-1.3796000480651855
1782776146328775200,7.755775146484375,-2.499697685241699,-2.256361961364746,-1.5536423921585083
1782776146338785000,7.765784912109375,-2.897592544555664,-2.0478110313415527,-1.6227155923843384
1782776146348764400,7.775764404296875,-3.297111988067627,-1.8240264654159546,-1.5861366987228394
1782776146358774300,7.785774169921875,-3.658186912536621,-1.5646213293075562,-1.4830821752548218
1782776146368784000,7.795783935546875,-3.8069682121276855,-1.4017159938812256,-1.2759251594543457
1782776146378763300,7.80576318359375,-3.8165125846862793,-1.2348618507385254,-0.7983481884002686
1782776146388772900,7.81577294921875,-3.6828479766845703,-1.0868964195251465,-0.2851748466491699
1782776146398782700,7.82578271484375,-3.4574174880981445,-1.051957607269287,0.0720406174659729
1782776146408761900,7.835761962890625,-2.789184093475342,-1.1074295043945312,0.24743330478668213
1782776146418771700,7.845771728515625,-1.6932792663574219,-1.1786327362060547,0.3627772927284241
1782776146428781300,7.85578125,-0.36862850189208984,-1.220156192779541,0.5697338581085205
1782776146438760700,7.8657607421875,1.040165901184082,-1.2221856117248535,0.7691658735275269
1782776146448770600,7.8757705078125,2.2213516235351562,-1.3036481142044067,0.802112340927124
1782776146458780200,7.8857802734375,3.211000442504883,-1.3337959051132202,0.6486948728561401
1782776146468759600,7.895759521484375,3.993678092956543,-1.3768739700317383,0.3588886857032776
1782776146478769400,7.905769287109375,4.208977699279785,-1.5272226333618164,-0.1050906851887703
1782776146488779000,7.915779052734375,4.055248260498047,-1.689563274383545,-0.7073081135749817
1782776146498758100,7.925758056640625,3.678638458251953,-1.7964955568313599,-1.166261911392212
1782776146508768000,7.93576806640625,3.3804101943969727,-1.72333562374115,-1.367618203163147
1782776146518777600,7.945777587890625,3.174671173095703,-1.536789894104004,-1.1325774192810059
1782776146528787500,7.955787353515625,3.0206422805786133,-1.3087575435638428,-0.8291388154029846
1782776146538774000,7.96577392578125,2.966599464416504,-1.1007801294326782,-0.509412944316864
1782776146548696300,7.9756962890625,2.847764015197754,-0.9505913257598877,-0.24929478764533997
1782776146558706200,7.9857060546875,2.7075796127319336,-0.7878140211105347,-0.09636238217353821
1782776146568685600,7.995685546875,2.3901710510253906,-0.6570963859558105,0.009183642454445362
1782776146578695200,8.005695068359374,2.0341577529907227,-0.5384120941162109,0.01731054298579693
1782776146588705000,8.015705078125,1.6317644119262695,-0.48000121116638184,-0.020034048706293106
1782776146598684400,8.025684326171875,1.2494421005249023,-0.3936896324157715,-0.09834463894367218
1782776146608694000,8.035694091796875,0.8867349624633789,-0.33539462089538574,-0.176762193441391
1782776146618704000,8.045703857421875,0.6822137832641602,-0.2944948673248291,-0.23284970223903656
1782776146628683000,8.05568310546875,0.5301294326782227,-0.24554014205932617,-0.3363759219646454
1782776146638692900,8.06569287109375,0.5310401916503906,-0.236375093460083,-0.431054949760437
1782776146648702500,8.075702392578124,0.539189338684082,-0.22964048385620117,-0.4658142626285553
1782776146658681900,8.085681884765625,0.38246726989746094,-0.149627685546875,-0.4580613076686859
1782776146668691500,8.09569140625,0.10792064666748047,-0.008483171463012695,-0.3382907509803772
1782776146678701300,8.105701416015625,-0.3067131042480469,0.16817426681518555,-0.2506695091724396
1782776146688680700,8.1156806640625,-0.6842689514160156,0.3131592273712158,-0.21261705458164215
1782776146698690600,8.125690673828124,-0.985137939453125,0.3864474296569824,-0.12233313173055649
1782776146708700200,8.1357001953125,-1.2732200622558594,0.4453897476196289,-0.09410370886325836
1782776146718679600,8.145679443359375,-1.4453926086425781,0.41444826126098633,-0.1387820839881897
1782776146728689200,8.155689208984375,-1.4836883544921875,0.39505481719970703,-0.27137723565101624
1782776146738699000,8.165698974609375,-1.4484920501708984,0.37680816650390625,-0.4167388081550598
1782776146748678400,8.175678466796874,-1.5069365501403809,0.24706101417541504,-0.6603339910507202
1782776146758688000,8.18568798828125,-1.607450008392334,0.21293139457702637,-0.8145125508308411
1782776146768697600,8.195697509765624,-1.6005663871765137,0.21645140647888184,-0.7518865466117859
1782776146778707500,8.20570751953125,-1.4929914474487305,0.26906466484069824,-0.5964218378067017
1782776146788686800,8.215686767578125,-1.2179956436157227,0.3678581714630127,-0.3381039798259735
1782776146798696400,8.225696533203125,-0.7683820724487305,0.44609951972961426,-0.060843326151371
1782776146808706300,8.235706298828125,-0.3593454360961914,0.44344091415405273,0.15513181686401367
1782776146818685700,8.245685791015624,-0.17973613739013672,0.4190480709075928,0.24486865103244781
1782776146828695600,8.255695556640624,-0.12430572509765625,0.4209427833557129,0.2450329065322876
1782776146838705200,8.265705078125,-0.04753303527832031,0.4146273136138916,0.1763751059770584
1782776146848684300,8.275684326171875,0.040294647216796875,0.36141252517700195,0.08675472438335419
1782776146858694000,8.28569384765625,0.19866180419921875,0.3269004821777344,-0.014364123344421387
1782776146868703700,8.295703857421875,0.32938385009765625,0.31569957733154297,-0.30885156989097595
1782776146878683100,8.30568310546875,0.3082866668701172,0.4029672145843506,-0.6749812364578247
1782776146888692700,8.315692626953124,0.17404460906982422,0.5084586143493652,-0.9822086095809937
1782776146898702600,8.32570263671875,-0.18136882781982422,0.41523146629333496,-1.0877180099487305
1782776146908682000,8.335681884765625,-0.502223014831543,0.3402063846588135,-0.8194314241409302
1782776146918691600,8.345691650390625,-0.4414682388305664,0.370863676071167,-0.3857536315917969
1782776146928701400,8.355701416015625,0.04125785827636719,0.4089179039001465,0.14806431531906128
1782776146938680800,8.365680908203124,0.7975454330444336,0.3355588912963867,0.7228103280067444
1782776146948690400,8.3756904296875,1.391648292541504,0.19465303421020508,1.063323974609375
1782776146958700000,8.385699951171874,1.7871341705322266,0.03139305114746094,0.9652433395385742
1782776146968679400,8.395679443359375,2.041940689086914,-0.21233749389648438,0.5511285066604614
1782776146978689300,8.405689208984375,2.0150556564331055,-0.4360237121582031,0.1592807173728943
1782776146988699000,8.415698974609375,1.4908599853515625,-0.7294584512710571,-0.267709344625473
1782776146998678300,8.42567822265625,0.9266643524169922,-0.8545944690704346,-0.62127286195755
1782776147008688000,8.435688232421874,0.5374689102172852,-0.8305749893188477,-0.8333090543746948
1782776147018697700,8.44569775390625,0.39473533630371094,-0.8196687698364258,-0.6947418451309204
1782776147028707600,8.45570751953125,0.5250835418701172,-0.7301510572433472,-0.3781754970550537
1782776147038342000,8.465341796875,0.6897859573364258,-0.584907054901123,0.1154373288154602
1782776147048696300,8.4756962890625,0.9185552597045898,-0.46848464012145996,0.6080557107925415
1782776147058706200,8.4857060546875,1.1496305465698242,-0.4427473545074463,1.0087389945983887
1782776147068685600,8.495685546875,1.2016096115112305,-0.46439504623413086,1.382369875907898
1782776147078695400,8.5056953125,1.1034183502197266,-0.5371181964874268,1.6459031105041504
1782776147088705000,8.515705078125,0.8930692672729492,-0.5144839286804199,1.7965588569641113
1782776147098684400,8.525684326171875,0.5791950225830078,-0.48987889289855957,2.089456796646118
1782776147108694300,8.5356943359375,0.2597923278808594,-0.4843778610229492,2.3109290599823
1782776147118703900,8.545703857421875,0.06703472137451172,-0.5706284046173096,2.2511463165283203
1782776147128683000,8.55568310546875,-0.19826316833496094,-0.6914105415344238,1.8986876010894775
1782776147138692900,8.56569287109375,-0.5981874465942383,-0.7648823261260986,1.6416151523590088
1782776147148702500,8.575702392578124,-1.1441469192504883,-0.8520529270172119,1.5596908330917358
1782776147158681900,8.585681884765625,-1.5038776397705078,-0.9725857973098755,1.4916681051254272
1782776147168691700,8.595691650390625,-1.5104084014892578,-0.9545167684555054,1.5714102983474731
1782776147178701300,8.605701416015625,-1.128641128540039,-0.9525716304779053,1.6472671031951904
1782776147188680700,8.6156806640625,-0.6963071823120117,-0.9952062368392944,1.6610677242279053
1782776147198690600,8.625690673828124,0.35951805114746094,-0.9460165500640869,1.8974117040634155
1782776147208700200,8.6357001953125,-0.45787620544433594,-0.9547135829925537,1.7551202774047852
1782776147218679600,8.645679443359375,-0.841033935546875,-1.1720445156097412,1.2722978591918945
1782776147228689400,8.655689453125,-0.49367332458496094,-1.3942030668258667,0.9203965663909912
1782776147238699000,8.665698974609375,-0.032538414001464844,-1.3294029235839844,1.07414972782135
1782776147248678100,8.67567822265625,0.1388092041015625,-0.9405107498168945,1.33660888671875
1782776147258688000,8.68568798828125,0.030996322631835938,-0.9308903217315674,1.7899425029754639
1782776147268697600,8.695697509765624,-0.5734519958496094,-0.9911084175109863,1.8762006759643555
