time,seconds_elapsed,z,y,x
1782777571162111700,0.22011181640625,1.0436267852783203,0.08251011371612549,0.24045157432556152
1782777571172121600,0.23012158203125,-0.07645702362060547,0.09042686223983765,0.02079463005065918
1782777571182131200,0.240131103515625,-0.9017858505249023,0.115933358669281,0.1137704849243164
1782777571192110300,0.2501103515625,-1.2625446319580078,0.186764657497406,0.39247751235961914
1782777571202120200,0.2601201171875,-1.1631975173950195,0.26492106914520264,0.5923268795013428
1782777571212130000,0.270130126953125,-0.822779655456543,0.2651338577270508,0.5932283401489258
1782777571222109200,0.280109130859375,-0.3093299865722656,0.3375004529953003,0.8061842918395996
1782777571232119000,0.290119140625,0.20108604431152344,0.4958606958389282,1.1291446685791016
1782777571242129000,0.30012890625,0.6010761260986328,0.7613078355789185,1.561089277267456
1782777571252108000,0.31010791015625,0.24603271484375,1.2337055206298828,2.60542631149292
1782777571262118000,0.320117919921875,-0.9222440719604492,1.6320271492004395,3.9395127296447754
1782777571272127500,0.33012744140625,-2.2610549926757812,1.830895185470581,4.951706886291504
1782777571282106600,0.340106689453125,-3.366580009460449,1.8141076564788818,4.879238128662109
1782777571292116500,0.350116455078125,-4.076991081237793,1.4812244176864624,4.07927131652832
1782777571302126300,0.360126220703125,-4.167632579803467,0.898349404335022,2.8494036197662354
1782777571312105500,0.37010546875,-3.8614635467529297,0.4102872610092163,1.4280295372009277
1782777571322115300,0.380115234375,-2.9960875511169434,-0.09133303165435791,0.04744553565979004
1782777571332125200,0.390125244140625,-2.132932186126709,-0.4510812759399414,-0.9605536460876465
1782777571342104300,0.400104248046875,-1.4017624855041504,-0.5079373121261597,-1.4420578479766846
1782777571352114200,0.4101142578125,-0.7648525238037109,-0.35142385959625244,-1.8239835500717163
1782777571362123800,0.420123779296875,-0.3873710632324219,-0.15341567993164062,-2.0412511825561523
1782777571372103200,0.430103271484375,-0.10486698150634766,-0.41124284267425537,-2.4264237880706787
1782777571382113000,0.440113037109375,-0.5120992660522461,-0.19440102577209473,-1.9328680038452148
1782777571392122600,0.45012255859375,-0.9203958511352539,0.05292212963104248,-1.4160141944885254
1782777571402101800,0.460101806640625,-1.216353416442871,0.2381742000579834,-1.029515266418457
1782777571412111600,0.470111572265625,-1.4033679962158203,0.32631587982177734,-0.786146879196167
1782777571422121500,0.48012158203125,-1.5198864936828613,0.3598356246948242,-0.7120516300201416
1782777571432131300,0.49013134765625,-1.5294265747070312,0.36356043815612793,-0.7970988750457764
1782777571442110500,0.5001103515625,-1.524017333984375,0.3234257698059082,-0.7754580974578857
1782777571452120300,0.510120361328125,-1.4287033081054688,0.46692752838134766,-0.6788885593414307
1782777571462130200,0.520130126953125,-1.1339445114135742,0.69366455078125,-0.4579629898071289
1782777571472109300,0.530109375,-0.7063083648681641,0.9269700050354004,-0.12350773811340332
1782777571482119000,0.540118896484375,-0.27095794677734375,1.125089168548584,0.25054216384887695
1782777571492128800,0.550128662109375,0.14530563354492188,1.2291686534881592,0.5346236228942871
1782777571502108000,0.56010791015625,0.41466331481933594,1.265040397644043,0.5205652713775635
1782777571512117800,0.57011767578125,0.585784912109375,1.3177728652954102,0.4004702568054199
1782777571522127600,0.580127685546875,0.5681686401367188,1.4137020111083984,0.35205984115600586
1782777571532106800,0.590106689453125,0.42323875427246094,1.4647023677825928,0.4256858825683594
1782777571542116600,0.60011669921875,0.2463550567626953,1.468463659286499,0.541405200958252
1782777571552126500,0.61012646484375,0.18036746978759766,1.4612698554992676,0.6539123058319092
1782777571562105600,0.620105712890625,0.13843059539794922,1.4237992763519287,0.7370650768280029
1782777571572115500,0.630115478515625,0.06962966918945312,1.3545746803283691,0.7588522434234619
1782777571582125000,0.640125,-0.021764755249023438,1.3117461204528809,0.7541861534118652
1782777571592104200,0.650104248046875,-0.004652976989746094,1.2270119190216064,0.6859877109527588
1782777571602114000,0.660114013671875,0.07284832000732422,1.1398539543151855,0.6355669498443604
1782777571612124000,0.6701240234375,0.1582965850830078,1.0474307537078857,0.6148686408996582
1782777571622103000,0.68010302734375,0.1594257354736328,0.9719851016998291,0.6505024433135986
1782777571632113000,0.69011279296875,0.22051715850830078,0.8735556602478027,0.7421958446502686
1782777571642122800,0.700122802734375,0.48344993591308594,0.7988159656524658,0.9154667854309082
1782777571652102100,0.71010205078125,0.4968576431274414,0.6333777904510498,1.0386309623718262
1782777571662111700,0.72011181640625,0.46724796295166016,0.5227618217468262,1.1634913682937622
1782777571672121600,0.73012158203125,0.39307403564453125,0.374194860458374,0.9652093648910522
1782777571682131200,0.740131103515625,0.21900367736816406,0.2547149658203125,0.8052408695220947
1782777571692110300,0.7501103515625,-0.055973052978515625,0.049835205078125,0.5476635694503784
1782777571702120200,0.7601201171875,-0.16874408721923828,-0.13641619682312012,0.21050643920898438
1782777571712130000,0.770130126953125,-0.2966909408569336,-0.2230224609375,-0.031180977821350098
1782777571722109200,0.780109130859375,0.16600608825683594,-0.10494613647460938,-0.23973369598388672
1782777571732119000,0.790119140625,0.6593112945556641,0.1306297779083252,-0.047165751457214355
1782777571742129000,0.80012890625,0.9177522659301758,0.22532176971435547,0.35880374908447266
1782777571752108000,0.81010791015625,1.4007768630981445,0.3449137210845947,0.5845800638198853
1782777571762118000,0.820117919921875,1.6945476531982422,0.46848225593566895,0.13289105892181396
1782777571772127500,0.83012744140625,1.7772340774536133,0.8503859043121338,-0.36618489027023315
1782777571782106600,0.840106689453125,1.5670013427734375,1.2437591552734375,0.07848727703094482
1782777571792116500,0.850116455078125,1.0425529479980469,1.488645315170288,1.246886134147644
1782777571802126300,0.860126220703125,0.37688350677490234,1.6053359508514404,2.5831611156463623
1782777571812105500,0.87010546875,-0.16846084594726562,1.5542118549346924,3.668663501739502
1782777571822115300,0.880115234375,-0.5136404037475586,1.1394519805908203,4.199148178100586
1782777571832125200,0.890125244140625,-0.5377330780029297,0.4883289337158203,3.83870530128479
1782777571842104300,0.900104248046875,-0.1630859375,-0.27022504806518555,2.7604360580444336
1782777571852114200,0.9101142578125,0.2998971939086914,-1.2123792171478271,1.306896686553955
1782777571862123800,0.920123779296875,0.7714195251464844,-1.8520498275756836,-0.015551507472991943
1782777571872103200,0.930103271484375,1.0330142974853516,-2.310840368270874,-0.7945389747619629
1782777571882113000,0.940113037109375,1.1835365295410156,-2.5416784286499023,-1.038514494895935
1782777571892122600,0.95012255859375,1.0436248779296875,-2.418703556060791,-0.7103334665298462
1782777571902102000,0.96010205078125,0.5984830856323242,-2.090143918991089,-0.1557214856147766
1782777571912111600,0.970111572265625,0.07698631286621094,-1.7613160610198975,0.13575565814971924
1782777571922121500,0.98012158203125,-0.5018119812011719,-1.5691721439361572,0.28122615814208984
1782777571932131300,0.99013134765625,-1.0155830383300781,-1.4954493045806885,0.4180870056152344
1782777571942110500,1.0001103515625,-1.361445426940918,-1.637775182723999,0.3768974542617798
1782777571952120300,1.010120361328125,-1.610121250152588,-1.934415340423584,0.10820555686950684
1782777571962130200,1.020130126953125,-1.815528392791748,-2.2346982955932617,-0.37340429425239563
1782777571972109300,1.030109375,-2.037367820739746,-2.467458724975586,-0.7880756258964539
1782777571982119000,1.040118896484375,-2.1286540031433105,-2.6730496883392334,-1.091731309890747
1782777571992128800,1.050128662109375,-2.057164192199707,-2.740638256072998,-1.2337744235992432
1782777572002108000,1.06010791015625,-1.8288273811340332,-2.7345757484436035,-1.0815565586090088
1782777572012117800,1.07011767578125,-1.6070494651794434,-2.605743646621704,-0.6686649918556213
1782777572022127600,1.080127685546875,-1.3155241012573242,-2.3295669555664062,-0.12560519576072693
1782777572032106800,1.090106689453125,-0.8730316162109375,-1.9366178512573242,0.44081902503967285
1782777572042116600,1.10011669921875,-0.35888099670410156,-1.5197362899780273,1.0265495777130127
1782777572052126500,1.11012646484375,0.1572427749633789,-1.1311919689178467,1.5150046348571777
1782777572062105600,1.120105712890625,0.6824760437011719,-0.920234203338623,1.7190711498260498
1782777572072115500,1.130115478515625,1.1781606674194336,-0.8180451393127441,1.5668244361877441
1782777572082125000,1.140125,1.269479751586914,-0.8609623908996582,1.1786948442459106
1782777572092104200,1.150104248046875,1.1577186584472656,-0.823448657989502,0.6510852575302124
1782777572102114000,1.160114013671875,0.871673583984375,-0.8163447380065918,0.13715648651123047
1782777572112124000,1.1701240234375,0.4588165283203125,-0.8357646465301514,-0.1122618317604065
1782777572122103000,1.18010302734375,-0.1031637191772461,-0.9178745746612549,-0.29588085412979126
1782777572132113000,1.19011279296875,-0.6223936080932617,-0.9359395503997803,-0.3666558265686035
1782777572142122800,1.200122802734375,-1.008409023284912,-0.8548457622528076,-0.30555957555770874
1782777572152102100,1.21010205078125,-1.338296890258789,-0.7488360404968262,-0.156868577003479
1782777572162111700,1.22011181640625,-1.687288761138916,-0.6875095367431641,-0.002085566520690918
1782777572172121600,1.23012158203125,-1.9564580917358398,-0.6011800765991211,0.05028831958770752
1782777572182131200,1.240131103515625,-2.0926904678344727,-0.57421875,0.026795804500579834
1782777572192110300,1.2501103515625,-2.01839017868042,-0.6225171089172363,-0.11886906623840332
1782777572202120200,1.2601201171875,-1.8062195777893066,-0.6365275382995605,-0.25006866455078125
1782777572212130000,1.270130126953125,-1.4492778778076172,-0.6487946510314941,-0.36790144443511963
1782777572222109200,1.280109130859375,-0.8153963088989258,-0.6170129776000977,-0.36505043506622314
1782777572232119000,1.290119140625,-0.18639469146728516,-0.5450260639190674,-0.28408360481262207
1782777572242129000,1.30012890625,0.33363914489746094,-0.5199024677276611,-0.26370948553085327
1782777572252108000,1.31010791015625,0.659825325012207,-0.37524890899658203,-0.25817281007766724
1782777572262118000,1.320117919921875,0.7623529434204102,-0.21729636192321777,-0.13264667987823486
1782777572272127500,1.33012744140625,0.7578134536743164,-0.008496999740600586,0.11462485790252686
1782777572282106600,1.340106689453125,0.541996955871582,0.13634514808654785,0.41958415508270264
1782777572292116500,1.350116455078125,0.32947444915771484,0.2734403610229492,0.6196153163909912
1782777572302126300,1.360126220703125,0.04781055450439453,0.4046344757080078,0.7374570369720459
1782777572312105500,1.37010546875,-0.3375740051269531,0.45329809188842773,0.7423604726791382
1782777572322115300,1.380115234375,-0.6440238952636719,0.47084617614746094,0.6070147752761841
1782777572332125200,1.390125244140625,-0.7488241195678711,0.535919189453125,0.6130672693252563
1782777572342104300,1.400104248046875,-0.40244197845458984,0.6073062419891357,0.7103948593139648
1782777572352114200,1.4101142578125,0.12191963195800781,0.6863832473754883,1.0166521072387695
1782777572362123800,1.420123779296875,0.8366613388061523,0.7450604438781738,1.2113019227981567
1782777572372103200,1.430103271484375,1.383077621459961,0.7211077213287354,1.1191729307174683
1782777572382113000,1.440113037109375,1.647933006286621,0.6555609703063965,0.9734416007995605
1782777572392122600,1.45012255859375,1.7476377487182617,0.5873448848724365,0.6148450374603271
1782777572402101800,1.460101806640625,1.7980117797851562,0.5467221736907959,0.47739624977111816
1782777572412111600,1.470111572265625,1.8503351211547852,0.46112918853759766,0.45563364028930664
1782777572422121500,1.48012158203125,1.6913642883300781,0.4020042419433594,0.34570419788360596
1782777572432131300,1.49013134765625,1.3704557418823242,0.2778944969177246,0.22678828239440918
1782777572442110500,1.5001103515625,0.6312122344970703,0.12167835235595703,-0.04623973369598389
1782777572452120300,1.510120361328125,-0.20930099487304688,0.12795257568359375,-0.14118170738220215
1782777572462130200,1.520130126953125,-0.6767454147338867,0.3139936923980713,0.11734974384307861
1782777572472109300,1.530109375,-0.7336549758911133,0.5100619792938232,0.5319879055023193
1782777572482119000,1.540118896484375,-0.1540842056274414,0.5594532489776611,1.0286678075790405
1782777572492128800,1.550128662109375,1.1732969284057617,0.502854585647583,1.536096215248108
1782777572502108000,1.56010791015625,2.425082206726074,0.24572300910949707,1.97948157787323
1782777572512117800,1.57011767578125,3.34185791015625,-0.17591500282287598,2.0559933185577393
1782777572522127600,1.580127685546875,3.6691856384277344,-0.5611910820007324,1.8679783344268799
1782777572532106800,1.590106689453125,3.3582773208618164,-0.9280750751495361,1.5227431058883667
1782777572542116600,1.60011669921875,2.608649253845215,-1.2839834690093994,1.1324089765548706
1782777572552126500,1.61012646484375,1.6455507278442383,-1.5566556453704834,0.8732236623764038
1782777572562105600,1.620105712890625,0.6842632293701172,-1.765326976776123,0.7097855806350708
1782777572572115500,1.630115478515625,-0.13666629791259766,-1.962563157081604,0.49494385719299316
1782777572582125000,1.640125,-0.8058767318725586,-2.116382122039795,0.40002596378326416
1782777572592104200,1.650104248046875,-1.2827868461608887,-2.260582447052002,0.42154884338378906
1782777572602114000,1.660114013671875,-1.7113289833068848,-2.3288211822509766,0.5048449039459229
1782777572612124000,1.6701240234375,-2.015511989593506,-2.3186190128326416,0.5893272161483765
1782777572622103000,1.68010302734375,-2.1744327545166016,-2.2216482162475586,0.6344509124755859
1782777572632113000,1.69011279296875,-2.196540355682373,-2.025228500366211,0.8146622180938721
1782777572642122800,1.700122802734375,-2.057188034057617,-1.843599796295166,1.0547744035720825
1782777572652102100,1.71010205078125,-1.8519716262817383,-1.700676679611206,1.29156494140625
1782777572662111700,1.72011181640625,-1.6116619110107422,-1.5422229766845703,1.458019495010376
1782777572672121600,1.73012158203125,-1.4403924942016602,-1.2840790748596191,1.7180026769638062
1782777572682131200,1.740131103515625,-1.3972492218017578,-0.8603863716125488,2.1831178665161133
1782777572692110300,1.7501103515625,-1.4010677337646484,-0.4674363136291504,2.6510305404663086
1782777572702120200,1.7601201171875,-1.3461203575134277,-0.16484403610229492,2.955392837524414
1782777572712130000,1.770130126953125,-0.9406585693359375,-0.01614093780517578,2.848332166671753
1782777572722109200,1.780109130859375,-0.2852792739868164,-0.14285659790039062,2.4391767978668213
1782777572732119000,1.790119140625,0.4375267028808594,-0.4439244270324707,1.8804874420166016
1782777572742129000,1.80012890625,0.9991750717163086,-0.7336266040802002,1.2475194931030273
1782777572752108000,1.81010791015625,1.3432226181030273,-0.9297497272491455,0.6204404830932617
1782777572762118000,1.820117919921875,1.3934087753295898,-1.0268127918243408,0.1603226661682129
1782777572772127500,1.83012744140625,1.2072639465332031,-0.9669690132141113,-0.12079858779907227
1782777572782106600,1.840106689453125,0.8974466323852539,-0.796668291091919,-0.1908949613571167
1782777572792116500,1.850116455078125,0.4764537811279297,-0.5841865539550781,-0.05038309097290039
1782777572802126300,1.860126220703125,0.017120361328125,-0.399491548538208,0.08835482597351074
1782777572812105500,1.87010546875,-0.43299388885498047,-0.18397188186645508,0.27216577529907227
1782777572822115300,1.880115234375,-0.9444842338562012,0.026234149932861328,0.533322811126709
1782777572832125200,1.890125244140625,-1.3661365509033203,0.18584084510803223,0.7683696746826172
1782777572842104300,1.900104248046875,-1.6597867012023926,0.2971510887145996,0.9105970859527588
1782777572852114200,1.9101142578125,-1.8466920852661133,0.36187314987182617,0.9305555820465088
1782777572862123800,1.920123779296875,-1.849538803100586,0.3930954933166504,0.8458192348480225
1782777572872103200,1.930103271484375,-1.671957015991211,0.388566255569458,0.7071986198425293
1782777572882113000,1.940113037109375,-1.3620357513427734,0.4111826419830322,0.6220214366912842
1782777572892122600,1.95012255859375,-0.9980406761169434,0.49318838119506836,0.6157863140106201
1782777572902101800,1.960101806640625,-0.5788812637329102,0.589181661605835,0.5779731273651123
1782777572912111600,1.970111572265625,-0.20833969116210938,0.650388240814209,0.6300408840179443
1782777572922121500,1.98012158203125,0.0027704238891601562,0.723412036895752,0.6731327772140503
1782777572932131300,1.99013134765625,-0.05698966979980469,0.7733557224273682,0.654402494430542
1782777572942110500,2.0001103515625,-0.32237815856933594,0.7812173366546631,0.5659016370773315
1782777572952120300,2.010120361328125,-0.5299625396728516,0.5207340717315674,0.12509417533874512
1782777572962130200,2.020130126953125,-0.8732056617736816,0.5036144256591797,0.0391845703125
1782777572972109300,2.030109375,-1.1766424179077148,0.509119987487793,0.0052204132080078125
1782777572982119000,2.040118896484375,-1.3989105224609375,0.48840856552124023,-0.04385781288146973
1782777572992128800,2.050128662109375,-1.5030231475830078,0.4485793113708496,-0.10222434997558594
1782777573002108000,2.06010791015625,-1.475275993347168,0.40832948684692383,-0.1924504041671753
1782777573012117800,2.07011767578125,-1.2295341491699219,0.30368995666503906,-0.28936994075775146
1782777573022127600,2.080127685546875,-0.8217568397521973,0.13033056259155273,-0.3600660562515259
1782777573032106800,2.090106689453125,-0.42398643493652344,-0.07553291320800781,-0.40562665462493896
1782777573042116600,2.10011669921875,-0.10427474975585938,-0.23300504684448242,-0.5141781568527222
1782777573052126500,2.11012646484375,0.03479957580566406,-0.30115795135498047,-0.5318752527236938
1782777573062105600,2.120105712890625,0.17419052124023438,-0.31647348403930664,-0.4999278783798218
1782777573072115500,2.130115478515625,0.23814964294433594,-0.35687732696533203,-0.48103344440460205
1782777573082125000,2.140125,0.42260074615478516,-0.43588685989379883,-0.5123943090438843
1782777573092104200,2.150104248046875,0.5217657089233398,-0.4819655418395996,-0.5296175479888916
1782777573102114000,2.160114013671875,0.5399665832519531,-0.4889988899230957,-0.5399692058563232
1782777573112124000,2.1701240234375,0.45633697509765625,-0.49434947967529297,-0.5963374972343445
1782777573122103000,2.18010302734375,0.21522903442382812,-0.5206143856048584,-0.6461483240127563
1782777573132113000,2.19011279296875,-0.24616050720214844,-0.5063331127166748,-0.7120250463485718
1782777573142122800,2.200122802734375,-0.5626583099365234,-0.4253978729248047,-0.7625737190246582
1782777573152102100,2.21010205078125,-0.5400390625,-0.1569986343383789,-0.4576277732849121
1782777573162111700,2.22011181640625,-0.21666526794433594,0.06675529479980469,0.37183308601379395
1782777573172121600,2.23012158203125,0.6311225891113281,0.14112567901611328,1.3848084211349487
1782777573182131200,2.240131103515625,1.7103872299194336,0.21781396865844727,2.072432041168213
1782777573192110300,2.2501103515625,2.6953516006469727,0.11818599700927734,2.341405153274536
1782777573202120200,2.2601201171875,3.3926076889038086,-0.21764898300170898,2.2235941886901855
1782777573212130000,2.270130126953125,3.6777496337890625,-0.6446843147277832,1.6021761894226074
1782777573222109200,2.280109130859375,3.616718292236328,-1.038038730621338,0.5894896984100342
1782777573232119000,2.290119140625,3.3044347763061523,-1.3096342086791992,-0.34193098545074463
1782777573242129000,2.30012890625,2.784295082092285,-1.4319226741790771,-1.010171890258789
1782777573252108000,2.31010791015625,2.2217178344726562,-1.2570812702178955,-0.8308203816413879
1782777573262118000,2.320117919921875,1.6670007705688477,-0.8863418102264404,0.22565686702728271
1782777573272127500,2.33012744140625,0.9968652725219727,-0.46773672103881836,1.6000256538391113
1782777573282106600,2.340106689453125,0.22308063507080078,-0.1788642406463623,2.5383384227752686
1782777573292116500,2.350116455078125,-0.7161674499511719,-0.18271517753601074,2.941004514694214
1782777573302126300,2.360126220703125,-1.59645414352417,-0.47193360328674316,2.8083295822143555
1782777573312105500,2.37010546875,-2.2989916801452637,-0.9315922260284424,2.1373367309570312
1782777573322115300,2.380115234375,-2.626438617706299,-1.4620988368988037,1.2839306592941284
1782777573332125200,2.390125244140625,-2.620161533355713,-2.087845802307129,0.49371254444122314
1782777573342104300,2.400104248046875,-2.187044143676758,-2.637761116027832,-0.26121795177459717
1782777573352114200,2.4101142578125,-1.4020299911499023,-3.0601744651794434,-0.8561111688613892
1782777573362123800,2.420123779296875,-0.7730197906494141,-3.232028007507324,-1.3570691347122192
1782777573372103200,2.430103271484375,-0.26261234283447266,-3.1796488761901855,-1.6886790990829468
1782777573382113000,2.440113037109375,0.028838157653808594,-2.9432106018066406,-1.6331727504730225
1782777573392122600,2.45012255859375,0.12904644012451172,-2.67795991897583,-0.9994180202484131
1782777573402102000,2.46010205078125,0.11721134185791016,-2.340693235397339,0.01738560199737549
1782777573412111600,2.470111572265625,0.2978630065917969,-1.9268596172332764,1.1217041015625
1782777573422121500,2.48012158203125,0.6697626113891602,-1.5048213005065918,2.0592997074127197
1782777573432131300,2.49013134765625,1.1966676712036133,-1.3151895999908447,2.7075769901275635
1782777573442110500,2.5001103515625,1.8626766204833984,-1.3873159885406494,3.1280198097229004
1782777573452120300,2.510120361328125,2.558565139770508,-1.6567168235778809,3.0809192657470703
1782777573462130200,2.520130126953125,2.9295759201049805,-2.065009593963623,2.504425525665283
1782777573472109300,2.530109375,2.912095069885254,-2.5443787574768066,1.5793994665145874
1782777573482119200,2.540119140625,2.427694320678711,-3.0103118419647217,0.7381188869476318
1782777573492128800,2.550128662109375,1.659688949584961,-3.266390085220337,0.1416712999343872
1782777573502108000,2.56010791015625,0.8192291259765625,-3.3486828804016113,-0.11582958698272705
1782777573512117800,2.57011767578125,0.08866500854492188,-3.2608861923217773,0.015434622764587402
1782777573522127600,2.580127685546875,-0.48141956329345703,-3.095823049545288,0.3337336778640747
1782777573532106800,2.590106689453125,-1.0566473007202148,-3.0331177711486816,0.6636455059051514
1782777573542116600,2.60011669921875,-1.6167163848876953,-2.993281841278076,0.8999378681182861
1782777573552126500,2.61012646484375,-2.123621940612793,-2.9952125549316406,1.1499042510986328
1782777573562105600,2.620105712890625,-2.615640640258789,-3.011681079864502,1.4535636901855469
1782777573572115500,2.630115478515625,-2.898561954498291,-3.020824670791626,1.7593512535095215
1782777573582125000,2.640125,-3.0083370208740234,-3.0413103103637695,1.9339075088500977
1782777573592044500,2.65004443359375,-2.896735668182373,-3.097654104232788,1.9740409851074219
1782777573602753500,2.66075341796875,-2.5702786445617676,-3.2318692207336426,1.8817930221557617
1782777573622103000,2.68010302734375,-1.3992066383361816,-3.4647631645202637,1.6286330223083496
1782777573632113000,2.69011279296875,-0.7500715255737305,-3.513904571533203,1.670343041419983
1782777573642122800,2.700122802734375,-0.14266204833984375,-3.4807968139648438,1.7752324342727661
1782777573652102100,2.71010205078125,0.5702371597290039,-3.355477809906006,1.9737061262130737
1782777573662111700,2.72011181640625,1.3998174667358398,-3.236954689025879,2.1907601356506348
1782777573672121600,2.73012158203125,2.516444206237793,-3.1834676265716553,2.496793746948242
1782777573682071600,2.740071533203125,3.289708137512207,-3.1975393295288086,2.6527442932128906
1782777573692202000,2.750201904296875,3.6464385986328125,-3.152651786804199,2.7059547901153564
1782777573702120200,2.7601201171875,3.474665641784668,-3.067707061767578,2.6560251712799072
1782777573712130000,2.770130126953125,2.8660430908203125,-2.9465274810791016,2.548795700073242
1782777573722109200,2.780109130859375,2.1408119201660156,-2.770210027694702,2.4022164344787598
1782777573732119000,2.790119140625,1.5572443008422852,-2.619724750518799,2.333981990814209
1782777573742129000,2.80012890625,1.0955724716186523,-2.474780797958374,2.3383896350860596
1782777573752108000,2.81010791015625,0.7576351165771484,-2.3236875534057617,2.238887310028076
1782777573762117600,2.82011767578125,0.5814762115478516,-2.1080782413482666,2.2119622230529785
1782777573772127500,2.83012744140625,0.5050268173217773,-1.9235907793045044,2.2409796714782715
1782777573782106600,2.840106689453125,0.6032552719116211,-1.7981857061386108,2.462568759918213
1782777573792116500,2.850116455078125,0.48684215545654297,-1.633245825767517,2.8978848457336426
1782777573802126300,2.860126220703125,0.1377105712890625,-1.4549977779388428,3.5347442626953125
1782777573812105500,2.87010546875,-0.2881641387939453,-1.2982827425003052,4.307859420776367
1782777573822115300,2.880115234375,-0.5659685134887695,-1.2100515365600586,5.078449249267578
1782777573832125200,2.890125244140625,-0.5071306228637695,-1.3786033391952515,5.679954528808594
1782777573842104300,2.900104248046875,-0.03169822692871094,-1.8167850971221924,5.897381782531738
1782777573852114200,2.9101142578125,0.5636968612670898,-2.404862403869629,5.772551536560059
1782777573862124000,2.9201240234375,1.0290307998657227,-3.1373777389526367,5.341388702392578
1782777573872103200,2.930103271484375,1.3035497665405273,-3.893965482711792,4.428265571594238
1782777573882113000,2.940113037109375,1.4064760208129883,-4.654767036437988,3.0906171798706055
1782777573892122600,2.95012255859375,1.4359960556030273,-5.230220794677734,1.9392606019973755
1782777573902101800,2.960101806640625,1.5431900024414062,-5.616908073425293,0.8844363689422607
1782777573912111600,2.970111572265625,1.633209228515625,-5.742086410522461,-0.05566823482513428
1782777573922121500,2.98012158203125,1.721602439880371,-5.795260429382324,-0.6876250505447388
1782777573932131300,2.99013134765625,1.7920494079589844,-5.780980110168457,-1.0719726085662842
1782777573942110500,3.0001103515625,1.820357322692871,-5.607633590698242,-1.2212755680084229
1782777573952120300,3.010120361328125,1.7355937957763672,-5.337303161621094,-1.2618210315704346
1782777573962130200,3.020130126953125,1.6501798629760742,-5.001755714416504,-1.1323591470718384
1782777573972109300,3.030109375,1.5323991775512695,-4.669457912445068,-0.8763554096221924
1782777573982119000,3.040118896484375,1.2972135543823242,-4.343038558959961,-0.49014604091644287
1782777573992128800,3.050128662109375,0.9091854095458984,-4.116727352142334,-0.19892382621765137
1782777574002108000,3.06010791015625,0.5774993896484375,-3.9300360679626465,-0.27071499824523926
1782777574012117800,3.07011767578125,0.38861656188964844,-3.7805731296539307,-0.4876917600631714
1782777574022127600,3.080127685546875,0.39644908905029297,-3.625080108642578,-0.6358928680419922
1782777574032106800,3.090106689453125,0.6662797927856445,-3.436504364013672,-0.668656587600708
1782777574042116600,3.10011669921875,1.0580024719238281,-3.1469879150390625,-0.5145231485366821
1782777574052126500,3.11012646484375,1.4913101196289062,-2.815096616744995,-0.2935054302215576
1782777574062105600,3.120105712890625,1.904688835144043,-2.518052101135254,-0.10570859909057617
1782777574072115500,3.130115478515625,2.181537628173828,-2.200597047805786,0.09372472763061523
1782777574082125000,3.140125,2.2518091201782227,-1.9402732849121094,0.2238292694091797
1782777574092104200,3.150104248046875,1.8448877334594727,-1.699535846710205,0.2971043586730957
1782777574102114000,3.160114013671875,1.1977310180664062,-1.5121363401412964,0.2609231472015381
1782777574112124000,3.1701240234375,0.38726329803466797,-1.3446463346481323,0.10702729225158691
1782777574122103000,3.18010302734375,-0.41345691680908203,-1.1863455772399902,-0.002704620361328125
1782777574132113000,3.19011279296875,-1.118173599243164,-1.0884703397750854,-0.07906365394592285
1782777574142122800,3.200122802734375,-1.6814846992492676,-1.011620283126831,-0.15846562385559082
1782777574152102100,3.21010205078125,-2.1324377059936523,-0.8909105062484741,-0.0866696834564209
1782777574162111700,3.22011181640625,-2.4741058349609375,-0.7546296119689941,-0.11065411567687988
1782777574172121600,3.23012158203125,-2.592010021209717,-0.6231292486190796,-0.10557317733764648
1782777574182131200,3.240131103515625,-2.6255593299865723,-0.43974876403808594,0.043833017349243164
1782777574192110300,3.2501103515625,-2.48468017578125,-0.29460811614990234,0.18694424629211426
1782777574202120200,3.2601201171875,-2.2411890029907227,-0.18273496627807617,0.23028945922851562
1782777574212130000,3.270130126953125,-2.0290169715881348,-0.17646241188049316,0.040018558502197266
1782777574222109200,3.280109130859375,-1.8837347030639648,-0.143310546875,-0.344852089881897
1782777574232119000,3.290119140625,-1.8095884323120117,-0.03190875053405762,-0.7499535083770752
1782777574242129000,3.30012890625,-1.7129812240600586,-0.0006380081176757812,-1.043749213218689
1782777574252108000,3.31010791015625,-1.4860715866088867,0.025953054428100586,-1.201363444328308
1782777574262118000,3.320117919921875,-0.9941253662109375,0.21132516860961914,-1.4488334655761719
1782777574272127500,3.33012744140625,-0.28201961517333984,0.4574623107910156,-1.4873088598251343
1782777574282107000,3.34010693359375,0.32518482208251953,0.6859104633331299,-1.3914034366607666
1782777574292116500,3.350116455078125,0.7338132858276367,0.939227819442749,-1.182539463043213
1782777574302126300,3.360126220703125,1.1281938552856445,1.226438283920288,-0.950377881526947
1782777574312105500,3.37010546875,1.393960952758789,1.468808889389038,-0.6774300336837769
1782777574322115300,3.380115234375,1.5316438674926758,1.6497666835784912,-0.3837728500366211
1782777574332125200,3.390125244140625,1.5648870468139648,1.7624247074127197,-0.06626439094543457
1782777574342104300,3.400104248046875,1.5945205688476562,1.8681752681732178,0.17167842388153076
1782777574352114200,3.4101142578125,1.5655126571655273,1.9550018310546875,0.40653371810913086
1782777574362124000,3.4201240234375,1.5140619277954102,1.952855110168457,0.6612828969955444
1782777574372103200,3.430103271484375,1.4353561401367188,1.921281099319458,0.8670405149459839
1782777574382113000,3.440113037109375,1.2887296676635742,1.908468246459961,1.063846230506897
1782777574392122600,3.45012255859375,1.0310354232788086,1.8757574558258057,1.2598958015441895
1782777574402102000,3.46010205078125,0.7415266036987305,1.810786247253418,1.4661904573440552
1782777574412111600,3.470111572265625,0.4201374053955078,1.6973068714141846,1.5628820657730103
1782777574422121500,3.48012158203125,0.1557636260986328,1.5966391563415527,1.525390386581421
1782777574432131300,3.49013134765625,-0.12388420104980469,1.5257909297943115,1.4654446840286255
1782777574442110500,3.5001103515625,-0.4231996536254883,1.5470101833343506,1.4748692512512207
1782777574452120300,3.510120361328125,-0.7056150436401367,1.7500929832458496,1.7953648567199707
1782777574462130200,3.520130126953125,-0.7891712188720703,1.8924152851104736,2.3496549129486084
1782777574472109300,3.530109375,-0.39260196685791016,1.9149980545043945,2.909862756729126
1782777574482119200,3.540119140625,0.3577747344970703,1.7161755561828613,3.2391204833984375
1782777574492069000,3.550069091796875,1.0734882354736328,1.276824951171875,3.1325290203094482
1782777574502199600,3.560199462890625,1.5221948623657227,0.7368330955505371,2.5200397968292236
1782777574512117800,3.57011767578125,1.6249923706054688,0.1732947826385498,1.570444107055664
1782777574522127600,3.580127685546875,1.2768774032592773,-0.21825313568115234,0.43088048696517944
1782777574532106800,3.590106689453125,0.6558685302734375,-0.42655491828918457,-0.41372185945510864
1782777574542056700,3.600056640625,0.12218284606933594,-0.3085753917694092,-0.8400551676750183
1782777574552187400,3.6101875,-0.2104358673095703,0.03472256660461426,-0.4902280569076538
1782777574562105600,3.620105712890625,-0.40955638885498047,0.4113438129425049,0.47173064947128296
1782777574571994600,3.62999462890625,-0.7056283950805664,0.722008466720581,1.426347017288208
1782777574582216700,3.640216796875,-1.112600326538086,0.9818274974822998,1.9895129203796387
1782777574592104200,3.650104248046875,-1.7122321128845215,1.0211238861083984,2.2985100746154785
1782777574602054400,3.660054443359375,-2.3112030029296875,0.7704570293426514,2.3015856742858887
1782777574612184800,3.670184814453125,-2.882143020629883,0.25496506690979004,1.8003002405166626
1782777574622103000,3.68010302734375,-3.3174591064453125,-0.5707345008850098,0.7605594992637634
1782777574632113000,3.69011279296875,-3.222299575805664,-1.3733265399932861,-0.800643801689148
1782777574642066200,3.700066162109375,-2.7697434425354004,-2.0347042083740234,-2.2510879039764404
1782777574652163000,3.7101630859375,-2.115020275115967,-2.4469456672668457,-3.3679370880126953
1782777574662111700,3.72011181640625,-1.2616243362426758,-2.53653621673584,-3.9980454444885254
1782777574672121300,3.730121337890625,-0.39666080474853516,-2.3327152729034424,-4.043177127838135
1782777574682131200,3.740131103515625,0.6542377471923828,-1.9743670225143433,-3.594881772994995
1782777574692110300,3.7501103515625,1.7755746841430664,-1.4847673177719116,-2.6296257972717285
1782777574702120200,3.7601201171875,2.8778295516967773,-0.9418045282363892,-1.4302804470062256
1782777574712130000,3.770130126953125,3.755756378173828,-0.4582021236419678,-0.3998053967952728
1782777574722109200,3.780109130859375,4.121604919433594,-0.15911149978637695,0.18180406093597412
1782777574732119000,3.790119140625,3.952630043029785,-0.07516956329345703,0.36379194259643555
1782777574742129000,3.80012890625,3.3383007049560547,-0.14580345153808594,0.011440277099609375
1782777574752108000,3.81010791015625,2.3536672592163086,-0.2816762924194336,-0.7141573429107666
1782777574762117600,3.82011767578125,1.2034339904785156,-0.4540979862213135,-1.4718470573425293
1782777574772127500,3.83012744140625,0.1364002227783203,-0.5787618160247803,-2.074962854385376
1782777574782107000,3.84010693359375,-0.5448112487792969,-0.6792207956314087,-2.490227222442627
1782777574792116500,3.850116455078125,-1.0184526443481445,-0.7111724615097046,-2.706061840057373
1782777574802126300,3.860126220703125,-1.3645553588867188,-0.6619213819503784,-2.6777405738830566
1782777574812105500,3.87010546875,-1.7047853469848633,-0.5528852939605713,-2.490710973739624
1782777574822115300,3.880115234375,-2.0125555992126465,-0.45078325271606445,-2.1280806064605713
1782777574832125200,3.890125244140625,-2.393434524536133,-0.31995320320129395,-1.7714287042617798
1782777574842104300,3.900104248046875,-2.7996950149536133,-0.19636225700378418,-1.4947785139083862
1782777574852114200,3.9101142578125,-3.0067129135131836,-0.0784142017364502,-1.257110834121704
1782777574862124000,3.9201240234375,-3.120846748352051,-0.04440450668334961,-1.1090294122695923
1782777574872103200,3.930103271484375,-3.1452407836914062,-0.011082649230957031,-1.0116634368896484
1782777574882113000,3.940113037109375,-3.22169828414917,0.07520818710327148,-1.0165607929229736
1782777574892063000,3.95006298828125,-3.3359193801879883,0.10994625091552734,-1.101223111152649
1782777574902193400,3.960193359375,-3.3057327270507812,0.18751192092895508,-1.1874672174453735
1782777574912111600,3.970111572265625,-3.181654453277588,0.25212764739990234,-1.2417538166046143
1782777574922121500,3.98012158203125,-2.848498821258545,0.30397582054138184,-1.255688190460205
1782777574932131300,3.99013134765625,-2.4119138717651367,0.3902566432952881,-1.2324496507644653
1782777574942110500,4.0001103515625,-1.7588329315185547,0.4640676975250244,-1.12715482711792
1782777574952120300,4.010120361328125,-0.9629917144775391,0.5428426265716553,-0.9623748064041138
1782777574962130200,4.020130126953125,-0.1506824493408203,0.7225487232208252,-0.7465875148773193
1782777574972109300,4.030109375,0.6116647720336914,0.955397367477417,-0.5244866013526917
1782777574982119000,4.040118896484375,1.3343982696533203,1.1562623977661133,-0.2656344771385193
1782777574992128800,4.050128662109375,1.9220266342163086,1.3473351001739502,-0.07887297868728638
1782777575002108000,4.06010791015625,2.372450828552246,1.4417405128479004,0.03437167406082153
1782777575012058000,4.07005810546875,2.489208221435547,1.5499980449676514,0.04511207342147827
1782777575022188500,4.0801884765625,2.382378578186035,1.6235065460205078,0.025525689125061035
1782777575032106800,4.090106689453125,1.9722661972045898,1.7034924030303955,-0.0035344362258911133
1782777575042056700,4.100056640625,1.364715576171875,1.7487030029296875,-0.04253792762756348
1782777575052187400,4.1101875,0.705805778503418,1.8660664558410645,-0.04307436943054199
1782777575062105600,4.120105712890625,0.1871805191040039,1.9256927967071533,0.018577277660369873
1782777575072115200,4.130115234375,-0.140960693359375,1.9994653463363647,0.10472780466079712
1782777575082125000,4.140125,-0.32159900665283203,2.119028329849243,0.24417275190353394
1782777575092044500,4.15004443359375,-0.25424957275390625,2.2283904552459717,0.4277680516242981
1782777575102175200,4.16017529296875,-0.037238121032714844,2.362794876098633,0.6710110902786255
1782777575112124000,4.1701240234375,0.17624282836914062,2.4408717155456543,0.9957540035247803
1782777575122103000,4.18010302734375,0.3141813278198242,2.471184492111206,1.219852328300476
1782777575132113000,4.19011279296875,0.5487775802612305,2.498495101928711,1.3612276315689087
1782777575142122800,4.200122802734375,0.7530841827392578,2.4449448585510254,1.3797138929367065
1782777575152102000,4.210101806640625,0.7740659713745117,2.2470455169677734,1.3189815282821655
1782777575162111700,4.22011181640625,0.47536659240722656,2.0591537952423096,1.1013919115066528
1782777575172121600,4.23012158203125,-0.023103713989257812,1.9060848951339722,0.9460558891296387
1782777575182131200,4.240131103515625,-0.5296745300292969,1.8367538452148438,1.01593816280365
1782777575192110300,4.2501103515625,-0.8474082946777344,1.912370204925537,1.2903294563293457
1782777575202120200,4.2601201171875,-0.9792747497558594,2.059767961502075,1.6689521074295044
1782777575212130000,4.270130126953125,-0.7654733657836914,2.1430904865264893,1.8438618183135986
1782777575222109200,4.280109130859375,-0.06425094604492188,2.026136636734009,1.797675609588623
1782777575232119000,4.290119140625,0.9021196365356445,1.734442949295044,1.6129205226898193
1782777575242129000,4.30012890625,1.8429059982299805,1.3041276931762695,1.2265574932098389
1782777575252108000,4.31010791015625,2.609652519226074,0.834620475769043,0.5657851696014404
1782777575262118000,4.320117919921875,3.132340431213379,0.2679305076599121,-0.3184535503387451
1782777575272127500,4.33012744140625,3.41469669342041,-0.2425084114074707,-1.0340452194213867
1782777575282107000,4.34010693359375,3.4415626525878906,-0.6533432006835938,-1.6028990745544434
1782777575292116500,4.350116455078125,3.4088306427001953,-0.9188597202301025,-1.930047869682312
1782777575302126300,4.360126220703125,3.2537460327148438,-1.1165735721588135,-2.0104734897613525
1782777575312105500,4.37010546875,3.035109519958496,-1.2634495496749878,-1.8536522388458252
1782777575322115300,4.380115234375,2.552483558654785,-1.3377032279968262,-1.640143871307373
1782777575332125200,4.390125244140625,1.702925682067871,-1.3579074144363403,-1.3307836055755615
1782777575342104300,4.400104248046875,0.5862417221069336,-1.3492019176483154,-1.1198381185531616
1782777575352114200,4.4101142578125,-0.5758495330810547,-1.3671903610229492,-1.0081700086593628
1782777575362124000,4.4201240234375,-1.6051583290100098,-1.3525848388671875,-0.8879292607307434
1782777575372103200,4.430103271484375,-2.5628790855407715,-1.3464938402175903,-0.7056360244750977
1782777575382113000,4.440113037109375,-3.122443675994873,-1.3323886394500732,-0.6892419457435608
1782777575392122600,4.45012255859375,-3.3785252571105957,-1.3057429790496826,-0.7317875623703003
1782777575402102000,4.46010205078125,-3.3441996574401855,-1.1792819499969482,-0.7501457333564758
1782777575412111600,4.470111572265625,-3.12249755859375,-1.0938032865524292,-0.7940632104873657
1782777575422046500,4.48004638671875,-2.7395806312561035,-1.002091407775879,-0.830940842628479
1782777575432161800,4.490161865234375,-2.2190117835998535,-0.8910174369812012,-0.8063724040985107
1782777575442110500,4.5001103515625,-1.6515698432922363,-0.7613991498947144,-0.7822648286819458
1782777575452120300,4.510120361328125,-1.036625862121582,-0.6465163230895996,-0.8084942102432251
1782777575462130200,4.520130126953125,-0.5509443283081055,-0.5338690280914307,-0.8880760669708252
1782777575472109300,4.530109375,-0.11477947235107422,-0.37818241119384766,-1.0130101442337036
1782777575483039000,4.5410390625,0.3064889907836914,-0.2999305725097656,-1.2373440265655518
1782777575502048300,4.56004833984375,0.8945226669311523,-0.00815725326538086,-0.8359918594360352
1782777575512119000,4.570119140625,0.8953943252563477,0.13682198524475098,-0.3677806258201599
1782777575523241700,4.58124169921875,0.7449169158935547,0.2487170696258545,-0.007227897644042969
1782777575542116600,4.60011669921875,0.7016458511352539,0.3282594680786133,0.16970467567443848
1782777575552126500,4.61012646484375,0.6172628402709961,0.3329293727874756,0.3206775188446045
1782777575562105600,4.620105712890625,0.5653953552246094,0.37795448303222656,0.4798789620399475
1782777575572115500,4.630115478515625,0.4623374938964844,0.42645812034606934,0.6264927387237549
1782777575582125000,4.640125,0.22948741912841797,0.47371554374694824,0.8521851897239685
1782777575592104200,4.650104248046875,-0.07773208618164062,0.553990364074707,1.0298923254013062
1782777575602114000,4.660114013671875,-0.5356674194335938,0.6472954750061035,1.3407362699508667
1782777575612124000,4.6701240234375,-1.0531034469604492,0.7718596458435059,1.5142786502838135
1782777575622103000,4.68010302734375,-1.6185216903686523,0.862668514251709,1.5992789268493652
1782777575632113000,4.69011279296875,-2.1243481636047363,0.9895243644714355,1.6867120265960693
1782777575642122800,4.700122802734375,-2.450611114501953,1.039198398590088,1.7197208404541016
1782777575652102000,4.710101806640625,-2.6329240798950195,1.090923547744751,1.755271315574646
1782777575662111700,4.72011181640625,-2.683598041534424,1.2045543193817139,1.864927053451538
1782777575672121600,4.73012158203125,-2.6982216835021973,1.257340908050537,1.8685258626937866
1782777575682161700,4.74016162109375,-2.6813554763793945,1.2749605178833008,1.9662089347839355
1782777575692110300,4.7501103515625,-2.455516815185547,1.289546251296997,1.9668407440185547
1782777575702120200,4.7601201171875,-2.2434449195861816,1.30320143699646,1.9105536937713623
1782777575712130000,4.770130126953125,-2.0297532081604004,1.2043442726135254,1.7258152961730957
1782777575722109200,4.780109130859375,-1.8690500259399414,1.0723013877868652,1.5679724216461182
1782777575732119000,4.790119140625,-1.8947572708129883,0.8782436847686768,1.295325756072998
1782777575742129000,4.80012890625,-2.0493388175964355,0.7579021453857422,1.1773531436920166
1782777575752108000,4.81010791015625,-2.0478458404541016,0.6305677890777588,1.1256904602050781
1782777575762118000,4.820117919921875,-1.864476203918457,0.5000829696655273,1.0427906513214111
1782777575772127500,4.83012744140625,-1.6231145858764648,0.35382676124572754,0.9596763849258423
1782777575782107000,4.84010693359375,-1.6900339126586914,0.2135167121887207,0.7938784956932068
1782777575792116500,4.850116455078125,-1.6963162422180176,0.1895003318786621,0.5136707425117493
1782777575802126300,4.860126220703125,-1.6021819114685059,0.2287311553955078,0.27667444944381714
1782777575812105500,4.87010546875,-1.4566779136657715,0.20335721969604492,0.15699046850204468
1782777575822115300,4.880115234375,-1.2621045112609863,0.26937031745910645,0.14074581861495972
1782777575832125200,4.890125244140625,-1.1088461875915527,0.35585832595825195,0.17083251476287842
1782777575842104300,4.900104248046875,-1.1086153984069824,0.4247090816497803,0.12985163927078247
1782777575852114200,4.9101142578125,-0.7240610122680664,0.6291255950927734,-0.0037708282470703125
1782777575862124000,4.9201240234375,0.05342578887939453,0.9718952178955078,0.05091285705566406
1782777575872103200,4.930103271484375,1.1007747650146484,1.1883025169372559,0.5032428503036499
1782777575882113000,4.940113037109375,2.1920528411865234,1.1991684436798096,1.0940546989440918
1782777575892122600,4.95012255859375,3.056239128112793,1.1267800331115723,1.5387718677520752
1782777575902101800,4.960101806640625,3.6184921264648438,0.953709602355957,1.7189861536026
1782777575912111600,4.970111572265625,3.903456687927246,0.9613082408905029,1.5623860359191895
1782777575922121500,4.98012158203125,4.1650896072387695,1.0324714183807373,1.3101637363433838
1782777575932131300,4.99013134765625,4.274033546447754,1.0725586414337158,1.13388991355896
1782777575942110500,5.0001103515625,4.117824554443359,1.0535712242126465,1.0540461540222168
1782777575952120300,5.010120361328125,3.684882164001465,1.1187896728515625,1.0391134023666382
1782777575962130200,5.020130126953125,2.8323278427124023,1.1647741794586182,1.107880711555481
1782777575972109300,5.030109375,1.8006963729858398,1.0425703525543213,1.0785738229751587
1782777575982119200,5.040119140625,0.897679328918457,0.6712393760681152,0.8261439800262451
1782777575992128800,5.050128662109375,0.08531951904296875,0.09946942329406738,0.445054292678833
1782777576002108000,5.06010791015625,-0.6669025421142578,-0.5521574020385742,-0.12855154275894165
1782777576012117800,5.07011767578125,-1.577164649963379,-1.138244867324829,-1.0352098941802979
1782777576022127600,5.080127685546875,-2.377791404724121,-1.5870217084884644,-1.7628166675567627
1782777576032106800,5.090106689453125,-3.012519359588623,-1.970870018005371,-2.346461296081543
1782777576042116600,5.10011669921875,-3.154994010925293,-2.240584373474121,-2.8399658203125
1782777576052126500,5.11012646484375,-2.6155028343200684,-2.3379368782043457,-2.9969871044158936
1782777576062105600,5.120105712890625,-1.4693894386291504,-2.396296501159668,-2.6905510425567627
1782777576072115500,5.130115478515625,0.09192943572998047,-2.332397937774658,-2.0150465965270996
1782777576082125000,5.140125,1.584040641784668,-2.0528602600097656,-1.2135963439941406
1782777576092044500,5.15004443359375,2.5501461029052734,-1.6450858116149902,-0.37678223848342896
1782777576102175000,5.160175048828125,2.7038450241088867,-1.2468469142913818,0.4089893698692322
1782777576112124000,5.1701240234375,2.0119409561157227,-0.8871829509735107,0.8995193839073181
1782777576122103000,5.18010302734375,1.126861572265625,-0.6381626129150391,0.9305502772331238
1782777576132113000,5.19011279296875,0.37883758544921875,-0.4992990493774414,0.851093053817749
1782777576142122800,5.200122802734375,-0.10388755798339844,-0.3912487030029297,0.8537036180496216
1782777576152102000,5.210101806640625,-0.3646659851074219,-0.36432409286499023,0.8315143585205078
1782777576162111700,5.22011181640625,-0.45033931732177734,-0.33179736137390137,0.6997106075286865
1782777576172121600,5.23012158203125,-0.5322895050048828,-0.2602834701538086,0.5176302790641785
1782777576182131000,5.240130859375,0.00380706787109375,-0.10519838333129883,0.36214715242385864
1782777576192110300,5.2501103515625,0.20807266235351562,-0.010412454605102539,0.21851539611816406
1782777576202306600,5.260306640625,-0.16043853759765625,0.062232017517089844,0.19686150550842285
1782777576212168700,5.270168701171875,-0.8907890319824219,0.1922898292541504,0.37508368492126465
1782777576222147800,5.28014794921875,-1.8168597221374512,0.42179036140441895,0.7221452593803406
1782777576232157700,5.29015771484375,-2.7684664726257324,0.6162776947021484,0.9179359674453735
1782777576242167600,5.30016748046875,-3.58126163482666,0.7367675304412842,0.956567645072937
1782777576252146700,5.310146728515625,-4.048274517059326,0.8021798133850098,0.7922641038894653
1782777576262156300,5.32015625,-4.202260971069336,0.8893129825592041,0.6407015919685364
1782777576272166100,5.330166259765625,-4.031319618225098,0.9320383071899414,0.5120125412940979
1782777576282145300,5.340145263671875,-3.673424243927002,0.9409463405609131,0.4760321378707886
1782777576292155100,5.350155029296875,-3.2287025451660156,0.9629106521606445,0.412844181060791
1782777576302165000,5.3601650390625,-2.686051845550537,0.968421220779419,0.433496356010437
1782777576312144100,5.37014404296875,-1.6556086540222168,0.9561262130737305,0.1676255464553833
1782777576322154000,5.380154052734375,-0.4598665237426758,0.8831100463867188,0.18883317708969116
1782777576332163800,5.390163818359375,0.5266742706298828,0.7855494022369385,0.11235016584396362
1782777576342143000,5.40014306640625,1.0224618911743164,0.7012641429901123,0.1120157241821289
1782777576352152800,5.41015283203125,1.0982484817504883,0.6390674114227295,0.02024984359741211
1782777576362162400,5.420162353515625,0.9459400177001953,0.6187388896942139,-0.06231766939163208
1782777576372141600,5.4301416015625,0.5026988983154297,0.6394145488739014,0.009433627128601074
1782777576382151400,5.4401513671875,0.16199779510498047,0.7179181575775146,0.2063547968864441
1782777576392161300,5.450161376953125,-0.1885814666748047,0.8638229370117188,0.6355347633361816
1782777576402140400,5.460140380859375,-0.23062992095947266,0.950263500213623,0.8448905944824219
1782777576412150300,5.470150390625,-0.07702064514160156,0.9656217098236084,1.0352365970611572
1782777576422160100,5.48016015625,0.10270500183105469,0.9237222671508789,1.2449781894683838
1782777576432170000,5.490169921875,0.4151754379272461,0.8358008861541748,1.2661666870117188
1782777576442149000,5.500149169921875,0.9034337997436523,0.7615060806274414,1.2896559238433838
1782777576452158700,5.51015869140625,1.219334602355957,0.6686789989471436,1.2808977365493774
1782777576462168600,5.52016845703125,1.3483953475952148,0.5514004230499268,1.192746639251709
1782777576472147700,5.530147705078125,1.3736419677734375,0.42850828170776367,0.9732378721237183
1782777576482157600,5.540157470703125,1.5459051132202148,0.3539605140686035,0.6340948343276978
1782777576492167400,5.55016748046875,1.5864181518554688,0.2696053981781006,0.165924072265625
1782777576502146600,5.560146484375,1.4729461669921875,0.18526697158813477,-0.11978483200073242
1782777576512156400,5.570156494140625,1.1298503875732422,0.3470578193664551,-0.04875624179840088
1782777576522166300,5.580166259765625,0.5602083206176758,0.5638678073883057,0.10382235050201416
1782777576532145400,5.5901455078125,-0.13294124603271484,0.8571391105651855,0.42084836959838867
1782777576542155300,5.6001552734375,-0.9316368103027344,1.1492245197296143,0.6165645122528076
1782777576552164900,5.610164794921875,-1.6066527366638184,1.2126610279083252,0.8662430047988892
1782777576562144000,5.62014404296875,-2.259690761566162,1.180408000946045,1.3389471769332886
1782777576572153900,5.63015380859375,-2.791429042816162,1.2263171672821045,1.8719390630722046
1782777576582163700,5.640163818359375,-2.6651949882507324,1.3567039966583252,2.092346668243408
1782777576592142800,5.650142822265625,-1.7518019676208496,1.246429443359375,2.1968202590942383
1782777576602152700,5.660152587890625,-0.3108673095703125,0.8469183444976807,2.1487319469451904
1782777576612162600,5.67016259765625,1.302292823791504,0.4120199680328369,1.9463188648223877
1782777576622141700,5.6801416015625,2.709756851196289,0.07030129432678223,1.6059749126434326
1782777576632151600,5.690151611328125,3.7183265686035156,-0.3858165740966797,1.050266146659851
1782777576642161200,5.7001611328125,4.026035308837891,-0.7453817129135132,0.4607861042022705
1782777576652140500,5.710140625,3.8829307556152344,-1.3497297763824463,-0.15865099430084229
1782777576662150400,5.720150390625,3.8088550567626953,-1.8112077713012695,-0.5111968517303467
1782777576672160000,5.730159912109375,3.5179452896118164,-1.9167485237121582,-0.8318251371383667
1782777576682169900,5.740169921875,2.8824472427368164,-2.009510040283203,-1.115293025970459
1782777576692149000,5.75014892578125,1.9233131408691406,-2.0800793170928955,-1.3539589643478394
1782777576702158800,5.760158935546875,0.7568387985229492,-2.1835803985595703,-1.3829196691513062
1782777576712168700,5.770168701171875,-0.4679698944091797,-2.125270366668701,-1.3237186670303345
1782777576722147800,5.78014794921875,-1.434854507446289,-1.9963799715042114,-1.1672866344451904
1782777576732157700,5.79015771484375,-2.182342052459717,-1.8432648181915283,-0.9653759002685547
1782777576742167600,5.80016748046875,-2.5432777404785156,-1.6010626554489136,-0.6286486983299255
1782777576752146700,5.810146728515625,-2.458434581756592,-1.2054367065429688,-0.1979067325592041
1782777576762156500,5.820156494140625,-2.0727176666259766,-0.7757220268249512,0.34254252910614014
1782777576772166100,5.830166259765625,-1.878486156463623,-0.2201859951019287,1.1344565153121948
1782777576782145300,5.840145263671875,-1.9819855690002441,0.14879679679870605,1.8626298904418945
1782777576792095500,5.850095458984375,-1.8061041831970215,0.23143792152404785,2.012784004211426
1782777576802652400,5.86065234375,-1.3614282608032227,0.18427181243896484,1.8823493719100952
1782777576812174800,5.8701748046875,-0.740814208984375,0.0175478458404541,1.6011567115783691
1782777576822154000,5.880154052734375,0.05098724365234375,-0.19208216667175293,1.2161095142364502
1782777576832163800,5.890163818359375,0.7897577285766602,-0.2635939121246338,0.7332265377044678
1782777576842143000,5.90014306640625,1.4996709823608398,-0.395668625831604,0.2974131107330322
1782777576852152800,5.91015283203125,1.8379878997802734,-0.5556575059890747,-0.11802423000335693
1782777576862162400,5.920162353515625,1.8499088287353516,-0.6283352375030518,-0.7405639290809631
1782777576872141600,5.9301416015625,1.436483383178711,-0.5937654972076416,-1.1507761478424072
1782777576882151400,5.9401513671875,0.6078681945800781,-0.4842909574508667,-1.2653510570526123
1782777576892101600,5.9501015625,-0.31621265411376953,-0.31702864170074463,-1.1570945978164673
1782777576902232000,5.960232177734375,-1.1793193817138672,-0.1216731071472168,-0.8707821369171143
1782777576912150300,5.970150390625,-1.7909111976623535,0.11038017272949219,-0.4709770679473877
1782777576922160000,5.98016015625,-2.140418529510498,0.31773996353149414,-0.09782785177230835
1782777576932170000,5.990169921875,-2.4032540321350098,0.515092134475708,0.2863961458206177
1782777576942149000,6.000149169921875,-2.570699691772461,0.6931393146514893,0.6181949377059937
1782777576952158700,6.01015869140625,-2.60269832611084,0.7719066143035889,0.7797244787216187
1782777576962168600,6.02016845703125,-2.346935272216797,0.7684047222137451,0.7103261947631836
1782777576972147700,6.030147705078125,-1.9533672332763672,0.7745239734649658,0.5773940682411194
1782777576982157600,6.040157470703125,-1.6097378730773926,0.6141257286071777,0.4395550489425659
1782777576992167400,6.05016748046875,-1.289536476135254,0.5030806064605713,0.31704288721084595
1782777577002146600,6.060146484375,-0.9300031661987305,0.4924447536468506,0.25939929485321045
1782777577012096800,6.0700966796875,-0.6932334899902344,0.4603884220123291,0.188387930393219
1782777577022227200,6.080227294921875,-0.40648365020751953,0.419309139251709,0.11057698726654053
1782777577032145400,6.0901455078125,-0.20543289184570312,0.40488195419311523,0.012701094150543213
1782777577042155300,6.1001552734375,-0.13724136352539062,0.36713528633117676,-0.07657647132873535
1782777577052164900,6.110164794921875,-0.16878890991210938,0.2011127471923828,-0.3144684135913849
1782777577062144000,6.12014404296875,-0.12662315368652344,0.051106929779052734,-0.4882797598838806
1782777577072153900,6.13015380859375,-0.10877513885498047,-0.04280352592468262,-0.7044001221656799
1782777577082163700,6.140163818359375,-0.09220123291015625,-0.055416107177734375,-0.8186572790145874
1782777577092142800,6.150142822265625,-0.13988208770751953,-0.018221378326416016,-0.810029923915863
1782777577102152700,6.160152587890625,-0.19811630249023438,0.1384885311126709,-0.6904547214508057
1782777577112162600,6.17016259765625,-0.2695436477661133,0.35439252853393555,-0.4057190418243408
1782777577122141700,6.1801416015625,-0.21061038970947266,0.5893340110778809,-0.17005395889282227
1782777577132151600,6.190151611328125,-0.08114814758300781,0.7429051399230957,0.04377812147140503
1782777577142161200,6.2001611328125,-0.1371326446533203,0.778470516204834,0.17817145586013794
1782777577152140500,6.210140625,-0.14866161346435547,0.8678860664367676,0.3379620909690857
1782777577162150400,6.220150390625,-0.08489990234375,0.8898541927337646,0.34241214394569397
1782777577172160000,6.230159912109375,-0.03215599060058594,0.8450181484222412,0.4705483615398407
1782777577182169900,6.240169921875,0.033026695251464844,0.80436110496521,0.5693923830986023
1782777577192149000,6.25014892578125,0.24738788604736328,0.5969052314758301,0.4871799945831299
1782777577202158800,6.260158935546875,0.35567760467529297,0.687842607498169,0.6626502871513367
1782777577212168700,6.270168701171875,0.35172557830810547,0.8167426586151123,0.9969885349273682
1782777577222147800,6.28014794921875,0.1745128631591797,0.7548160552978516,1.3547240495681763
1782777577232157700,6.29015771484375,-0.06565380096435547,0.768470048904419,1.6685746908187866
1782777577242167600,6.30016748046875,0.06671810150146484,0.8447301387786865,1.8967041969299316
1782777577252146700,6.310146728515625,0.6929559707641602,0.7410597801208496,1.9421257972717285
1782777577262156300,6.32015625,1.4034109115600586,0.2708115577697754,1.8829437494277954
1782777577272166100,6.330166259765625,1.9232368469238281,-0.4168078899383545,1.466060996055603
1782777577282145300,6.340145263671875,2.3375015258789062,-1.0619244575500488,0.49743974208831787
1782777577292155100,6.350155029296875,2.518787384033203,-1.5893933773040771,-0.7363883852958679
1782777577302165000,6.3601650390625,2.616445541381836,-2.064199447631836,-1.5279229879379272
1782777577312144100,6.37014404296875,2.646866798400879,-2.4409239292144775,-2.026590347290039
1782777577322154000,6.380154052734375,2.47074031829834,-2.640964984893799,-2.2728424072265625
1782777577332163800,6.390163818359375,2.0462865829467773,-2.727588653564453,-2.3068666458129883
1782777577342143000,6.40014306640625,1.3799934387207031,-2.6953253746032715,-2.2414917945861816
1782777577352152800,6.41015283203125,0.5835762023925781,-2.6905813217163086,-2.1492013931274414
1782777577362162400,6.420162353515625,-0.10027694702148438,-2.7140417098999023,-2.1679959297180176
1782777577372141600,6.4301416015625,-0.6406345367431641,-2.749774932861328,-2.2671756744384766
1782777577382151400,6.4401513671875,-1.2322916984558105,-2.828805685043335,-2.5433011054992676
1782777577392161300,6.450161376953125,-1.7244691848754883,-2.960012912750244,-2.992950916290283
1782777577402140400,6.460140380859375,-1.8756413459777832,-3.0702977180480957,-3.40312123298645
1782777577412150300,6.470150390625,-1.8071675300598145,-3.1761016845703125,-3.7356185913085938
1782777577422160100,6.48016015625,-1.6028070449829102,-3.2816126346588135,-3.9802608489990234
1782777577432170000,6.490169921875,-1.4494457244873047,-3.2546770572662354,-3.9054765701293945
1782777577442149000,6.500149169921875,-1.2344508171081543,-3.1907601356506348,-3.534327983856201
1782777577452158700,6.51015869140625,-0.9533543586730957,-3.0327799320220947,-2.7381837368011475
1782777577462168600,6.52016845703125,-0.24493408203125,-2.7669243812561035,-1.9090365171432495
1782777577472147700,6.530147705078125,0.7585163116455078,-2.434358596801758,-1.007657527923584
1782777577482157600,6.540157470703125,1.9895038604736328,-2.1408205032348633,-0.2671555280685425
1782777577492167400,6.55016748046875,3.433551788330078,-1.9387531280517578,0.14530324935913086
1782777577502146600,6.560146484375,4.07999324798584,-1.943962812423706,0.040847182273864746
1782777577512156400,6.570156494140625,4.071566581726074,-2.1356899738311768,-0.5730109214782715
1782777577522106600,6.580106689453125,3.5944414138793945,-2.320894718170166,-1.447249174118042
1782777577532177200,6.59017724609375,2.878909111022949,-2.4679784774780273,-2.1456496715545654
1782777577542216200,6.60021630859375,2.0803747177124023,-2.4181084632873535,-2.4244375228881836
1782777577552164900,6.610164794921875,1.3948230743408203,-2.3073723316192627,-2.3255884647369385
1782777577562144000,6.62014404296875,0.8072643280029297,-2.107546806335449,-1.9938818216323853
1782777577572153900,6.63015380859375,0.22056007385253906,-1.8749545812606812,-1.5427199602127075
1782777577582163700,6.640163818359375,-0.32858753204345703,-1.6608895063400269,-1.281268835067749
1782777577592142800,6.650142822265625,-0.8862686157226562,-1.464167833328247,-1.0272057056427002
1782777577602152700,6.660152587890625,-1.4373373985290527,-1.3709237575531006,-0.8990538716316223
1782777577612162600,6.67016259765625,-1.7228307723999023,-1.2699389457702637,-0.786241888999939
1782777577622141700,6.6801416015625,-1.773911952972412,-1.1934187412261963,-0.8197612762451172
1782777577632151600,6.690151611328125,-1.5738334655761719,-1.2010040283203125,-1.0422723293304443
1782777577642161200,6.7001611328125,-1.2440404891967773,-1.1650068759918213,-1.2109558582305908
1782777577652140500,6.710140625,-0.5295228958129883,-1.125913143157959,-1.4113585948944092
1782777577662150400,6.720150390625,0.16025066375732422,-1.0903353691101074,-1.5709818601608276
1782777577672160000,6.730159912109375,0.4543800354003906,-1.1618189811706543,-1.6432501077651978
1782777577682169900,6.740169921875,0.4002246856689453,-1.1423206329345703,-1.8287230730056763
1782777577692149000,6.75014892578125,0.1078939437866211,-1.065911054611206,-2.092167615890503
1782777577702158800,6.760158935546875,-0.12273788452148438,-0.960608720779419,-2.037444829940796
1782777577712168700,6.770168701171875,-0.42386627197265625,-0.8451969623565674,-1.684901237487793
1782777577722147800,6.78014794921875,-0.6620426177978516,-0.6766741275787354,-1.402332067489624
1782777577732157700,6.79015771484375,-0.8046684265136719,-0.5890309810638428,-1.2038029432296753
1782777577742167600,6.80016748046875,-0.46033477783203125,-0.48829030990600586,-0.8629060387611389
1782777577752146700,6.810146728515625,-0.19685745239257812,-0.21725773811340332,-0.4162726402282715
1782777577762156500,6.820156494140625,0.19718456268310547,-0.25351858139038086,-0.27417171001434326
1782777577772166100,6.830166259765625,1.3633203506469727,-0.3921542167663574,-0.1886657476425171
1782777577782145300,6.840145263671875,2.3188095092773438,-0.4078946113586426,-0.13957595825195312
1782777577792155100,6.850155029296875,2.5530099868774414,-0.40888404846191406,-0.32055187225341797
1782777577802165000,6.8601650390625,2.584395408630371,-0.3839402198791504,-0.8602203726768494
1782777577812144000,6.87014404296875,2.176036834716797,-0.4378621578216553,-0.9788315296173096
