time,seconds_elapsed,z,y,x
1782776345559178000,0.176177978515625,-0.9132957458496094,0.09577512741088867,0.23271089792251587
1782776345569157400,0.186157470703125,-1.0476155281066895,0.1141510009765625,0.31801003217697144
1782776345579167200,0.196167236328125,-1.103982925415039,0.07169485092163086,0.39371874928474426
1782776345589176800,0.2061767578125,-1.0702362060546875,-0.027719974517822266,0.4039340317249298
1782776345599156000,0.216156005859375,-0.9804158210754395,-0.13666248321533203,0.3754948079586029
1782776345609165800,0.226165771484375,-0.7121496200561523,-0.2481389045715332,0.452912837266922
1782776345619175400,0.236175537109375,-0.055872440338134766,-0.4192652702331543,0.5183323621749878
1782776345629154800,0.24615478515625,0.5820989608764648,-0.6225876808166504,0.4048471748828888
1782776345639164400,0.256164306640625,1.044041633605957,-0.8019556999206543,0.2650532126426697
1782776345649174300,0.26617431640625,1.2757816314697266,-0.9308934211730957,0.23924744129180908
1782776345659153700,0.276153564453125,1.2690410614013672,-0.9768519401550293,0.2500631511211395
1782776345669163500,0.28616357421875,0.970428466796875,-0.9840445518493652,0.2091086208820343
1782776345679173000,0.296173095703125,0.7377557754516602,-0.9348430633544922,0.20544716715812683
1782776345689152300,0.30615234375,0.5324153900146484,-0.7618775367736816,-0.11947014927864075
1782776345699162000,0.316162109375,0.1530904769897461,-0.37134647369384766,-0.7797008156776428
1782776345709171700,0.326171630859375,-0.6865510940551758,-0.3150162696838379,-0.7393386363983154
1782776345719151000,0.336151123046875,-1.9928603172302246,-0.39864158630371094,0.05763590335845947
1782776345729161000,0.346160888671875,-2.564239501953125,-0.36533164978027344,0.32088789343833923
1782776345739170600,0.356170654296875,-2.05788516998291,-0.46622705459594727,0.5813584327697754
1782776345749150000,0.36614990234375,-0.7509207725524902,-0.6351890563964844,1.0686243772506714
1782776345759159800,0.376159912109375,1.1474671363830566,-0.863645076751709,1.3933824300765991
1782776345769169400,0.38616943359375,2.292128562927246,-1.226701259613037,1.298355221748352
1782776345779179300,0.39617919921875,2.7006001472473145,-1.5460433959960938,1.1035466194152832
1782776345789158400,0.406158447265625,2.531647205352783,-1.7056503295898438,1.0844541788101196
1782776345799168300,0.416168212890625,1.5630764961242676,-1.8371963500976562,1.2423434257507324
1782776345809177900,0.426177734375,0.12489461898803711,-2.0384206771850586,1.369874119758606
1782776345819157200,0.4361572265625,-1.2624287605285645,-2.1868157386779785,1.3250974416732788
1782776345829166800,0.446166748046875,-2.372946262359619,-2.1901426315307617,1.3609566688537598
1782776345839176700,0.4561767578125,-2.846871852874756,-2.2165474891662598,1.3492521047592163
1782776345849156000,0.466156005859375,-2.9968953132629395,-2.293778419494629,1.3624980449676514
1782776345859165700,0.476165771484375,-2.5802416801452637,-2.3640265464782715,1.5825389623641968
1782776345869175600,0.486175537109375,-1.736438274383545,-2.15358829498291,3.2504842281341553
1782776345879155000,0.496155029296875,-0.9719462394714355,-2.674192428588867,2.1098577976226807
1782776345889164500,0.50616455078125,-0.1675553321838379,-2.7102527618408203,1.104013442993164
1782776345899174400,0.51617431640625,0.007853984832763672,-2.681241512298584,0.8379691243171692
1782776345909153500,0.526153564453125,-0.10445213317871094,-2.7064685821533203,0.9335168600082397
1782776345919163400,0.536163330078125,-0.38759517669677734,-2.48604679107666,1.2501819133758545
1782776345929173000,0.546173095703125,-0.7930741310119629,-2.101865291595459,1.5221976041793823
1782776345939152400,0.55615234375,-1.312574863433838,-1.741807460784912,1.7953863143920898
1782776345949162200,0.566162353515625,-1.5174732208251953,-1.4946560859680176,2.3156516551971436
1782776345959171800,0.576171875,-1.4452414512634277,-1.2647438049316406,2.551572561264038
1782776345969151200,0.586151123046875,-1.2366180419921875,-1.0901527404785156,2.4462900161743164
1782776345979161000,0.5961611328125,-0.7269430160522461,-1.0345816612243652,2.109285831451416
1782776345989171000,0.6061708984375,-0.7283730506896973,-0.4246692657470703,1.4314019680023193
1782776345999150000,0.616150146484375,-1.0185284614562988,-0.6808557510375977,0.8977468013763428
1782776346009159700,0.62615966796875,-1.3910651206970215,-1.02601957321167,0.818919837474823
1782776346019169300,0.636169189453125,-1.5142168998718262,-1.3603577613830566,0.9887263774871826
1782776346029179100,0.64617919921875,-1.2368569374084473,-1.6589584350585938,1.2691291570663452
1782776346039158500,0.656158447265625,-1.088047981262207,-1.8109307289123535,1.7074100971221924
1782776346049168100,0.666168212890625,-1.0482268333435059,-1.8165874481201172,2.1633527278900146
1782776346059178000,0.676177978515625,-0.9330968856811523,-1.747392177581787,2.4666388034820557
1782776346069157400,0.686157470703125,-0.5353374481201172,-1.378770351409912,2.4136242866516113
1782776346079167200,0.696167236328125,0.2324991226196289,-0.5607399940490723,1.7021293640136719
1782776346089176800,0.7061767578125,0.8553543090820312,-0.1622633934020996,1.3100471496582031
1782776346099156000,0.716156005859375,1.1852178573608398,-0.12969636917114258,1.3777185678482056
1782776346109165800,0.726165771484375,1.1721735000610352,-0.21642065048217773,1.3513792753219604
1782776346119175400,0.736175537109375,0.8291635513305664,-0.2577648162841797,1.1576502323150635
1782776346129154800,0.74615478515625,0.3246927261352539,-0.2175917625427246,0.7661312818527222
1782776346139164700,0.75616455078125,0.09097862243652344,0.03276634216308594,0.45453715324401855
1782776346149174300,0.76617431640625,0.3424243927001953,0.3170022964477539,0.9285224676132202
1782776346159153700,0.776153564453125,1.4507627487182617,0.37206506729125977,0.24426531791687012
1782776346169163300,0.786163330078125,1.9186687469482422,0.6180024147033691,0.1251678466796875
1782776346179173000,0.796173095703125,2.744335174560547,0.7691950798034668,0.5782390236854553
1782776346189152300,0.80615234375,3.0048303604125977,0.9448938369750977,0.9936743974685669
1782776346199162000,0.816162109375,2.801145553588867,1.2670626640319824,1.4046111106872559
1782776346209171700,0.826171630859375,2.450969696044922,1.5388832092285156,1.648385763168335
1782776346219151000,0.836151123046875,2.03964900970459,1.6755690574645996,1.67821204662323
1782776346229161000,0.846160888671875,1.550999641418457,1.7544560432434082,1.73051118850708
1782776346239170600,0.856170654296875,1.3802757263183594,1.764669418334961,1.729458212852478
1782776346249150000,0.86614990234375,1.3359460830688477,1.6986069679260254,1.630113124847412
1782776346259159800,0.876159912109375,1.213775634765625,1.5238018035888672,1.408733606338501
1782776346269169400,0.88616943359375,1.0615596771240234,1.2905175685882568,1.0596970319747925
1782776346279179300,0.89617919921875,0.7985305786132812,1.1366219520568848,0.6868589520454407
1782776346289158400,0.906158447265625,0.5639448165893555,1.092909812927246,0.4434177279472351
1782776346299168300,0.916168212890625,0.4707298278808594,1.1258435249328613,0.4628433585166931
1782776346309177900,0.926177734375,0.43709659576416016,1.014068365097046,0.5379355549812317
1782776346319157200,0.9361572265625,0.49657535552978516,0.8701364994049072,0.7120304107666016
1782776346329167000,0.9461669921875,0.5459957122802734,0.7347776889801025,0.9175304174423218
1782776346339176700,0.9561767578125,0.5567893981933594,0.6552395820617676,1.1384958028793335
1782776346349156000,0.966156005859375,0.6057538986206055,0.6596248149871826,1.41630220413208
1782776346359166000,0.976166015625,0.7575063705444336,0.7647514343261719,1.7548974752426147
1782776346369175600,0.986175537109375,0.6936264038085938,0.793168306350708,1.8908627033233643
1782776346379155000,0.996155029296875,0.6370630264282227,0.6219809055328369,1.9550421237945557
1782776346389164800,1.006164794921875,0.40589332580566406,0.2894876003265381,1.8781063556671143
1782776346399174400,1.01617431640625,0.19858264923095703,0.03855013847351074,1.757310390472412
1782776346409153500,1.026153564453125,0.24404525756835938,-0.13776779174804688,1.7084534168243408
1782776346419163400,1.036163330078125,0.7086362838745117,-0.26467299461364746,1.843851089477539
1782776346429173000,1.046173095703125,1.4883527755737305,-0.34369659423828125,2.1153149604797363
1782776346439152400,1.05615234375,2.4147443771362305,-0.34325408935546875,2.5593581199645996
1782776346449162200,1.066162353515625,3.179075241088867,-0.38285088539123535,2.813422203063965
1782776346459171800,1.076171875,3.5279541015625,-0.505462646484375,2.8081183433532715
1782776346469151200,1.086151123046875,3.2003583908081055,-0.6830410957336426,2.5766942501068115
1782776346479161000,1.0961611328125,2.2821102142333984,-0.8105618953704834,2.213362455368042
1782776346489170700,1.106170654296875,1.0906543731689453,-0.9884228706359863,1.729454755783081
1782776346499149800,1.11614990234375,0.02618885040283203,-1.1861872673034668,1.1292420625686646
1782776346509159700,1.12615966796875,-0.4748048782348633,-1.3937158584594727,0.4823960065841675
1782776346519169300,1.136169189453125,-0.5921049118041992,-1.535980224609375,0.1088750958442688
1782776346529179100,1.14617919921875,-0.5758075714111328,-1.6137495040893555,-0.1208558976650238
1782776346539158500,1.156158447265625,0.1594524383544922,-1.4714763164520264,-0.1865348219871521
1782776346548733000,1.16573291015625,0.37134265899658203,-1.4295878410339355,-0.5217737555503845
1782776346559178000,1.176177978515625,0.07613468170166016,-1.4820640087127686,-0.7413455247879028
1782776346569157400,1.186157470703125,-0.32472896575927734,-1.4978241920471191,-0.7703668475151062
1782776346579167000,1.1961669921875,-0.769200325012207,-1.481287956237793,-0.8485575914382935
1782776346589176800,1.2061767578125,-1.1856145858764648,-1.3576438426971436,-0.8946641087532043
1782776346599156000,1.216156005859375,-1.5616374015808105,-1.184142827987671,-0.7964107990264893
1782776346609165600,1.22616552734375,-1.8407392501831055,-0.9672353267669678,-0.5230093002319336
1782776346619175400,1.236175537109375,-1.9799003601074219,-0.784766674041748,-0.1531352400779724
1782776346629154800,1.24615478515625,-1.9930973052978516,-0.6054155826568604,0.31707948446273804
1782776346639164700,1.25616455078125,-1.6188850402832031,-0.38132452964782715,0.6862466335296631
1782776346649174300,1.26617431640625,-0.8229598999023438,-0.10093426704406738,1.1262025833129883
1782776346659153700,1.276153564453125,0.30288028717041016,0.06339240074157715,1.5983885526657104
1782776346669163500,1.28616357421875,1.3999338150024414,0.11302971839904785,1.9703787565231323
1782776346679173000,1.296173095703125,2.2827301025390625,0.0914449691772461,2.0975279808044434
1782776346689152300,1.30615234375,2.605440139770508,-0.05253434181213379,1.980285882949829
1782776346699162000,1.316162109375,2.378331184387207,-0.32407188415527344,1.460709810256958
1782776346709171700,1.326171630859375,1.6824398040771484,-0.6407332420349121,0.5816736817359924
1782776346719151000,1.336151123046875,1.006662368774414,-0.870018720626831,-0.18563973903656006
1782776346729161000,1.346160888671875,0.3269777297973633,-1.050175428390503,-0.5417556762695312
1782776346739170600,1.356170654296875,-0.26970481872558594,-1.1399264335632324,-0.6839397549629211
1782776346749150000,1.36614990234375,-0.6793670654296875,-1.0531322956085205,-0.7877527475357056
1782776346759159800,1.376159912109375,-0.7882652282714844,-0.9907972812652588,-0.760567307472229
1782776346769169400,1.38616943359375,-0.7415542602539062,-0.9751589298248291,-0.4828035235404968
1782776346779179300,1.39617919921875,-0.9089908599853516,-1.0260696411132812,-0.21010303497314453
1782776346789158400,1.406158447265625,-1.144071102142334,-1.0331850051879883,-0.12285685539245605
1782776346799168300,1.416168212890625,-1.4279074668884277,-1.0372188091278076,-0.28756940364837646
1782776346809178000,1.42617822265625,-1.625049114227295,-1.0787756443023682,-0.6254274845123291
1782776346819157200,1.4361572265625,-1.4021244049072266,-1.0739123821258545,-0.8017697334289551
1782776346829166800,1.446166748046875,-0.9026422500610352,-0.9878435134887695,-0.5492322444915771
1782776346839176700,1.4561767578125,-0.41259002685546875,-0.9234404563903809,-0.12682181596755981
1782776346849156000,1.466156005859375,-0.19536876678466797,-0.8075029850006104,0.12416839599609375
1782776346859165700,1.476165771484375,-0.09466934204101562,-0.7025599479675293,0.16228795051574707
1782776346869175600,1.486175537109375,-0.08376026153564453,-0.6002135276794434,0.1632746458053589
1782776346879155000,1.496155029296875,0.06711769104003906,-0.5933916568756104,0.26460444927215576
1782776346889164500,1.50616455078125,0.22146224975585938,-0.5232930183410645,0.478973925113678
1782776346899174400,1.51617431640625,0.34131813049316406,-0.4933924674987793,0.7638137340545654
1782776346909153500,1.526153564453125,0.47100257873535156,-0.28507518768310547,0.8481308817863464
1782776346919163100,1.5361630859375,0.45090770721435547,-0.1830425262451172,0.8278359770774841
1782776346929173000,1.546173095703125,0.2866506576538086,-0.1318354606628418,0.7646105885505676
1782776346939152400,1.55615234375,0.10984039306640625,-0.15754413604736328,0.6814109086990356
1782776346949162200,1.566162353515625,0.09860610961914062,-0.2711813449859619,0.6230629682540894
1782776346959172000,1.576172119140625,0.17567825317382812,-0.39604759216308594,0.685941219329834
1782776346969151200,1.586151123046875,0.20195579528808594,-0.5028073787689209,0.7256566286087036
1782776346979161000,1.5961611328125,0.2535867691040039,-0.6219363212585449,0.7012676000595093
1782776346989170700,1.606170654296875,0.2753582000732422,-0.6603808403015137,0.662743091583252
1782776346999150000,1.616150146484375,0.2389688491821289,-0.6528561115264893,0.5451112985610962
1782776347009159700,1.62615966796875,0.06635665893554688,-0.5080990791320801,0.4011833667755127
1782776347019169300,1.636169189453125,-0.20111656188964844,-0.5485365390777588,0.3588787317276001
1782776347029179100,1.64617919921875,-0.5967683792114258,-0.45151257514953613,0.16677844524383545
1782776347039158500,1.656158447265625,-1.0551557540893555,-0.3384878635406494,0.14716434478759766
1782776347049168100,1.666168212890625,-1.424825668334961,-0.16446566581726074,0.385998010635376
1782776347059178000,1.676177978515625,-1.8214612007141113,0.11057257652282715,0.9557157754898071
1782776347069157400,1.686157470703125,-1.717010498046875,0.6387982368469238,1.8131425380706787
1782776347079167200,1.696167236328125,-0.7025928497314453,1.1062276363372803,2.4874696731567383
1782776347089176800,1.7061767578125,0.9139680862426758,1.0213816165924072,2.8384456634521484
1782776347099156000,1.716156005859375,2.341693878173828,0.5140688419342041,3.0115647315979004
1782776347109165800,1.726165771484375,3.498434066772461,-0.006257772445678711,2.66664981842041
1782776347119175400,1.736175537109375,4.1720991134643555,-0.37720441818237305,1.6538276672363281
1782776347129154800,1.74615478515625,4.209870338439941,-0.8160810470581055,0.46466851234436035
1782776347139164700,1.75616455078125,3.9651365280151367,-1.0745388269424438,-0.6858439445495605
1782776347149174300,1.76617431640625,3.6033363342285156,-1.2430164813995361,-1.4042448997497559
1782776347159153700,1.776153564453125,3.0611257553100586,-1.3113212585449219,-1.7489129304885864
1782776347169163500,1.78616357421875,2.419339179992676,-1.2303847074508667,-1.5193827152252197
1782776347179173000,1.796173095703125,1.6051435470581055,-0.9552544355392456,-0.8083658218383789
1782776347189152300,1.80615234375,0.7010622024536133,-0.6453642845153809,-0.10831236839294434
1782776347199162000,1.816162109375,-0.2805757522583008,-0.3434875011444092,0.43305110931396484
1782776347209171700,1.826171630859375,-1.1581363677978516,-0.1598660945892334,0.7560453414916992
1782776347219151000,1.836151123046875,-1.817065715789795,-0.0502629280090332,1.0514304637908936
1782776347229161000,1.846160888671875,-2.3273487091064453,-0.0018627643585205078,1.3552143573760986
1782776347239170600,1.856170654296875,-2.7280449867248535,0.012480974197387695,1.6248607635498047
1782776347249150000,1.86614990234375,-2.8444080352783203,0.0637502670288086,1.8203907012939453
1782776347259159800,1.876159912109375,-2.784823417663574,0.18410897254943848,2.1073427200317383
1782776347269169400,1.88616943359375,-2.599137783050537,0.20227360725402832,2.353346586227417
1782776347279179300,1.89617919921875,-2.2398362159729004,0.2067570686340332,2.4319286346435547
1782776347289158400,1.906158447265625,-1.7752299308776855,0.16092300415039062,2.4361484050750732
1782776347299168300,1.916168212890625,-1.22086763381958,0.09887552261352539,2.2612898349761963
1782776347309178000,1.92617822265625,-0.624394416809082,0.07357573509216309,2.0924642086029053
1782776347319157200,1.9361572265625,-0.2571573257446289,0.07975149154663086,1.8583545684814453
1782776347329167000,1.9461669921875,0.007457733154296875,0.07829618453979492,1.3927044868469238
1782776347339176700,1.9561767578125,0.22232723236083984,-0.017973899841308594,0.7960669994354248
1782776347349156000,1.966156005859375,0.22115135192871094,-0.1598503589630127,0.38808727264404297
1782776347359166000,1.976166015625,0.13473892211914062,-0.31534838676452637,-0.06495809555053711
1782776347369175600,1.986175537109375,-0.032840728759765625,-0.3271622657775879,-0.37453198432922363
1782776347379155000,1.996155029296875,-0.310821533203125,-0.25557994842529297,-0.5424538850784302
1782776347389164800,2.006164794921875,-0.614079475402832,-0.15722060203552246,-0.5075465440750122
1782776347399174400,2.01617431640625,-0.9468145370483398,0.013565301895141602,-0.3057432174682617
1782776347409153500,2.026153564453125,-1.3301506042480469,0.2071237564086914,0.07273507118225098
1782776347419163400,2.036163330078125,-1.773869514465332,0.4492075443267822,0.5575387477874756
1782776347429173000,2.046173095703125,-2.1183719635009766,0.6485936641693115,0.8720688819885254
1782776347439152400,2.05615234375,-2.339082717895508,0.7571532726287842,1.0207138061523438
1782776347449162200,2.066162353515625,-2.4345545768737793,0.7818667888641357,1.152069091796875
1782776347459171800,2.076171875,-2.45405912399292,0.7698688507080078,1.1927123069763184
1782776347469151200,2.086151123046875,-2.3737754821777344,0.7835118770599365,1.176222562789917
1782776347479161000,2.0961611328125,-2.262730121612549,0.8034036159515381,1.1370031833648682
1782776347489170700,2.106170654296875,-2.0482921600341797,0.7899422645568848,1.123603105545044
1782776347499149800,2.11614990234375,-1.852236270904541,0.7731587886810303,1.1168744564056396
1782776347509159700,2.12615966796875,-1.7006258964538574,0.7852725982666016,1.0407614707946777
1782776347519169300,2.136169189453125,-1.5239343643188477,0.7658491134643555,0.871741771697998
1782776347529179100,2.14617919921875,-1.4322524070739746,0.7361135482788086,0.6819660663604736
1782776347539158500,2.156158447265625,-1.4855341911315918,0.6693911552429199,0.5011751651763916
1782776347549168000,2.166168212890625,-1.5209598541259766,0.6181774139404297,0.19806385040283203
1782776347559178000,2.176177978515625,-1.581334114074707,0.5586979389190674,-0.12091398239135742
1782776347579167000,2.1961669921875,-1.5136933326721191,0.4342219829559326,-0.6196719408035278
1782776347589176800,2.2061767578125,-1.2327227592468262,0.4121551513671875,-0.8131744861602783
1782776347599156000,2.216156005859375,-0.801875114440918,0.4587225914001465,-0.9447978138923645
1782776347609165600,2.22616552734375,-0.12559032440185547,0.4715707302093506,-1.034386157989502
1782776347618760400,2.235760498046875,0.4071779251098633,0.5538039207458496,-1.0140626430511475
1782776347629185300,2.246185302734375,0.7749166488647461,0.6080331802368164,-0.867710292339325
1782776347639164700,2.25616455078125,1.0260944366455078,0.7272357940673828,-0.6673872470855713
1782776347649174300,2.26617431640625,1.1048641204833984,0.8054959774017334,-0.5835071802139282
1782776347659153700,2.276153564453125,0.9573526382446289,0.8906147480010986,-0.699556827545166
1782776347669163500,2.28616357421875,0.6808795928955078,0.830420732498169,-1.0433897972106934
1782776347679173000,2.296173095703125,0.3391580581665039,0.600710391998291,-1.3519253730773926
1782776347689152300,2.30615234375,-0.07729244232177734,0.49990200996398926,-1.5487760305404663
1782776347699162000,2.316162109375,-0.31113338470458984,0.610957145690918,-1.397292137145996
1782776347709171700,2.326171630859375,-0.2516803741455078,0.8606710433959961,-0.6722152233123779
1782776347719151000,2.336151123046875,0.27819156646728516,1.1079316139221191,0.3554377555847168
1782776347729161000,2.346160888671875,1.343733787536621,1.2464220523834229,1.2176015377044678
1782776347739170600,2.356170654296875,2.6306915283203125,1.193199872970581,1.7461669445037842
1782776347749150000,2.36614990234375,3.818817138671875,0.9830043315887451,1.8980967998504639
1782776347759159800,2.376159912109375,4.6507110595703125,0.5309159755706787,1.4978548288345337
1782776347769169400,2.38616943359375,4.567925453186035,-0.015083789825439453,0.6108773946762085
1782776347779179300,2.39617919921875,3.743276596069336,-0.5487058162689209,-0.3433133363723755
1782776347789158400,2.406158447265625,2.3910436630249023,-1.0341795682907104,-1.1939697265625
1782776347799168300,2.416168212890625,0.9159727096557617,-1.332392930984497,-1.8836416006088257
1782776347809178000,2.42617822265625,-0.3207206726074219,-1.474784016609192,-2.378756523132324
1782776347819157200,2.4361572265625,-1.2066993713378906,-1.5616014003753662,-2.526505947113037
1782776347829167000,2.4461669921875,-1.606762409210205,-1.4924839735031128,-2.448535203933716
1782776347839176700,2.4561767578125,-1.675950527191162,-1.357874870300293,-2.1769204139709473
1782776347849156000,2.466156005859375,-1.5676937103271484,-1.2337952852249146,-1.867746353149414
1782776347859165700,2.476165771484375,-1.3116817474365234,-1.082776427268982,-1.6370909214019775
1782776347869175600,2.486175537109375,-1.1445531845092773,-0.9780919551849365,-1.4040141105651855
1782776347879155000,2.496155029296875,-1.1054153442382812,-0.9157047271728516,-1.0845814943313599
1782776347889164500,2.50616455078125,-1.383580207824707,-0.9138929843902588,-0.5653212070465088
1782776347899174400,2.51617431640625,-1.8165035247802734,-0.6715283393859863,0.09601062536239624
1782776347909153500,2.526153564453125,-1.893564224243164,-0.17188334465026855,0.7423796057701111
1782776347919163100,2.5361630859375,-1.2826690673828125,0.33084583282470703,1.5007305145263672
1782776347929173000,2.546173095703125,-0.1655435562133789,0.6146104335784912,2.284972667694092
1782776347939152400,2.55615234375,1.1110954284667969,0.630573034286499,3.0221147537231445
1782776347949162200,2.566162353515625,2.2760515213012695,0.3618204593658447,3.199708938598633
1782776347959171800,2.576171875,3.024026870727539,-0.09746861457824707,2.7677078247070312
1782776347969151200,2.586151123046875,3.301142692565918,-0.6967854499816895,1.925734043121338
1782776347979161000,2.5961611328125,3.091914176940918,-1.2160210609436035,0.7823233604431152
1782776347989170700,2.606170654296875,2.7099905014038086,-1.6796252727508545,-0.20998799800872803
1782776347999150000,2.616150146484375,2.3238983154296875,-2.0245494842529297,-0.9065359830856323
1782776348009159700,2.62615966796875,1.9546184539794922,-2.1725211143493652,-1.1558263301849365
1782776348019169300,2.636169189453125,1.5476245880126953,-2.141758918762207,-1.0980548858642578
1782776348029179100,2.64617919921875,1.0128660202026367,-2.041017532348633,-0.8625988960266113
1782776348039158500,2.656158447265625,0.2959270477294922,-1.9626061916351318,-0.5917474031448364
1782776348049168100,2.666168212890625,-0.5346126556396484,-1.8264528512954712,-0.3185099959373474
1782776348059178000,2.676177978515625,-1.30157470703125,-1.7206714153289795,-0.07818710803985596
1782776348069157400,2.686157470703125,-1.9704227447509766,-1.6395763158798218,0.07789361476898193
1782776348079167200,2.696167236328125,-2.574375629425049,-1.5469930171966553,0.20920813083648682
1782776348089176800,2.7061767578125,-3.0529370307922363,-1.5062367916107178,0.22793173789978027
1782776348099156000,2.716156005859375,-3.3744754791259766,-1.4863600730895996,0.15415728092193604
1782776348109165800,2.726165771484375,-3.59323787689209,-1.4688310623168945,-0.08983099460601807
1782776348121474300,2.738474365234375,-3.518873691558838,-1.4311645030975342,-0.4368654191493988
1782776348139164700,2.75616455078125,-2.6565303802490234,-1.3147716522216797,-0.5805100202560425
1782776348149174300,2.76617431640625,-1.7256560325622559,-1.2519001960754395,-0.47911587357521057
1782776348159153700,2.776153564453125,-0.7533321380615234,-1.2694754600524902,-0.37542450428009033
1782776348169163300,2.786163330078125,0.2741384506225586,-1.2838499546051025,-0.2848659157752991
1782776348179173000,2.796173095703125,1.3230953216552734,-1.1883699893951416,-0.22773665189743042
1782776348189152300,2.80615234375,2.1372947692871094,-1.0053200721740723,0.02375316619873047
1782776348199162000,2.816162109375,2.7815074920654297,-0.7719926834106445,0.4408215284347534
1782776348209171700,2.826171630859375,3.34848690032959,-0.49454236030578613,1.0244526863098145
1782776348219151000,2.836151123046875,3.724240303039551,-0.3161168098449707,1.6465383768081665
1782776348229161000,2.846160888671875,3.8920040130615234,-0.24201321601867676,2.231693744659424
1782776348239170600,2.856170654296875,3.805105209350586,-0.2065753936767578,2.6519393920898438
1782776348249150000,2.86614990234375,3.402070999145508,-0.33937573432922363,2.840334415435791
1782776348259159800,2.876159912109375,2.7137861251831055,-0.5844032764434814,2.7299351692199707
1782776348269169400,2.88616943359375,1.9416770935058594,-0.77799391746521,2.524176597595215
1782776348279179300,2.89617919921875,1.1555347442626953,-0.9799890518188477,2.273463487625122
1782776348289158700,2.90615869140625,0.3864727020263672,-1.2067599296569824,2.1206204891204834
1782776348299168300,2.916168212890625,-0.1867837905883789,-1.3879947662353516,2.069423198699951
1782776348309178000,2.92617822265625,-0.7069320678710938,-1.548804521560669,2.051793098449707
1782776348319157200,2.9361572265625,-1.1132383346557617,-1.6465282440185547,2.0220999717712402
1782776348329167000,2.9461669921875,-1.429697036743164,-1.6524279117584229,2.0718507766723633
1782776348339176700,2.9561767578125,-1.7241926193237305,-1.636409044265747,2.1573543548583984
1782776348349156000,2.966156005859375,-1.9614553451538086,-1.602802038192749,2.2506632804870605
1782776348359166000,2.976166015625,-2.2170209884643555,-1.5897152423858643,2.5069594383239746
1782776348369175600,2.986175537109375,-2.2544384002685547,-1.5457706451416016,3.0243444442749023
1782776348379155000,2.996155029296875,-1.8611979484558105,-1.5495092868804932,3.626498222351074
1782776348389164800,3.006164794921875,-1.0394964218139648,-1.6376590728759766,4.132987976074219
1782776348399174400,3.01617431640625,0.02550792694091797,-1.9707422256469727,4.545037269592285
1782776348409153500,3.026153564453125,0.7336912155151367,-2.434438467025757,4.705565929412842
1782776348419163400,3.036163330078125,1.2276697158813477,-2.84013032913208,4.503452777862549
1782776348429173000,3.046173095703125,1.411055564880371,-3.2931480407714844,3.868619918823242
1782776348439152400,3.05615234375,1.357203483581543,-3.8051905632019043,2.9505717754364014
1782776348449162200,3.066162353515625,1.1930274963378906,-4.315573215484619,2.00303316116333
1782776348459171800,3.076171875,1.2087736129760742,-4.667028903961182,1.1590163707733154
1782776348469151200,3.086151123046875,1.4208927154541016,-4.851664066314697,0.4689812660217285
1782776348479161000,3.0961611328125,1.7341337203979492,-4.926965713500977,-0.11211442947387695
1782776348489170700,3.106170654296875,2.0650672912597656,-4.981614589691162,-0.4539351463317871
1782776348499149800,3.11614990234375,2.389913558959961,-4.923246383666992,-0.6563254594802856
1782776348509159700,3.12615966796875,2.5306224822998047,-4.770353317260742,-0.6606322526931763
1782776348519169300,3.136169189453125,2.5918664932250977,-4.560121536254883,-0.5857574939727783
1782776348529179100,3.14617919921875,2.622929573059082,-4.286396026611328,-0.4300321340560913
1782776348539158500,3.156158447265625,2.634707450866699,-3.9927945137023926,-0.17769217491149902
1782776348549168000,3.166168212890625,2.442561149597168,-3.7230746746063232,0.07535028457641602
1782776348559178000,3.176177978515625,2.028696060180664,-3.4219179153442383,0.34741973876953125
1782776348569157400,3.186157470703125,1.5622282028198242,-3.1663942337036133,0.5774288177490234
1782776348579167200,3.196167236328125,1.0794334411621094,-2.9978959560394287,0.7437725067138672
1782776348589176800,3.2061767578125,0.6570205688476562,-2.868802547454834,0.8200280666351318
1782776348599156000,3.216156005859375,0.37943077087402344,-2.794074058532715,0.7991535663604736
1782776348609165800,3.226165771484375,0.20864582061767578,-2.7533743381500244,0.667236328125
1782776348619255800,3.236255859375,0.226165771484375,-2.762643337249756,0.41665077209472656
1782776348629154800,3.24615478515625,0.39072513580322266,-2.8335728645324707,0.06218862533569336
1782776348639164400,3.256164306640625,0.6298465728759766,-2.91387939453125,-0.28421735763549805
1782776348649174300,3.26617431640625,0.9955959320068359,-2.9348082542419434,-0.5716886520385742
1782776348659153700,3.276153564453125,1.2815332412719727,-2.914135456085205,-0.8207225799560547
1782776348669163500,3.28616357421875,1.4897260665893555,-2.836392402648926,-0.9682388305664062
1782776348679173000,3.296173095703125,1.5961647033691406,-2.7198259830474854,-1.0499086380004883
1782776348689152300,3.30615234375,1.6394262313842773,-2.5415875911712646,-0.9856936931610107
1782776348699162000,3.316162109375,1.6245994567871094,-2.3575282096862793,-0.8374307155609131
1782776348709171700,3.326171630859375,1.5075511932373047,-2.191307783126831,-0.6594948768615723
1782776348719151000,3.336151123046875,1.2602910995483398,-2.0271341800689697,-0.5454316139221191
1782776348729161000,3.346160888671875,0.9360942840576172,-1.8271249532699585,-0.4282670021057129
1782776348739170600,3.356170654296875,0.5618228912353516,-1.6332985162734985,-0.2871425151824951
1782776348749150000,3.36614990234375,0.19775867462158203,-1.432523488998413,-0.09156513214111328
1782776348759159800,3.376159912109375,-0.1322336196899414,-1.261228322982788,0.06727051734924316
1782776348769169400,3.38616943359375,-0.41229820251464844,-1.1492810249328613,0.13296937942504883
1782776348779179300,3.39617919921875,-0.6088485717773438,-1.048792839050293,0.14356660842895508
1782776348789158700,3.40615869140625,-0.7615623474121094,-0.8783607482910156,0.22351598739624023
1782776348799168300,3.416168212890625,-0.7922163009643555,-0.7598199844360352,0.3718068599700928
1782776348809178000,3.42617822265625,-0.726804256439209,-0.6237211227416992,0.5275058746337891
1782776348819157200,3.4361572265625,-0.7209768295288086,-0.5558574199676514,0.6398983001708984
1782776348829166800,3.446166748046875,-0.7558073997497559,-0.5643949508666992,0.6751081943511963
1782776348839176700,3.4561767578125,-0.8004422187805176,-0.5634181499481201,0.598590612411499
1782776348849156000,3.466156005859375,-0.7402381896972656,-0.5162889957427979,0.5253643989562988
1782776348859165700,3.476165771484375,-0.6397457122802734,-0.519789457321167,0.4366590976715088
1782776348869175600,3.486175537109375,-0.5184049606323242,-0.537773609161377,0.4147017002105713
1782776348879155000,3.496155029296875,-0.4240236282348633,-0.5559806823730469,0.30889248847961426
1782776348889164800,3.506164794921875,-0.3013916015625,-0.5746328830718994,0.19848084449768066
1782776348899174400,3.51617431640625,-0.2002887725830078,-0.5628228187561035,0.07770657539367676
1782776348909153500,3.526153564453125,-0.0555572509765625,-0.6168129444122314,-0.12832236289978027
1782776348919163100,3.5361630859375,0.13116931915283203,-0.6677825450897217,-0.3492969274520874
1782776348929173000,3.546173095703125,0.22155475616455078,-0.6858651638031006,-0.515479326248169
1782776348939152400,3.55615234375,0.20254135131835938,-0.6996750831604004,-0.6663839817047119
1782776348949162200,3.566162353515625,0.14912700653076172,-0.6727030277252197,-0.7781679630279541
1782776348959171800,3.576171875,0.019289016723632812,-0.6543600559234619,-0.8528709411621094
1782776348969151200,3.586151123046875,-0.06415939331054688,-0.5664722919464111,-0.87340247631073
1782776348979161000,3.5961611328125,-0.11739253997802734,-0.44994688034057617,-0.7733529806137085
1782776348989170700,3.606170654296875,-0.1930713653564453,-0.3314507007598877,-0.6367104053497314
1782776348999150000,3.616150146484375,-0.30547332763671875,-0.20862603187561035,-0.39036035537719727
1782776349009159700,3.62615966796875,-0.5199480056762695,-0.10947322845458984,-0.2554570436477661
1782776349019169300,3.636169189453125,-0.7654485702514648,-0.05023789405822754,-0.21972143650054932
1782776349029179100,3.64617919921875,-0.949913501739502,-0.019275188446044922,-0.1921381950378418
1782776349039158500,3.656158447265625,-0.9216499328613281,-0.032027244567871094,-0.22541356086730957
1782776349049168100,3.666168212890625,-0.7486305236816406,-0.04536581039428711,-0.1908472776412964
1782776349059178000,3.676177978515625,-0.4913320541381836,-0.07446622848510742,-0.08648443222045898
1782776349069157400,3.686157470703125,-0.3389301300048828,-0.1255931854248047,-0.03918957710266113
1782776349079167200,3.696167236328125,-0.07629203796386719,-0.12379121780395508,-0.10487794876098633
1782776349089176800,3.7061767578125,0.20049571990966797,-0.09685635566711426,-0.3227730989456177
1782776349099156000,3.716156005859375,0.35772132873535156,-0.10251021385192871,-0.5404793620109558
1782776349109165800,3.726165771484375,0.2517547607421875,-0.1572716236114502,-0.7453361749649048
1782776349119175400,3.736175537109375,0.039615631103515625,-0.13418793678283691,-0.843662679195404
1782776349129154800,3.74615478515625,0.0138702392578125,0.02122330665588379,-0.8594621419906616
1782776349139164700,3.75616455078125,0.37661075592041016,0.1506030559539795,-0.40368443727493286
1782776349149174300,3.76617431640625,1.1046361923217773,0.15498065948486328,0.2423490285873413
1782776349159153700,3.776153564453125,1.897623062133789,0.15761947631835938,0.8632528781890869
1782776349169163300,3.786163330078125,2.5417022705078125,0.05802488327026367,0.9878808259963989
1782776349179173000,3.796173095703125,2.764153480529785,-0.1252460479736328,0.6411755084991455
1782776349189152300,3.80615234375,2.410511016845703,-0.45869970321655273,-0.010313749313354492
1782776349199162000,3.816162109375,1.5391712188720703,-0.7837784290313721,-0.7044380307197571
1782776349209171700,3.826171630859375,0.42641639709472656,-0.9601912498474121,-1.302234172821045
1782776349219151000,3.836151123046875,-0.6158380508422852,-0.9397518634796143,-1.7214314937591553
1782776349229161000,3.846160888671875,-1.427351474761963,-0.7876436710357666,-1.9203875064849854
1782776349239170600,3.856170654296875,-2.0036420822143555,-0.5719277858734131,-1.6974875926971436
1782776349249150000,3.86614990234375,-2.2685365676879883,-0.342944860458374,-1.3114550113677979
1782776349259159800,3.876159912109375,-2.3291068077087402,-0.053487300872802734,-0.9012911319732666
1782776349269169400,3.88616943359375,-2.2497081756591797,0.23403024673461914,-0.42880409955978394
1782776349279179300,3.89617919921875,-1.8069343566894531,0.4224731922149658,-0.11278277635574341
1782776349289158700,3.90615869140625,-0.7646665573120117,0.5094537734985352,0.05822628736495972
1782776349299108400,3.9161083984375,0.6968154907226562,0.49979496002197266,0.32047247886657715
1782776349310099500,3.927099365234375,2.3837947845458984,0.5242552757263184,0.665572464466095
1782776349329166800,3.946166748046875,4.295537948608398,0.38646364212036133,0.3802412748336792
1782776349339176700,3.9561767578125,4.42437744140625,0.1708834171295166,-0.17088103294372559
1782776349349156000,3.966156005859375,3.839487075805664,-0.05556488037109375,-0.7078700661659241
1782776349359165700,3.976165771484375,2.849008560180664,-0.2353372573852539,-1.0939804315567017
1782776349369175600,3.986175537109375,1.976165771484375,-0.373706579208374,-1.34242844581604
1782776349379095000,3.996094970703125,1.4226512908935547,-0.46820497512817383,-1.3572536706924438
1782776349389165800,4.006165771484375,1.2687263488769531,-0.540069580078125,-1.1391096115112305
1782776349399235300,4.0162353515625,1.336679458618164,-0.6448690891265869,-0.8077566623687744
1782776349409153500,4.026153564453125,1.2102460861206055,-0.7485113143920898,-0.6019402146339417
1782776349419163400,4.036163330078125,0.8973846435546875,-0.8835303783416748,-0.656536340713501
1782776349429173000,4.046173095703125,0.2481851577758789,-1.017716884613037,-0.7506157159805298
1782776349439092700,4.0560927734375,-0.6311197280883789,-1.2204010486602783,-0.9540239572525024
1782776349449163500,4.06616357421875,-1.6633687019348145,-1.480208396911621,-1.3461735248565674
1782776349459233000,4.07623291015625,-2.5349745750427246,-1.671330451965332,-1.6465532779693604
1782776349469151200,4.086151123046875,-3.236520767211914,-1.8060510158538818,-1.8952733278274536
1782776349479161000,4.0961611328125,-3.8043251037597656,-1.8811280727386475,-2.0574445724487305
1782776349489170700,4.106170654296875,-4.1073198318481445,-1.8923323154449463,-2.197763442993164
1782776349499149800,4.11614990234375,-4.09837007522583,-1.9160330295562744,-2.355893611907959
1782776349509159700,4.12615966796875,-3.838040351867676,-1.8713061809539795,-2.3663878440856934
1782776349519169300,4.136169189453125,-3.50856876373291,-1.8345630168914795,-2.3111329078674316
1782776349529179100,4.14617919921875,-3.1816654205322266,-1.7395567893981934,-2.1528682708740234
1782776349539158500,4.156158447265625,-2.796710968017578,-1.6001791954040527,-1.8813234567642212
1782776349549168000,4.166168212890625,-2.2238354682922363,-1.5591320991516113,-1.7327146530151367
1782776349559178000,4.176177978515625,-1.640049934387207,-1.5612287521362305,-1.6306129693984985
1782776349569157400,4.186157470703125,-1.2218732833862305,-1.5469286441802979,-1.5258632898330688
1782776349579167200,4.196167236328125,-0.9950594902038574,-1.4801411628723145,-1.3529024124145508
1782776349589176800,4.2061767578125,-0.9689426422119141,-1.3663151264190674,-1.1663086414337158
1782776349599156000,4.216156005859375,-1.090318202972412,-1.2998552322387695,-1.0417068004608154
1782776349609165800,4.226165771484375,-1.2157716751098633,-1.1936702728271484,-0.9597584009170532
1782776349619175400,4.236175537109375,-1.3122544288635254,-1.0892455577850342,-0.8441926836967468
1782776349629154800,4.24615478515625,-1.3259081840515137,-0.9881861209869385,-0.6721512079238892
1782776349639164700,4.25616455078125,-1.1050701141357422,-0.939582109451294,-0.6257185935974121
1782776349649174300,4.26617431640625,-0.589360237121582,-0.936673641204834,-0.5941333174705505
1782776349659153700,4.276153564453125,0.0698995590209961,-0.8971457481384277,-0.5898132920265198
1782776349669163500,4.28616357421875,0.5025501251220703,-0.8808896541595459,-0.6741297245025635
1782776349679173000,4.296173095703125,0.7128763198852539,-0.8109784126281738,-0.7530818581581116
1782776349689152300,4.30615234375,0.7305459976196289,-0.6756703853607178,-0.7887147068977356
1782776349699162000,4.316162109375,0.6797103881835938,-0.5272400379180908,-0.787919819355011
1782776349709171700,4.326171630859375,0.6611843109130859,-0.39882588386535645,-0.7915287613868713
1782776349719151000,4.336151123046875,0.6829757690429688,-0.23931407928466797,-0.7055051326751709
1782776349729161000,4.346160888671875,0.7288436889648438,-0.0523223876953125,-0.5539791584014893
1782776349739170600,4.356170654296875,0.7832422256469727,0.1616814136505127,-0.40435779094696045
1782776349749150000,4.36614990234375,0.7648801803588867,0.3277571201324463,-0.2809380292892456
1782776349759159800,4.376159912109375,0.6880302429199219,0.48593831062316895,-0.23173654079437256
1782776349769169400,4.38616943359375,0.5400810241699219,0.7142918109893799,-0.11867713928222656
1782776349779179300,4.39617919921875,0.5190668106079102,0.937830924987793,-0.021143794059753418
1782776349789158700,4.40615869140625,0.5069980621337891,1.1924059391021729,0.16402572393417358
1782776349799168300,4.416168212890625,0.5585603713989258,1.4738011360168457,0.4632974863052368
1782776349809178000,4.42617822265625,0.6400060653686523,1.7183969020843506,0.8573203086853027
1782776349819157200,4.4361572265625,0.6678009033203125,1.9181387424468994,1.2983840703964233
1782776349829166800,4.446166748046875,0.6185092926025391,2.1216678619384766,1.7287920713424683
1782776349839176700,4.4561767578125,0.5982265472412109,2.3403217792510986,2.208982467651367
1782776349849156000,4.466156005859375,0.6339693069458008,2.601593255996704,2.5425469875335693
1782776349859165700,4.476165771484375,0.6041040420532227,2.7920916080474854,2.7212142944335938
1782776349869175600,4.486175537109375,0.5159950256347656,3.4066779613494873,2.6764655113220215
1782776349879155000,4.496155029296875,0.009729385375976562,3.535510540008545,2.863921880722046
1782776349889164800,4.506164794921875,-0.12031841278076172,3.174771547317505,3.2491989135742188
1782776349899174400,4.51617431640625,-0.08330154418945312,2.8112990856170654,3.529810667037964
1782776349909153500,4.526153564453125,-0.05749034881591797,2.4369866847991943,3.655410051345825
1782776349919163400,4.536163330078125,0.21350574493408203,1.9402148723602295,3.5244503021240234
1782776349929173000,4.546173095703125,0.7270116806030273,1.451026439666748,3.312812566757202
1782776349939152400,4.55615234375,1.4023218154907227,0.9581177234649658,3.1208689212799072
1782776349949162200,4.566162353515625,2.0903472900390625,0.41326379776000977,2.906416893005371
1782776349959171800,4.576171875,2.6826047897338867,-0.2892470359802246,2.269585609436035
1782776349969151200,4.586151123046875,3.0593109130859375,-1.175777792930603,1.1579205989837646
1782776349979161000,4.5961611328125,3.1722469329833984,-1.7992942333221436,-0.4891335964202881
1782776349989170700,4.606170654296875,3.0538930892944336,-2.27702260017395,-2.0069878101348877
1782776349999150000,4.616150146484375,2.7602386474609375,-2.6583404541015625,-3.1192433834075928
1782776350009159700,4.62615966796875,2.215773582458496,-2.8333969116210938,-3.7312612533569336
1782776350019169300,4.636169189453125,1.4416093826293945,-2.852376699447632,-3.898074150085449
1782776350029179100,4.64617919921875,0.5951509475708008,-2.6574909687042236,-3.847788095474243
1782776350039158500,4.656158447265625,-0.07036685943603516,-2.3750782012939453,-3.5312039852142334
1782776350049108500,4.6661083984375,-0.5186061859130859,-2.0962181091308594,-2.9022445678710938
1782776350059239200,4.6762392578125,-0.8129644393920898,-1.8270666599273682,-2.2550041675567627
1782776350069157400,4.686157470703125,-0.9817447662353516,-1.5578935146331787,-1.7431191205978394
1782776350079167000,4.6961669921875,-1.0180988311767578,-1.1957924365997314,-1.1922508478164673
1782776350089176800,4.7061767578125,-1.0339527130126953,-1.0017189979553223,-0.7600444555282593
1782776350099156000,4.716156005859375,-0.8571109771728516,-0.8341795206069946,-0.45260941982269287
1782776350109165800,4.726165771484375,-0.41678619384765625,-0.7055633068084717,-0.29405033588409424
1782776350119175400,4.736175537109375,0.22347259521484375,-0.6216154098510742,-0.08006596565246582
1782776350129154800,4.74615478515625,0.9216718673706055,-0.6601300239562988,-0.0731968879699707
1782776350139164700,4.75616455078125,1.7433176040649414,-0.795259952545166,-0.40657246112823486
1782776350149174300,4.76617431640625,2.5347719192504883,-1.0634305477142334,-1.0007745027542114
1782776350159153700,4.776153564453125,3.0303688049316406,-1.3214894533157349,-1.7448673248291016
1782776350169163500,4.78616357421875,3.2577733993530273,-1.4754321575164795,-2.4279625415802
1782776350179173000,4.796173095703125,2.9223785400390625,-1.5610581636428833,-2.841886043548584
1782776350189152300,4.80615234375,2.0801315307617188,-1.4200193881988525,-3.0434656143188477
1782776350199162000,4.816162109375,1.1847572326660156,-1.235442042350769,-3.0137956142425537
1782776350209172000,4.826171875,0.4327354431152344,-1.0275369882583618,-2.7788703441619873
1782776350219151000,4.836151123046875,-0.23162174224853516,-0.8073700666427612,-2.410217761993408
1782776350229161000,4.846160888671875,-0.841094970703125,-0.47542500495910645,-1.932847261428833
1782776350239170600,4.856170654296875,-1.3770456314086914,-0.18308568000793457,-1.4886422157287598
1782776350249150000,4.86614990234375,-1.8215985298156738,0.05811905860900879,-1.1282172203063965
1782776350259159800,4.876159912109375,-2.1693220138549805,0.21939730644226074,-0.8726413249969482
1782776350269169400,4.88616943359375,-2.3913960456848145,0.3326849937438965,-0.6266628503799438
1782776350279179300,4.89617919921875,-2.4930076599121094,0.3968331813812256,-0.48167097568511963
1782776350289158700,4.90615869140625,-2.385589122772217,0.43236732482910156,-0.4033052921295166
1782776350299168300,4.916168212890625,-2.168952465057373,0.48767971992492676,-0.3048638105392456
1782776350309178000,4.92617822265625,-1.9540085792541504,0.5102157592773438,-0.1377490758895874
1782776350319157200,4.9361572265625,-1.757746696472168,0.5138580799102783,-0.07035017013549805
1782776350329166800,4.946166748046875,-1.6157341003417969,0.5207645893096924,-0.06077110767364502
1782776350339176700,4.9561767578125,-1.5012297630310059,0.50071120262146,-0.06522834300994873
1782776350349156000,4.966156005859375,-1.2654690742492676,0.4526045322418213,-0.11660349369049072
1782776350359165700,4.976165771484375,-1.084371566772461,0.3914966583251953,-0.17974555492401123
1782776350369175600,4.986175537109375,-0.9853496551513672,0.3173189163208008,-0.30491507053375244
1782776350379155000,4.996155029296875,-0.9386253356933594,0.3116636276245117,-0.4290914535522461
1782776350389164500,5.00616455078125,-0.8404741287231445,0.2892491817474365,-0.585048258304596
1782776350399174400,5.01617431640625,-0.7278518676757812,0.25797367095947266,-0.595980167388916
1782776350409153500,5.026153564453125,-0.550837516784668,0.26332664489746094,-0.4284893274307251
1782776350419163100,5.0361630859375,-0.2885580062866211,0.2925751209259033,-0.2057018280029297
1782776350429173000,5.046173095703125,-0.12911605834960938,0.30541563034057617,0.06054842472076416
1782776350439152400,5.05615234375,-0.013830184936523438,0.35924553871154785,0.2725951671600342
1782776350449162200,5.066162353515625,0.36284446716308594,0.40549755096435547,0.45424962043762207
1782776350459171800,5.076171875,0.7537345886230469,0.3929457664489746,0.6369493007659912
1782776350469151200,5.086151123046875,1.029184341430664,0.39855217933654785,0.6787571907043457
1782776350479161000,5.0961611328125,1.0572633743286133,0.46161937713623047,0.44147491455078125
1782776350489170700,5.106170654296875,0.933863639831543,0.4174637794494629,0.050578951835632324
1782776350499150000,5.116150146484375,0.8296184539794922,0.37144947052001953,0.12492227554321289
1782776350509159700,5.12615966796875,1.0574636459350586,0.36076998710632324,0.8394073247909546
1782776350519169300,5.136169189453125,1.7559823989868164,0.28957271575927734,1.6739988327026367
1782776350529179100,5.14617919921875,2.608853340148926,0.05329585075378418,2.1018667221069336
1782776350539158500,5.156158447265625,3.306462287902832,-0.2728903293609619,2.0639095306396484
1782776350549168000,5.166168212890625,3.788529396057129,-0.5269193649291992,1.756118893623352
1782776350559178000,5.176177978515625,3.999138832092285,-0.7872273921966553,1.3366190195083618
1782776350569157400,5.186157470703125,3.8527069091796875,-1.1572821140289307,1.027343988418579
1782776350579167200,5.196167236328125,3.38983154296875,-1.610443115234375,0.5301642417907715
1782776350589176800,5.2061767578125,2.757711410522461,-1.9475146532058716,-0.2417762279510498
1782776350599142700,5.216142578125,1.9531126022338867,-2.2536845207214355,-1.0290273427963257
1782776350609152300,5.22615234375,0.8954315185546875,-2.4914214611053467,-1.4815478324890137
1782776350619162000,5.236162109375,-0.15337848663330078,-2.5478641986846924,-1.5382215976715088
1782776350629141500,5.2461416015625,-1.1524772644042969,-2.4523446559906006,-1.2430084943771362
1782776350639151400,5.2561513671875,-2.042736530303955,-2.332336664199829,-0.9516693949699402
1782776350649161000,5.266160888671875,-2.761867046356201,-2.2438111305236816,-0.7571401596069336
1782776350659140400,5.276140380859375,-3.241593360900879,-2.175508975982666,-0.7065523266792297
1782776350669150000,5.28614990234375,-3.380819797515869,-2.127459764480591,-0.6499954462051392
1782776350679159800,5.296159912109375,-3.2434563636779785,-2.152911901473999,-0.729964017868042
1782776350689139000,5.306138916015625,-2.761092185974121,-2.254088878631592,-0.6025331020355225
1782776350699148800,5.316148681640625,-2.1571969985961914,-2.2900753021240234,-0.13961553573608398
1782776350709158700,5.32615869140625,-1.233198642730713,-2.06248140335083,0.644287109375
1782776350719137800,5.3361376953125,-0.2960987091064453,-1.776423454284668,1.2595775127410889
1782776350729147600,5.346147705078125,0.6683540344238281,-1.5178930759429932,1.6622130870819092
1782776350739157200,5.3561572265625,1.5979547500610352,-1.3743891716003418,1.7565773725509644
1782776350749136600,5.36613671875,2.3298463821411133,-1.3334071636199951,1.4789117574691772
1782776350759146500,5.376146484375,2.7992658615112305,-1.4503631591796875,0.8573882579803467
1782776350769156400,5.38615625,2.893538475036621,-1.7178982496261597,0.12035214900970459
1782776350779166000,5.396166015625,2.688873291015625,-1.9630681276321411,-0.6280742883682251
1782776350789145000,5.40614501953125,2.3288440704345703,-2.059706449508667,-1.21945059299469
1782776350799155000,5.416155029296875,1.782883644104004,-1.955487847328186,-1.396533489227295
1782776350809164800,5.426164794921875,1.2529211044311523,-1.7196637392044067,-1.2805205583572388
1782776350819144000,5.43614404296875,0.6857099533081055,-1.427073359489441,-0.9585222601890564
1782776350829153800,5.44615380859375,0.16777515411376953,-1.1283540725708008,-0.5802996754646301
1782776350839163400,5.456163330078125,-0.41533565521240234,-0.7831864356994629,-0.06978082656860352
1782776350849142800,5.466142822265625,-1.1192998886108398,-0.42130446434020996,0.39441704750061035
1782776350859152600,5.476152587890625,-1.6014533042907715,-0.1742854118347168,0.5182616710662842
1782776350869162200,5.486162353515625,-1.797250747680664,-0.07012772560119629,0.5307110548019409
1782776350879141600,5.4961416015625,-1.8941640853881836,-0.12099790573120117,0.4621776342391968
1782776350889151500,5.5061513671875,-1.9102883338928223,-0.20858454704284668,0.31039929389953613
1782776350899161000,5.5161611328125,-1.7859773635864258,-0.2409956455230713,0.06713402271270752
1782776350909140200,5.52614013671875,-1.5734820365905762,-0.23041200637817383,-0.14336657524108887
1782776350919150000,5.536150146484375,-1.185218334197998,-0.23897171020507812,-0.22971129417419434
1782776350929159700,5.54615966796875,-0.7753448486328125,-0.26685214042663574,-0.18662625551223755
1782776350939139000,5.55613916015625,-0.5554904937744141,-0.25777697563171387,-0.22848165035247803
1782776350949149000,5.56614892578125,-0.4817695617675781,-0.286592960357666,-0.4676433801651001
1782776350959158500,5.576158447265625,-0.42473411560058594,-0.2369682788848877,-0.3829740285873413
1782776350969138000,5.586137939453125,-0.43501758575439453,-0.08633160591125488,0.013524889945983887
1782776350979147800,5.596147705078125,-0.5918388366699219,0.14958858489990234,0.4382673501968384
1782776350989157400,5.606157470703125,-0.6442375183105469,0.165208101272583,0.44240283966064453
1782776350999136500,5.616136474609375,-0.5675945281982422,-0.05279111862182617,0.2692002058029175
1782776351009146400,5.626146484375,-0.3536405563354492,-0.23619723320007324,0.09888911247253418
1782776351019156000,5.636156005859375,-0.1441049575805664,-0.39426207542419434,-0.32951778173446655
1782776351029165800,5.646165771484375,-0.011973381042480469,-0.5246312618255615,-0.511213481426239
1782776351039145200,5.656145263671875,-0.01665210723876953,-0.6332316398620605,-0.5232102274894714
1782776351049154800,5.66615478515625,0.09572410583496094,-0.6986465454101562,-0.5908317565917969
1782776351059164700,5.67616455078125,0.22443675994873047,-0.8106567859649658,-0.6297898292541504
1782776351069144000,5.68614404296875,0.26418399810791016,-0.6624760627746582,-0.36551332473754883
1782776351079153700,5.696153564453125,0.4847564697265625,-0.4253966808319092,-0.11109232902526855
1782776351089163500,5.70616357421875,0.7977476119995117,-0.2132112979888916,0.060568809509277344
1782776351099142700,5.716142578125,1.0283050537109375,-0.1241922378540039,0.10382556915283203
1782776351109152500,5.726152587890625,1.3075275421142578,0.0749058723449707,0.2531702518463135
1782776351119162000,5.736162109375,1.5688114166259766,0.3260684013366699,0.6592370271682739
1782776351129141500,5.7461416015625,1.703878402709961,0.7804131507873535,1.0365643501281738
1782776351139091700,5.756091796875,1.7738370895385742,1.2960920333862305,0.9945999383926392
1782776351149222100,5.76622216796875,1.3869142532348633,1.593268871307373,0.9429768323898315
1782776351159140400,5.776140380859375,0.522216796875,1.515305519104004,1.3203705549240112
1782776351169150200,5.786150146484375,-0.6377544403076172,1.3649859428405762,1.598874807357788
1782776351179159800,5.796159912109375,-1.346689224243164,1.4625213146209717,1.4633653163909912
1782776351189139000,5.806138916015625,-1.1216497421264648,1.3995983600616455,1.333593487739563
1782776351199148800,5.816148681640625,0.2278604507446289,0.996443510055542,1.1054713726043701
1782776351209158400,5.826158447265625,2.2465600967407227,0.5674936771392822,0.8307672739028931
1782776351219137800,5.8361376953125,4.03347110748291,0.33135986328125,0.5424677133560181
1782776351229147600,5.846147705078125,5.081754684448242,0.04304814338684082,0.40931427478790283
1782776351239157200,5.8561572265625,5.1930952072143555,-0.45697951316833496,0.15077471733093262
1782776351249136600,5.86613671875,4.52458381652832,-0.9770824909210205,-0.3078036308288574
1782776351259146500,5.876146484375,3.2744760513305664,-1.4282166957855225,-0.9963729381561279
1782776351269156000,5.886156005859375,1.2298336029052734,-1.801199197769165,-1.5642884969711304
1782776351279166000,5.896166015625,-0.20967769622802734,-1.9651981592178345,-1.4770379066467285
1782776351289145300,5.906145263671875,-0.9650764465332031,-1.7886303663253784,-1.1674587726593018
1782776351299155000,5.916155029296875,-1.2253570556640625,-1.7994791269302368,-0.9679641723632812
1782776351309164800,5.926164794921875,-1.4904775619506836,-1.9153671264648438,-0.8478162288665771
1782776351319144000,5.93614404296875,-1.7494196891784668,-1.846976637840271,-0.6697417497634888
1782776351329153800,5.94615380859375,-1.940619945526123,-1.7285270690917969,-0.5530974864959717
1782776351339163400,5.956163330078125,-1.8999781608581543,-1.5809295177459717,-0.3803365230560303
1782776351349142800,5.966142822265625,-1.8379912376403809,-1.473032832145691,-0.03654301166534424
1782776351359152400,5.97615234375,-1.6255617141723633,-1.3567233085632324,0.24092590808868408
1782776351369162200,5.986162353515625,-1.5097575187683105,-1.2190438508987427,0.505187451839447
1782776351379141600,5.9961416015625,-1.5433268547058105,-1.095855951309204,0.6199747920036316
1782776351389151200,6.006151123046875,-1.4471449851989746,-0.9972963333129883,0.6033968925476074
1782776351399161000,6.0161611328125,-1.0698966979980469,-0.9808247089385986,0.6641504168510437
1782776351409140200,6.02614013671875,-0.6020307540893555,-1.0006120204925537,0.6331903338432312
1782776351419149800,6.03614990234375,-0.10615921020507812,-0.9751064777374268,0.6664154529571533
1782776351429159700,6.04615966796875,0.24982357025146484,-0.9404699802398682,0.6164301633834839
1782776351439139000,6.05613916015625,0.30379486083984375,-0.9265587329864502,0.43278253078460693
1782776351449149000,6.06614892578125,0.35338592529296875,-0.9319305419921875,-0.003243565559387207
1782776351459158500,6.076158447265625,0.3919944763183594,-0.9748399257659912,-0.354613721370697
1782776351469138000,6.086137939453125,0.31053638458251953,-0.9996743202209473,-0.694277286529541
1782776351479147800,6.096147705078125,0.04806327819824219,-0.8706586360931396,-0.9023185968399048
1782776351489157400,6.106157470703125,-0.2530221939086914,-0.5807149410247803,-1.0342352390289307
1782776351499136800,6.11613671875,-0.5154409408569336,-0.23301029205322266,-0.9473583698272705
1782776351509146400,6.126146484375,-0.57672119140625,0.028688907623291016,-0.7011677622795105
1782776351519156000,6.136156005859375,-0.4855318069458008,0.307218074798584,-0.42257189750671387
1782776351529165800,6.146165771484375,-0.17987442016601562,0.5622437000274658,-0.2252277135848999
1782776351539145200,6.156145263671875,0.012410163879394531,0.7382140159606934,0.008312642574310303
1782776351549154800,6.16615478515625,-0.06644630432128906,0.9013166427612305,0.3554059863090515
1782776351559164700,6.17616455078125,-0.2566947937011719,0.9755749702453613,0.5764944553375244
1782776351569144000,6.18614404296875,-0.4105987548828125,1.0249476432800293,0.421497106552124
1782776351579154000,6.19615380859375,-0.3642435073852539,0.9288022518157959,0.40231752395629883
1782776351589163500,6.20616357421875,0.008263587951660156,0.5884723663330078,0.4727741479873657
1782776351599142700,6.216142578125,0.3907175064086914,0.32906031608581543,0.4656529426574707
1782776351609152500,6.226152587890625,0.7306556701660156,0.09786772727966309,0.37507688999176025
1782776351619162000,6.236162109375,0.9073381423950195,0.013094663619995117,0.2667264938354492
1782776351629141500,6.2461416015625,0.6369514465332031,-0.14785027503967285,0.06539046764373779
1782776351639151400,6.2561513671875,0.1550579071044922,-0.3334224224090576,-0.20409953594207764
1782776351649161000,6.266160888671875,-0.3371572494506836,-0.39792418479919434,-0.4974968433380127
1782776351659140400,6.276140380859375,-0.6452617645263672,-0.4670426845550537,-0.7542909383773804
1782776351669150000,6.28614990234375,-0.613062858581543,-0.5200979709625244,-0.688835859298706
1782776351679159800,6.296159912109375,-0.5745811462402344,-0.5388519763946533,-0.5336066484451294
1782776351689139000,6.306138916015625,-0.4431133270263672,-0.5728261470794678,-0.4775427579879761
1782776351699148800,6.316148681640625,-0.3429594039916992,-0.6351697444915771,-0.46138796210289
1782776351709158400,6.326158447265625,-0.45305347442626953,-0.7107961177825928,-0.45668816566467285
1782776351719137800,6.3361376953125,-0.6251535415649414,-0.8018839359283447,-0.553280234336853
1782776351729147600,6.346147705078125,-0.7479257583618164,-0.8243682384490967,-0.6725526452064514
1782776351739157200,6.3561572265625,-0.6098594665527344,-0.8913557529449463,-0.7598206400871277
1782776351749136600,6.36613671875,-0.37024593353271484,-0.9586899280548096,-0.6412878632545471
1782776351759146500,6.376146484375,-0.10402393341064453,-0.8812527656555176,-0.3492763936519623
1782776351769156000,6.386156005859375,0.046146392822265625,-0.550971508026123,-0.053274333477020264
1782776351779166000,6.396166015625,0.08381843566894531,-0.33190274238586426,-0.13003665208816528
1782776351789145300,6.406145263671875,0.02444934844970703,-0.30023193359375,-0.3955211043357849
1782776351799155000,6.416155029296875,-0.17648792266845703,-0.38582420349121094,-0.7214183807373047
1782776351809164800,6.426164794921875,-0.5370359420776367,-0.4756002426147461,-0.976814866065979
1782776351819084300,6.436084228515625,-1.0086612701416016,-0.5604763031005859,-0.7268142700195312
1782776351831549000,6.448548828125,-1.2037668228149414,-0.595522403717041,0.33525416254997253
1782776351849142800,6.466142822265625,0.023970603942871094,-0.4169423580169678,2.0038294792175293
1782776351859152600,6.476152587890625,0.9032011032104492,-0.4425983428955078,2.408810615539551
1782776351869162200,6.486162353515625,1.6728363037109375,-0.6296827793121338,2.051449775695801
1782776351879141600,6.4961416015625,1.8460474014282227,-0.9384758472442627,1.2163915634155273
1782776351889151500,6.5061513671875,1.5467100143432617,-1.3527858257293701,0.22743850946426392
1782776351899161000,6.5161611328125,1.2309837341308594,-1.5884244441986084,-0.5507081747055054
1782776351909140200,6.52614013671875,1.186976432800293,-1.660434365272522,-1.1409435272216797
1782776351919108600,6.536108642578125,0.9727373123168945,-1.6728882789611816,-1.2836382389068604
1782776351929159700,6.54615966796875,0.5157060623168945,-1.4605348110198975,-0.8845803737640381
1782776351939139000,6.55613916015625,0.004607200622558594,-1.0871529579162598,-0.3032754063606262
1782776351949149000,6.56614892578125,-0.4750862121582031,-0.7353730201721191,0.04969868063926697
1782776351959158500,6.576158447265625,-0.9269943237304688,-0.5600144863128662,0.29417717456817627
1782776351969138000,6.586137939453125,-1.29152250289917,-0.6229169368743896,0.13390228152275085
1782776351979147800,6.596147705078125,-1.4763154983520508,-0.7726776599884033,-0.3201441168785095
1782776351990221300,6.60722119140625,-1.546642780303955,-1.0166873931884766,-0.7620465755462646
1782776352009086700,6.626086669921875,-1.7462902069091797,-1.5024503469467163,-1.015805959701538
1782776352019150800,6.63615087890625,-1.6127738952636719,-1.6538574695587158,-0.8920025825500488
1782776352030117600,6.64711767578125,-0.9071979522705078,-1.7006254196166992,-0.671848714351654
1782776352049154800,6.66615478515625,0.8506269454956055,-1.7633602619171143,-0.3268440365791321
1782776352059164700,6.67616455078125,1.6876764297485352,-1.8141202926635742,-0.31502851843833923
1782776352069144000,6.68614404296875,2.1379003524780273,-1.864855170249939,-0.624189019203186
1782776352079154000,6.69615380859375,2.164809226989746,-1.9556641578674316,-1.1683690547943115
1782776352089163500,6.70616357421875,2.0717363357543945,-2.0598063468933105,-1.6043634414672852
1782776352099083000,6.7160830078125,1.8574895858764648,-2.0265696048736572,-1.8406002521514893
1782776352110169300,6.72716943359375,1.5243701934814453,-1.714277744293213,-1.6271872520446777
1782776352129141500,6.7461416015625,0.8188161849975586,-1.261927843093872,-0.7552074790000916
1782776352139151000,6.756151123046875,0.36432743072509766,-1.0555039644241333,-0.5218988656997681
1782776352149161000,6.766160888671875,-0.2202596664428711,-0.9145745038986206,-0.3711785674095154
1782776352159140400,6.776140380859375,-0.6631793975830078,-0.8614250421524048,-0.3026878833770752
1782776352169150200,6.786150146484375,-0.9175853729248047,-0.8276118040084839,-0.2530580163002014
1782776352179159800,6.796159912109375,-0.8903846740722656,-0.81212317943573,-0.3469287157058716
1782776352189139000,6.806138916015625,-0.7062101364135742,-0.8214737176895142,-0.41823339462280273
1782776352199148800,6.816148681640625,-0.6163997650146484,-0.9253849983215332,-0.5449234247207642
1782776352209158400,6.826158447265625,-0.5207891464233398,-0.6026768684387207,-0.44087839126586914
1782776352219137800,6.8361376953125,-0.24943828582763672,-0.2685614824295044,-0.17636999487876892
1782776352229147600,6.846147705078125,0.003604888916015625,-0.09633827209472656,-0.019251085817813873
1782776352239157200,6.8561572265625,0.35014915466308594,-0.003458738327026367,0.07123984396457672
1782776352249136600,6.86613671875,0.6575536727905273,-0.011011362075805664,0.11092406511306763
1782776352259146500,6.876146484375,0.3440275192260742,-0.10013830661773682,-0.14732611179351807
1782776352269156000,6.886156005859375,-0.0706644058227539,-0.08987259864807129,-0.3189128637313843
1782776352279166000,6.896166015625,-0.5539073944091797,-0.009428977966308594,-0.19859087467193604
1782776352289145300,6.906145263671875,-0.6754436492919922,0.12301754951477051,-0.008753366768360138
1782776352299155000,6.916155029296875,-0.6661214828491211,0.15645337104797363,0.1922570765018463
1782776352309164800,6.926164794921875,-0.6166954040527344,0.22895073890686035,0.21148477494716644
