time,seconds_elapsed,z,y,x
1782776465928744200,0.172744140625,-0.12957000732421875,-0.8959248065948486,2.8339486122131348
1782776465938723300,0.182723388671875,0.47557926177978516,-1.2979962825775146,3.120997190475464
1782776465948733200,0.192733154296875,1.802469253540039,-1.7105927467346191,2.9033093452453613
1782776465958743000,0.202742919921875,3.233509063720703,-2.241922378540039,2.6229710578918457
1782776465968722200,0.21272216796875,4.45002555847168,-2.839850664138794,2.198064088821411
1782776465978732000,0.22273193359375,5.306581497192383,-3.2986111640930176,1.5109390020370483
1782776465988741600,0.23274169921875,5.8296966552734375,-3.4641592502593994,0.6362351179122925
1782776465998721000,0.242720947265625,6.002589225769043,-3.458980083465576,-0.1964179277420044
1782776466008731000,0.25273095703125,5.725149154663086,-3.280892848968506,-0.6325875520706177
1782776466018740500,0.262740478515625,5.085195541381836,-3.023831367492676,-0.835705041885376
1782776466028750300,0.272750244140625,3.902284622192383,-2.647541046142578,-0.5921013355255127
1782776466038729700,0.282729736328125,2.3414812088012695,-2.16861629486084,-0.004694223403930664
1782776466048739300,0.2927392578125,0.9492559432983398,-1.6940003633499146,0.48973989486694336
1782776466058749200,0.302749267578125,-0.17313003540039062,-1.3304171562194824,1.1334117650985718
1782776466068728300,0.312728271484375,-0.9416275024414062,-1.015738844871521,1.7736237049102783
1782776466078738200,0.32273828125,-1.3234119415283203,-0.7968907356262207,2.3201186656951904
1782776466088747800,0.332747802734375,-1.4035534858703613,-0.6332070827484131,2.775761365890503
1782776466098727200,0.34272705078125,-1.2871341705322266,-0.6059017181396484,3.008788585662842
1782776466108737000,0.352737060546875,-1.1005878448486328,-0.742280125617981,3.0264410972595215
1782776466118746600,0.36274658203125,-0.8283319473266602,-0.9760589599609375,2.8763680458068848
1782776466128726000,0.37272607421875,-0.6387577056884766,-1.2365403175354004,2.5425326824188232
1782776466138735900,0.38273583984375,-0.47252845764160156,-1.5169923305511475,2.061697244644165
1782776466148745500,0.392745361328125,-0.41322994232177734,-1.7474064826965332,1.492889404296875
1782776466158724600,0.402724609375,-0.4951658248901367,-1.9300475120544434,0.9738317728042603
1782776466168734500,0.412734375,-0.6926450729370117,-1.9950389862060547,0.4805864095687866
1782776466178744000,0.422744140625,-1.0682687759399414,-2.000955820083618,0.21545398235321045
1782776466188723500,0.432723388671875,-1.4832630157470703,-1.885391116142273,0.12801671028137207
1782776466198733300,0.4427333984375,-1.775235652923584,-1.7762653827667236,0.08903765678405762
1782776466208743000,0.452742919921875,-2.0017848014831543,-1.6905369758605957,0.16537582874298096
1782776466218722300,0.462722412109375,-2.2047996520996094,-1.605210542678833,0.37011945247650146
1782776466228732200,0.472732177734375,-2.452303409576416,-1.4744415283203125,0.6063364744186401
1782776466238742000,0.482741943359375,-2.553712844848633,-1.3221508264541626,0.7223765850067139
1782776466248721200,0.49272119140625,-2.5266880989074707,-1.1530743837356567,0.7934173345565796
1782776466258730800,0.502730712890625,-2.4173855781555176,-1.03238844871521,0.8652740716934204
1782776466268740600,0.51274072265625,-2.2643070220947266,-0.8956500291824341,0.9323078393936157
1782776466278750200,0.522750244140625,-2.0675196647644043,-0.7358293533325195,0.9831817150115967
1782776466288729600,0.5327294921875,-1.936762809753418,-0.6669411659240723,1.0062116384506226
1782776466298739500,0.542739501953125,-1.7684588432312012,-0.592698335647583,0.9504777789115906
1782776466308749000,0.5527490234375,-1.5765128135681152,-0.5552654266357422,0.8109867572784424
1782776466318728400,0.562728515625,-1.4205784797668457,-0.5740892887115479,0.7133883833885193
1782776466328738300,0.57273828125,-1.2524738311767578,-0.5806386470794678,0.5039945244789124
1782776466338748000,0.582747802734375,-1.1172523498535156,-0.47532153129577637,0.38202059268951416
1782776466348727000,0.59272705078125,-1.0243597030639648,-0.31167101860046387,0.3821460008621216
1782776466358737000,0.60273681640625,-1.033442497253418,-0.18851304054260254,0.4370257258415222
1782776466368746500,0.61274658203125,-1.1136140823364258,-0.06250762939453125,0.4671960473060608
1782776466378726000,0.622725830078125,-1.2461462020874023,0.0912935733795166,0.555584192276001
1782776466388735700,0.63273583984375,-1.426814079284668,0.18824076652526855,0.6389225125312805
1782776466398745300,0.642745361328125,-1.4455089569091797,0.2780153751373291,0.6340173482894897
1782776466408724700,0.652724853515625,-1.3053760528564453,0.3009793758392334,0.5521889328956604
1782776466418734300,0.662734375,-1.109562873840332,0.24840641021728516,0.3878258466720581
1782776466428744200,0.672744140625,-0.8721532821655273,0.14817404747009277,0.19124633073806763
1782776466438723300,0.682723388671875,-0.7098636627197266,0.03221774101257324,-0.015145033597946167
1782776466448733200,0.692733154296875,-0.5752801895141602,-0.019237995147705078,-0.21324482560157776
1782776466458743000,0.702742919921875,-0.349090576171875,-0.07892870903015137,-0.3317328989505768
1782776466468722200,0.71272216796875,-0.0809335708618164,-0.1842811107635498,-0.2637985348701477
1782776466478732000,0.72273193359375,0.30744075775146484,-0.27188754081726074,-0.14973244071006775
1782776466488741600,0.73274169921875,0.5125665664672852,-0.3905966281890869,0.018082618713378906
1782776466498721000,0.742720947265625,0.7553138732910156,-0.5338633060455322,0.07850843667984009
1782776466508731000,0.75273095703125,1.055251121520996,-0.5352635383605957,-0.02608579397201538
1782776466518740500,0.762740478515625,1.4185371398925781,-0.24051547050476074,-0.6549820899963379
1782776466528750300,0.772750244140625,1.7661066055297852,0.08969283103942871,-1.0271317958831787
1782776466538729700,0.782729736328125,1.9867677688598633,0.07082128524780273,-0.8499161005020142
1782776466548739300,0.7927392578125,2.0978050231933594,0.00816488265991211,-0.5472452640533447
1782776466558749200,0.802749267578125,2.1884164810180664,-0.018103837966918945,-0.10983723402023315
1782776466568728300,0.812728271484375,2.2944841384887695,-0.25211215019226074,0.7558682560920715
1782776466578738200,0.82273828125,2.4324874877929688,-0.6494594812393188,1.866297960281372
1782776466588747800,0.832747802734375,2.584975242614746,-1.0130133628845215,2.6906862258911133
1782776466598727200,0.84272705078125,2.9162168502807617,-1.237025499343872,2.7457568645477295
1782776466608737000,0.852737060546875,3.2288818359375,-1.343100666999817,2.2642874717712402
1782776466618746600,0.86274658203125,3.484525680541992,-1.5642273426055908,1.5643222332000732
1782776466628726000,0.87272607421875,3.6332311630249023,-1.91474187374115,0.8485105037689209
1782776466638736000,0.88273583984375,3.573091506958008,-2.193730115890503,-0.031493186950683594
1782776466648745500,0.892745361328125,3.257065773010254,-2.2691431045532227,-0.9673888683319092
1782776466658724600,0.902724609375,2.7296199798583984,-2.1732897758483887,-1.456148624420166
1782776466668734500,0.912734375,2.082747459411621,-2.0531013011932373,-1.6309599876403809
1782776466678744000,0.922744140625,1.492192268371582,-1.9034240245819092,-1.6059818267822266
1782776466688723500,0.932723388671875,0.8769149780273438,-1.7598248720169067,-1.4869391918182373
1782776466698733300,0.9427333984375,0.39482975006103516,-1.6258738040924072,-1.255605936050415
1782776466708743000,0.952742919921875,0.06227302551269531,-1.5543677806854248,-0.7842375040054321
1782776466718722300,0.962722412109375,-0.18362140655517578,-1.6376055479049683,-0.011933743953704834
1782776466728732200,0.972732177734375,-0.3815793991088867,-1.7656128406524658,0.76300448179245
1782776466738742000,0.982741943359375,-0.3072509765625,-1.7866008281707764,1.3270541429519653
1782776466748721000,0.992720947265625,0.02158069610595703,-1.727250099182129,1.7174339294433594
1782776466758730800,1.002730712890625,0.5854549407958984,-1.7322938442230225,1.945509910583496
1782776466768740600,1.01274072265625,1.1959819793701172,-1.8023669719696045,1.918055772781372
1782776466778750200,1.022750244140625,1.550826072692871,-1.9480922222137451,1.6635042428970337
1782776466788729600,1.0327294921875,1.6217823028564453,-2.0236151218414307,1.1067345142364502
1782776466798739200,1.0427392578125,1.3952102661132812,-2.1114256381988525,0.5257454514503479
1782776466808749000,1.0527490234375,0.8098077774047852,-2.2881016731262207,0.042341649532318115
1782776466818728400,1.062728515625,0.16791915893554688,-2.3910906314849854,-0.25349441170692444
1782776466828738300,1.07273828125,-0.46030521392822266,-2.312474489212036,-0.36323273181915283
1782776466838748000,1.082747802734375,-1.0065155029296875,-2.1685476303100586,-0.3578580319881439
1782776466848727000,1.09272705078125,-1.4872713088989258,-2.011512517929077,-0.17670577764511108
1782776466858736600,1.102736572265625,-1.9818334579467773,-1.8157451152801514,0.08443063497543335
1782776466868746500,1.11274658203125,-2.420675277709961,-1.6913738250732422,0.32335931062698364
1782776466878726000,1.122725830078125,-2.8286142349243164,-1.6306229829788208,0.4821317195892334
1782776466888735700,1.13273583984375,-3.1561050415039062,-1.5688445568084717,0.6265716552734375
1782776466898745300,1.142745361328125,-3.435577869415283,-1.5333260297775269,0.7218596339225769
1782776466908724700,1.152724853515625,-3.5986595153808594,-1.5115735530853271,0.7174928188323975
1782776466918734600,1.162734619140625,-3.685211658477783,-1.5188095569610596,0.7049592733383179
1782776466928744200,1.172744140625,-3.6479578018188477,-1.477476716041565,0.618477463722229
1782776466938723300,1.182723388671875,-3.574014663696289,-1.4288620948791504,0.6029067039489746
1782776466948733200,1.192733154296875,-3.3200864791870117,-1.3485429286956787,0.6126835942268372
1782776466958743000,1.202742919921875,-2.8408422470092773,-1.3105523586273193,0.6493848562240601
1782776466968722200,1.21272216796875,-2.248572826385498,-1.3489930629730225,0.6853021383285522
1782776466978732000,1.22273193359375,-1.6956839561462402,-1.4158351421356201,0.7374851703643799
1782776466988741600,1.23274169921875,-1.2024683952331543,-1.437901496887207,0.8237313628196716
1782776466998721000,1.242720947265625,-0.8825702667236328,-1.4260673522949219,0.895692765712738
1782776467008731000,1.25273095703125,-0.6011466979980469,-1.4063282012939453,1.0061438083648682
1782776467018740500,1.262740478515625,-0.34105682373046875,-1.3531992435455322,1.1302807331085205
1782776467028750300,1.272750244140625,-0.16919898986816406,-1.3388340473175049,1.236786127090454
1782776467038729700,1.282729736328125,-0.12868309020996094,-1.328038215637207,1.312304973602295
1782776467048739300,1.2927392578125,-0.1645965576171875,-1.2730324268341064,1.2749475240707397
1782776467058749200,1.302749267578125,-0.2749614715576172,-1.249556541442871,1.2307424545288086
1782776467068728300,1.312728271484375,-0.38120365142822266,-1.2179417610168457,1.1834967136383057
1782776467078738200,1.32273828125,-0.536341667175293,-1.1531085968017578,1.1850228309631348
1782776467088747800,1.332747802734375,-0.5274238586425781,-1.1260309219360352,1.1568412780761719
1782776467098727200,1.34272705078125,-0.45534610748291016,-1.142406702041626,1.1545389890670776
1782776467108737000,1.352737060546875,-0.2868175506591797,-1.162928581237793,1.1915323734283447
1782776467118746600,1.36274658203125,-0.15337467193603516,-1.1446754932403564,1.2891058921813965
1782776467128726000,1.37272607421875,0.03625774383544922,-1.1143896579742432,1.3769066333770752
1782776467138735900,1.38273583984375,0.18196678161621094,-1.137807846069336,1.5579253435134888
1782776467148745500,1.392745361328125,0.23620223999023438,-1.1893237829208374,1.7504963874816895
1782776467158724600,1.402724609375,0.40776538848876953,-1.1816664934158325,1.6504474878311157
1782776467168734500,1.412734375,0.6431751251220703,-0.3407151699066162,0.45625925064086914
1782776467178744000,1.422744140625,0.6345090866088867,-0.09089493751525879,-0.2867206335067749
1782776467188723500,1.432723388671875,0.7197751998901367,0.05782604217529297,-0.7507473230361938
1782776467198733300,1.4427333984375,0.1995372772216797,0.07677507400512695,-0.49514293670654297
1782776467208743000,1.452742919921875,-0.44937610626220703,0.11403441429138184,0.40523624420166016
1782776467218722300,1.462722412109375,-0.93707275390625,0.13156938552856445,1.823241949081421
1782776467228732200,1.472732177734375,-0.7167978286743164,0.12054920196533203,3.218705654144287
1782776467238742000,1.482741943359375,0.374542236328125,-0.2688840627670288,4.077986717224121
1782776467248721000,1.492720947265625,1.7796630859375,-0.9889006614685059,4.308478355407715
1782776467258730800,1.502730712890625,2.9717302322387695,-1.8907164335250854,4.243147850036621
1782776467268740600,1.51274072265625,3.6472768783569336,-2.7315168380737305,3.7108099460601807
1782776467278750200,1.522750244140625,4.100248336791992,-3.2071280479431152,2.4497053623199463
1782776467288729600,1.5327294921875,4.335911750793457,-3.2681190967559814,1.300255298614502
1782776467298739500,1.542739501953125,4.488093376159668,-3.1711695194244385,0.5211069583892822
1782776467308749000,1.5527490234375,4.632678031921387,-2.9536497592926025,-0.022074222564697266
1782776467318728400,1.562728515625,4.583657264709473,-2.6269068717956543,-0.48132550716400146
1782776467328738000,1.572738037109375,4.187969207763672,-2.2540454864501953,-0.9178674221038818
1782776467338748000,1.582747802734375,3.4827327728271484,-1.853689432144165,-1.1744245290756226
1782776467348727000,1.59272705078125,2.491419792175293,-1.4999172687530518,-1.0217115879058838
1782776467358737000,1.60273681640625,1.3644218444824219,-1.1431516408920288,-0.6118975877761841
1782776467368746500,1.61274658203125,0.4002399444580078,-0.8489738702774048,0.04247140884399414
1782776467378726000,1.622725830078125,-0.4169473648071289,-0.5060854554176331,0.7966420650482178
1782776467388735500,1.632735595703125,-0.8570413589477539,-0.2496802806854248,1.5808932781219482
1782776467398745300,1.642745361328125,-1.0258092880249023,-0.013944625854492188,2.301887035369873
1782776467408724700,1.652724853515625,-1.049325942993164,0.1004253625869751,2.99790358543396
1782776467418734600,1.662734619140625,-1.0523748397827148,0.10225141048431396,3.755965232849121
1782776467428744200,1.672744140625,-0.9602880477905273,0.027724146842956543,4.218001365661621
1782776467438723300,1.682723388671875,-0.7572803497314453,-0.14959871768951416,4.296619415283203
1782776467448733200,1.692733154296875,-0.48001670837402344,-0.41340017318725586,3.9278724193573
1782776467458743000,1.702742919921875,-0.028685569763183594,-0.8069722652435303,3.1066839694976807
1782776467468722200,1.71272216796875,0.3621959686279297,-1.2320557832717896,2.1329333782196045
1782776467478732000,1.72273193359375,0.5836896896362305,-1.5854233503341675,1.1926853656768799
1782776467488741600,1.73274169921875,0.5602216720581055,-1.9058486223220825,0.2692906856536865
1782776467498721000,1.742720947265625,0.3500709533691406,-2.0437216758728027,-0.42973780632019043
1782776467508731000,1.75273095703125,-0.0044765472412109375,-2.077237606048584,-0.97669517993927
1782776467518740500,1.762740478515625,-0.5166110992431641,-2.044637441635132,-1.3459364175796509
1782776467528750300,1.772750244140625,-1.087752342224121,-1.9727400541305542,-1.4849414825439453
1782776467538729700,1.782729736328125,-1.6548733711242676,-1.786878228187561,-1.4750810861587524
1782776467548739300,1.7927392578125,-2.0917510986328125,-1.6044703722000122,-1.3587749004364014
1782776467558749200,1.802749267578125,-2.4410548210144043,-1.3977752923965454,-1.1600054502487183
1782776467568728300,1.812728271484375,-2.625216484069824,-1.2494512796401978,-0.9844863414764404
1782776467578738200,1.82273828125,-2.72822904586792,-1.0583256483078003,-0.8537055253982544
1782776467588747800,1.832747802734375,-2.795450210571289,-0.8383227586746216,-0.711308479309082
1782776467598727200,1.84272705078125,-2.808868885040283,-0.643619179725647,-0.6525576114654541
1782776467608737000,1.852737060546875,-2.7563204765319824,-0.4649183750152588,-0.5633721351623535
1782776467618746600,1.86274658203125,-2.657443046569824,-0.33710455894470215,-0.4409414529800415
1782776467628726000,1.87272607421875,-2.498060703277588,-0.2552025318145752,-0.3567171096801758
1782776467638736000,1.88273583984375,-2.2780027389526367,-0.1954195499420166,-0.32327353954315186
1782776467648745500,1.892745361328125,-2.021003246307373,-0.15884780883789062,-0.34469616413116455
1782776467658724600,1.902724609375,-1.7361106872558594,-0.18273329734802246,-0.478690505027771
1782776467668734500,1.912734375,-1.4540138244628906,-0.2347123622894287,-0.6988253593444824
1782776467678744000,1.922744140625,-1.181218147277832,-0.2609689235687256,-0.9079002141952515
1782776467688723500,1.932723388671875,-1.0058984756469727,-0.30594587326049805,-1.1005662679672241
1782776467698733300,1.9427333984375,-0.8915109634399414,-0.2681870460510254,-1.3251683712005615
1782776467708743000,1.952742919921875,-0.7994813919067383,-0.25588464736938477,-1.5841578245162964
1782776467718722300,1.962722412109375,-0.6405782699584961,-0.18799161911010742,-1.865821361541748
1782776467728732200,1.972732177734375,-0.48624134063720703,-0.13202500343322754,-2.0397708415985107
1782776467738742000,1.982741943359375,-0.2016305923461914,-0.015064716339111328,-2.3052637577056885
1782776467748721200,1.99272119140625,0.015048980712890625,0.18108344078063965,-2.3320350646972656
1782776467758730800,2.002730712890625,0.3055906295776367,0.4005260467529297,-2.212735891342163
1782776467768740600,2.01274072265625,0.47126293182373047,0.5877077579498291,-1.8852927684783936
1782776467778750200,2.022750244140625,0.5959606170654297,0.7767705917358398,-1.5423214435577393
1782776467788729600,2.0327294921875,0.7225732803344727,0.9384911060333252,-1.2060861587524414
1782776467798739200,2.0427392578125,0.8704385757446289,1.0636816024780273,-0.8464393019676208
1782776467808749000,2.0527490234375,0.9817495346069336,1.1373951435089111,-0.43383699655532837
1782776467818728400,2.062728515625,1.108957290649414,1.173915147781372,-0.18963366746902466
1782776467828738300,2.07273828125,1.239776611328125,1.233499526977539,-0.00690990686416626
1782776467838748000,2.082747802734375,1.3262691497802734,1.2727081775665283,0.10551613569259644
1782776467848727000,2.09272705078125,1.3135499954223633,1.2785122394561768,0.039948105812072754
1782776467858737000,2.10273681640625,1.3310213088989258,1.4247382879257202,-0.42570626735687256
1782776467868746500,2.11274658203125,1.1149883270263672,1.6184358596801758,-1.0374984741210938
1782776467878726000,2.122725830078125,0.777644157409668,1.6277966499328613,-1.167635440826416
1782776467888735700,2.13273583984375,0.4773397445678711,1.5377721786499023,-0.14021342992782593
1782776467898745300,2.142745361328125,0.5996685028076172,1.1594598293304443,1.4367018938064575
1782776467908724700,2.152724853515625,1.6946296691894531,0.41217684745788574,2.67997670173645
1782776467918734600,2.162734619140625,3.2243289947509766,-0.27683258056640625,2.939624786376953
1782776467928744200,2.172744140625,4.644023895263672,-0.8628054857254028,2.757124185562134
1782776467938723300,2.182723388671875,5.721684455871582,-1.283463478088379,1.8707594871520996
1782776467948733200,2.192733154296875,6.419917106628418,-1.6692700386047363,0.8116046190261841
1782776467958743000,2.202742919921875,6.682578086853027,-2.00544810295105,-0.08168220520019531
1782776467968722200,2.21272216796875,6.363018035888672,-2.340172290802002,-0.7369095683097839
1782776467978732000,2.22273193359375,5.357443809509277,-2.6290886402130127,-1.0236798524856567
1782776467988741600,2.23274169921875,3.9393539428710938,-2.76192045211792,-1.1225608587265015
1782776467998721000,2.242720947265625,2.501643180847168,-2.705265522003174,-1.101709008216858
1782776468008731000,2.25273095703125,1.2865123748779297,-2.5940706729888916,-0.7695988416671753
1782776468018740500,2.262740478515625,0.22851276397705078,-2.4250330924987793,-0.15567320585250854
1782776468028750300,2.272750244140625,-0.5350856781005859,-2.252342462539673,0.3588131070137024
1782776468038729700,2.282729736328125,-1.1292762756347656,-2.0621612071990967,0.7986207008361816
1782776468048739300,2.2927392578125,-1.743086814880371,-1.9248948097229004,1.2402937412261963
1782776468058749200,2.302749267578125,-2.166118621826172,-1.747100591659546,1.7602033615112305
1782776468068728300,2.312728271484375,-2.4273910522460938,-1.5861610174179077,2.456544876098633
1782776468078738200,2.32273828125,-2.678844928741455,-1.468403697013855,3.385495901107788
1782776468088747800,2.332747802734375,-2.782461166381836,-1.4184820652008057,4.255601406097412
1782776468098727200,2.34272705078125,-2.5087833404541016,-1.3208582401275635,4.798769950866699
1782776468108737000,2.352737060546875,-1.566068172454834,-1.492508888244629,4.888704299926758
1782776468118746600,2.36274658203125,-0.06305122375488281,-1.9230479001998901,4.7083563804626465
1782776468128726000,2.37272607421875,1.1534709930419922,-2.433889389038086,4.518022537231445
1782776468138735900,2.38273583984375,2.126267433166504,-2.929126262664795,4.029723167419434
1782776468148745500,2.392745361328125,2.7060585021972656,-3.4200479984283447,3.0927681922912598
1782776468158724600,2.402724609375,2.786724090576172,-3.9161365032196045,1.9112434387207031
1782776468168734500,2.412734375,2.53140926361084,-4.342029094696045,0.816435694694519
1782776468178744000,2.422744140625,2.0408143997192383,-4.5787882804870605,-0.030775487422943115
1782776468188723500,2.432723388671875,1.2523670196533203,-4.6520185470581055,-0.46762144565582275
1782776468198733300,2.4427333984375,0.28508567810058594,-4.490722179412842,-0.5189658403396606
1782776468208743000,2.452742919921875,-0.7210283279418945,-4.174642086029053,-0.25640153884887695
1782776468218722300,2.462722412109375,-1.5528998374938965,-3.8215181827545166,0.22416412830352783
1782776468228732200,2.472732177734375,-2.2809081077575684,-3.502676010131836,0.8517730832099915
1782776468238741800,2.48274169921875,-2.8705239295959473,-3.301231861114502,1.3241372108459473
1782776468248721000,2.492720947265625,-3.330254077911377,-3.1164965629577637,1.615795612335205
1782776468258730800,2.502730712890625,-3.673654079437256,-2.913970470428467,1.8056468963623047
1782776468268740600,2.51274072265625,-3.9802565574645996,-2.805304765701294,1.8571367263793945
1782776468278750200,2.522750244140625,-4.2148518562316895,-2.7412948608398438,1.8810200691223145
1782776468288729600,2.5327294921875,-4.4017653465271,-2.7022409439086914,1.7386231422424316
1782776468298739200,2.5427392578125,-4.447943687438965,-2.647141456604004,1.5907940864562988
1782776468308749000,2.5527490234375,-4.413382530212402,-2.6383466720581055,1.410447597503662
1782776468318728400,2.562728515625,-4.372337341308594,-2.5448808670043945,1.3878953456878662
1782776468328738000,2.572738037109375,-4.324607849121094,-2.4754371643066406,1.3647568225860596
1782776468338748000,2.582747802734375,-4.320349216461182,-2.430724620819092,1.3289107084274292
1782776468348727000,2.59272705078125,-4.185328006744385,-2.383655071258545,1.3779733180999756
1782776468358737000,2.60273681640625,-4.034887313842773,-2.393673896789551,1.6207764148712158
1782776468368746500,2.61274658203125,-3.635735511779785,-2.4989728927612305,2.156435251235962
1782776468378726000,2.622725830078125,-2.9724059104919434,-2.529646396636963,2.8935132026672363
1782776468388735500,2.632735595703125,-1.976940631866455,-2.545030117034912,3.6249303817749023
1782776468398745300,2.642745361328125,-0.5760173797607422,-2.5737040042877197,4.2337727546691895
1782776468408724700,2.652724853515625,0.9745588302612305,-2.631033420562744,4.715554237365723
1782776468418734600,2.662734619140625,2.3093137741088867,-2.8673253059387207,4.988729953765869
1782776468428744200,2.672744140625,3.2311315536499023,-3.3073360919952393,4.915441036224365
1782776468438723600,2.6827236328125,3.4623050689697266,-3.8930253982543945,4.333925247192383
1782776468448733200,2.692733154296875,3.215137481689453,-4.303994178771973,3.636662006378174
1782776468458743000,2.702742919921875,2.7361345291137695,-4.572795867919922,3.053441047668457
1782776468468722200,2.71272216796875,2.315458297729492,-4.7275800704956055,2.7914068698883057
1782776468478732000,2.72273193359375,2.015420913696289,-4.763595104217529,2.812248706817627
1782776468488741600,2.73274169921875,1.9678564071655273,-4.717176914215088,3.0591378211975098
1782776468498721000,2.742720947265625,2.24337100982666,-4.560986042022705,3.4603583812713623
1782776468508731000,2.75273095703125,2.6092052459716797,-4.440150260925293,3.883774518966675
1782776468518740500,2.762740478515625,3.0639657974243164,-4.366681098937988,4.377549171447754
1782776468528750300,2.772750244140625,3.415032386779785,-4.322871685028076,4.74708366394043
1782776468538729700,2.782729736328125,3.38358211517334,-4.436283588409424,4.752755641937256
1782776468548739300,2.7927392578125,3.0065231323242188,-4.547300815582275,4.432243347167969
1782776468558749200,2.802749267578125,2.3627681732177734,-4.572813987731934,3.965998649597168
1782776468568728300,2.812728271484375,1.595108985900879,-4.771976470947266,3.6915695667266846
1782776468578738200,2.82273828125,0.9468097686767578,-5.089216232299805,3.745173931121826
1782776468588747800,2.832747802734375,0.7615547180175781,-5.336125373840332,3.994469165802002
1782776468598727200,2.84272705078125,1.0388517379760742,-5.50154447555542,4.143584251403809
1782776468608737000,2.852737060546875,1.7793912887573242,-5.635834693908691,4.223126411437988
1782776468618746600,2.86274658203125,2.711581230163574,-5.764410972595215,4.149833679199219
1782776468628726000,2.87272607421875,3.4872970581054688,-6.003361701965332,3.836451530456543
1782776468638736000,2.88273583984375,4.066220283508301,-6.278713703155518,3.4207937717437744
1782776468648745500,2.892745361328125,4.246771812438965,-6.609096527099609,2.61324405670166
1782776468658724600,2.902724609375,4.113525390625,-6.7567243576049805,1.8636516332626343
1782776468668734500,2.912734375,3.9277238845825195,-6.724870681762695,1.0780258178710938
1782776468678744000,2.922744140625,3.8956069946289062,-6.4926323890686035,0.4494810104370117
1782776468688723500,2.932723388671875,3.893726348876953,-6.222725868225098,-0.11014330387115479
1782776468698733300,2.9427333984375,4.026495933532715,-5.956762313842773,-0.5936530828475952
1782776468708743000,2.952742919921875,4.382746696472168,-5.682720184326172,-1.0668286085128784
1782776468718722300,2.962722412109375,4.673900604248047,-5.392570495605469,-1.419500708580017
1782776468728732200,2.972732177734375,4.707243919372559,-5.0970940589904785,-1.7863153219223022
1782776468738742000,2.982741943359375,4.474189758300781,-4.700356960296631,-2.163910388946533
1782776468748721200,2.99272119140625,4.059352874755859,-4.156424522399902,-2.4626379013061523
1782776468758730800,3.002730712890625,3.4421606063842773,-3.659791946411133,-2.6498336791992188
1782776468768740400,3.012740234375,2.989588737487793,-3.1884639263153076,-2.7060165405273438
1782776468778750200,3.022750244140625,2.610806465148926,-2.8077499866485596,-2.717696189880371
1782776468788729600,3.0327294921875,2.351045608520508,-2.4471771717071533,-2.7347164154052734
1782776468798739500,3.042739501953125,2.1924610137939453,-2.1676814556121826,-2.714681625366211
1782776468808749000,3.0527490234375,2.1291637420654297,-1.949742317199707,-2.7460250854492188
1782776468818728400,3.062728515625,2.0668935775756836,-1.7941162586212158,-2.7305288314819336
1782776468828738300,3.07273828125,1.9405975341796875,-1.674500584602356,-2.7478489875793457
1782776468838748000,3.082747802734375,1.8099918365478516,-1.548973798751831,-2.7221884727478027
1782776468848727000,3.09272705078125,1.660654067993164,-1.3800361156463623,-2.6069881916046143
1782776468858737000,3.10273681640625,1.3521842956542969,-1.1856932640075684,-2.3496670722961426
1782776468868746500,3.11274658203125,0.8938961029052734,-1.0549871921539307,-2.114013671875
1782776468878726000,3.122725830078125,0.31766605377197266,-0.913855254650116,-1.935617208480835
1782776468888735500,3.132735595703125,-0.28786468505859375,-0.8018865585327148,-1.7980424165725708
1782776468898745300,3.142745361328125,-0.8604822158813477,-0.7047842741012573,-1.7070831060409546
1782776468908724700,3.152724853515625,-1.294997215270996,-0.6150037050247192,-1.7116180658340454
1782776468918734600,3.162734619140625,-1.663750171661377,-0.543692946434021,-1.654905915260315
1782776468928744200,3.172744140625,-1.967012882232666,-0.4675922393798828,-1.6520286798477173
1782776468938723600,3.1827236328125,-2.1925477981567383,-0.36721038818359375,-1.6594029664993286
1782776468948733200,3.192733154296875,-2.3767786026000977,-0.28672289848327637,-1.6349343061447144
1782776468958743000,3.202742919921875,-2.489346981048584,-0.1667402982711792,-1.6046116352081299
1782776468968722200,3.21272216796875,-2.59730863571167,-0.05017352104187012,-1.6205053329467773
1782776468978732000,3.22273193359375,-2.573300361633301,0.09637832641601562,-1.5896412134170532
1782776468988741600,3.23274169921875,-2.3570852279663086,0.23669910430908203,-1.4620881080627441
1782776468998721000,3.242720947265625,-2.1613407135009766,0.35589170455932617,-1.203352928161621
1782776469008731000,3.25273095703125,-1.9427824020385742,0.46952390670776367,-0.8482627868652344
1782776469018740500,3.262740478515625,-1.694328784942627,0.48874831199645996,-0.5338507890701294
1782776469028750300,3.272750244140625,-1.327733039855957,0.42867088317871094,-0.4063093960285187
1782776469038729700,3.282729736328125,-0.9892950057983398,0.27034974098205566,-0.33586084842681885
1782776469048739300,3.2927392578125,-0.7439775466918945,0.10725319385528564,-0.20212259888648987
1782776469058749200,3.302749267578125,-0.5391788482666016,0.010893702507019043,0.032264649868011475
1782776469068728300,3.312728271484375,-0.25058746337890625,-0.020401477813720703,0.38175907731056213
1782776469078738200,3.32273828125,0.06659793853759766,-0.03856229782104492,0.6602826118469238
1782776469088747800,3.332747802734375,0.46237754821777344,-0.05212128162384033,0.8304604291915894
1782776469098727200,3.34272705078125,0.8697185516357422,-0.16405940055847168,0.8817294836044312
1782776469108737000,3.352737060546875,1.453953742980957,-0.2051483392715454,0.9329285025596619
1782776469118746600,3.36274658203125,1.865983009338379,-0.2642630338668823,1.0529524087905884
1782776469128726000,3.37272607421875,1.9990253448486328,-0.27977097034454346,1.2942982912063599
1782776469138735900,3.38273583984375,1.7487859725952148,-0.23135852813720703,1.6179803609848022
1782776469148745500,3.392745361328125,1.2786779403686523,-0.16784536838531494,1.830177903175354
1782776469158724600,3.402724609375,0.8521614074707031,-0.11595118045806885,1.9229156970977783
1782776469168734500,3.412734375,0.34210681915283203,-0.1223064661026001,1.9298794269561768
1782776469178744000,3.422744140625,-0.22298431396484375,-0.09260642528533936,1.6480234861373901
1782776469188723500,3.432723388671875,-0.6423225402832031,0.1254807710647583,1.2187469005584717
1782776469198733300,3.4427333984375,-0.9426593780517578,0.4044240713119507,0.8757654428482056
1782776469208743000,3.452742919921875,-1.1407203674316406,0.6411335468292236,1.0370090007781982
1782776469218722300,3.462722412109375,-1.4259796142578125,0.8084840774536133,1.7282164096832275
1782776469228732200,3.472732177734375,-1.736487865447998,0.9396786689758301,2.5686464309692383
1782776469238741800,3.48274169921875,-1.996650218963623,0.9628891944885254,2.8617193698883057
1782776469248721200,3.49272119140625,-1.7789616584777832,1.0601205825805664,2.5523877143859863
1782776469258730800,3.502730712890625,-1.3017454147338867,0.9744951725006104,1.7432745695114136
1782776469268740600,3.51274072265625,-0.6641759872436523,0.6998977661132812,0.95430588722229
1782776469278750200,3.522750244140625,-0.24279212951660156,0.3420541286468506,0.09615129232406616
1782776469288729600,3.5327294921875,-0.15581417083740234,0.2916994094848633,-0.5525768995285034
1782776469298739200,3.5427392578125,-0.22510814666748047,0.4288616180419922,-1.0364010334014893
1782776469308749000,3.5527490234375,-0.10785770416259766,0.643336296081543,-1.3143572807312012
1782776469318728400,3.562728515625,0.19422435760498047,0.7328565120697021,-1.0771753787994385
1782776469328738000,3.572738037109375,0.6152772903442383,0.7914001941680908,-0.724327802658081
1782776469338748000,3.582747802734375,1.0759162902832031,0.7996695041656494,-0.5465196371078491
1782776469348727000,3.59272705078125,1.5572614669799805,0.7692434787750244,-0.550512433052063
1782776469358736600,3.602736572265625,1.9020633697509766,0.7742915153503418,-0.44987186789512634
1782776469368746500,3.61274658203125,2.0727767944335938,0.7859194278717041,-0.3052949011325836
1782776469378726000,3.622725830078125,2.0655078887939453,0.7382638454437256,-0.17740429937839508
1782776469388735700,3.63273583984375,1.7558002471923828,0.6213328838348389,-0.049320414662361145
1782776469398745300,3.642745361328125,1.3443727493286133,0.46441102027893066,-0.02121022343635559
1782776469408724700,3.652724853515625,0.9070148468017578,0.3008878231048584,-0.08857977390289307
1782776469418734300,3.662734375,0.5842037200927734,0.14262127876281738,-0.23489448428153992
1782776469428744200,3.672744140625,0.3825044631958008,-0.00558018684387207,-0.40623360872268677
1782776469438723600,3.6827236328125,0.5028572082519531,-0.15492117404937744,-0.644989550113678
1782776469448733200,3.692733154296875,0.48816680908203125,-0.373380184173584,-0.9134761095046997
1782776469458743000,3.702742919921875,0.2937126159667969,-0.5453122854232788,-1.1530146598815918
1782776469468722200,3.71272216796875,-0.2571439743041992,-0.6284842491149902,-1.3626781702041626
1782776469478732000,3.72273193359375,-0.9362411499023438,-0.6163681745529175,-1.4235074520111084
1782776469488741600,3.73274169921875,-1.6281499862670898,-0.4563337564468384,-1.4827960729599
1782776469498721000,3.742720947265625,-2.129715919494629,-0.3425300121307373,-1.4937382936477661
1782776469508731000,3.75273095703125,-2.580108165740967,-0.3087279796600342,-1.4691287279129028
1782776469518740500,3.762740478515625,-2.934113025665283,-0.2888451814651489,-1.390108585357666
1782776469528750300,3.772750244140625,-3.2158660888671875,-0.2603111267089844,-1.3320609331130981
1782776469538729700,3.782729736328125,-3.236452579498291,-0.2292264699935913,-1.2337838411331177
1782776469548739300,3.7927392578125,-3.1229867935180664,-0.18502604961395264,-1.111395239830017
1782776469558749200,3.802749267578125,-2.988071918487549,-0.1395207643508911,-1.1229945421218872
1782776469568728300,3.812728271484375,-2.8219871520996094,-0.13929224014282227,-1.0663421154022217
1782776469578738200,3.82273828125,-2.646209239959717,-0.12028110027313232,-1.0118268728256226
1782776469588747800,3.832747802734375,-2.4034056663513184,-0.15102159976959229,-1.0587201118469238
1782776469598727200,3.84272705078125,-2.175267219543457,-0.2557440996170044,-1.1075916290283203
1782776469608737000,3.852737060546875,-2.053253650665283,-0.35733938217163086,-1.2151989936828613
1782776469618746600,3.86274658203125,-1.8514599800109863,-0.45901787281036377,-1.4464877843856812
1782776469628726000,3.87272607421875,-1.5374994277954102,-0.4529198408126831,-1.5832815170288086
1782776469638736000,3.88273583984375,-1.1049137115478516,-0.3911367654800415,-1.7942098379135132
1782776469648745500,3.892745361328125,-0.6640510559082031,-0.5811952352523804,-1.9374489784240723
1782776469658724600,3.902724609375,-0.06811141967773438,-0.6308640241622925,-2.0658204555511475
1782776469668734500,3.912734375,0.4468202590942383,-0.5086437463760376,-2.3001108169555664
1782776469678684400,3.922684326171875,0.8437585830688477,-0.2646530866622925,-2.2377023696899414
1782776469688815000,3.932815185546875,1.0614080429077148,-0.03621232509613037,-2.061344623565674
1782776469698733300,3.9427333984375,1.2755699157714844,0.2189701795578003,-1.625474452972412
1782776469708743000,3.952742919921875,1.4467744827270508,0.4552011489868164,-1.1555027961730957
1782776469718722300,3.962722412109375,1.608292579650879,0.7218594551086426,-0.772822380065918
1782776469728732200,3.972732177734375,1.6691131591796875,0.905251145362854,-0.49510717391967773
1782776469738741800,3.98274169921875,1.719985008239746,1.025029182434082,-0.45054686069488525
1782776469748721000,3.992720947265625,1.6313819885253906,1.144679307937622,-0.27298831939697266
1782776469758730800,4.002730712890625,1.570683479309082,1.3063366413116455,-0.035162076354026794
1782776469768740400,4.012740234375,1.3005867004394531,1.4556463956832886,0.3481394350528717
1782776469778750200,4.022750244140625,1.0507583618164062,1.548139214515686,0.6459832191467285
1782776469788670000,4.032669921875,0.8424835205078125,1.62978196144104,0.7909754514694214
1782776469798800400,4.04280029296875,0.5917692184448242,1.777773380279541,1.0563586950302124
1782776469808749000,4.0527490234375,0.39435386657714844,1.8571133613586426,1.142346978187561
1782776469818728400,4.062728515625,0.36735057830810547,1.9645768404006958,1.1626520156860352
1782776469828738300,4.07273828125,0.3646984100341797,2.0272693634033203,1.109743356704712
1782776469838748000,4.082747802734375,0.40563106536865234,2.0454959869384766,0.973960280418396
1782776469848727000,4.09272705078125,0.4447517395019531,2.035959005355835,0.7375121116638184
1782776469858737000,4.10273681640625,0.4031505584716797,1.9885890483856201,0.48636123538017273
1782776469868746500,4.11274658203125,0.30737876892089844,1.975869059562683,0.21177324652671814
1782776469878726000,4.122725830078125,0.2628755569458008,1.9927986860275269,-0.06463360786437988
1782776469888735700,4.13273583984375,0.25307464599609375,1.9769095182418823,-0.2898026704788208
1782776469898745300,4.142745361328125,0.2446575164794922,1.9449914693832397,-0.4531305432319641
1782776469908724700,4.152724853515625,0.17573261260986328,1.9395194053649902,-0.5731208324432373
1782776469918734600,4.162734619140625,0.2498760223388672,1.918034315109253,-0.6292181015014648
1782776469928744200,4.172744140625,0.32125282287597656,1.914782166481018,-0.6656231880187988
1782776469938723600,4.1827236328125,0.4926328659057617,1.8482810258865356,-0.6905446648597717
1782776469948733200,4.192733154296875,0.6079988479614258,1.7391636371612549,-0.7027127742767334
1782776469958743000,4.202742919921875,0.7003936767578125,1.5936657190322876,-0.8645480871200562
1782776469968722400,4.212722412109375,0.795745849609375,1.3887139558792114,-1.090516448020935
1782776469978732000,4.22273193359375,0.9269399642944336,1.226467490196228,-1.4026410579681396
1782776469988741600,4.23274169921875,1.0842571258544922,1.0732990503311157,-1.861063838005066
1782776469998721000,4.242720947265625,1.1088132858276367,1.090440273284912,-2.2969250679016113
1782776470008731000,4.25273095703125,0.8776674270629883,1.0984022617340088,-2.5462818145751953
1782776470018740500,4.262740478515625,0.5479841232299805,1.04728364944458,-2.2853527069091797
1782776470028750300,4.272750244140625,0.517425537109375,1.026525855064392,-1.8054640293121338
1782776470038729700,4.282729736328125,1.000554084777832,0.983465313911438,-1.257660984992981
1782776470048739600,4.292739501953125,1.780710220336914,0.8909636735916138,-0.7006573677062988
1782776470058749200,4.302749267578125,2.7029333114624023,0.820388674736023,-0.30427372455596924
1782776470068728300,4.312728271484375,3.565829277038574,0.708956241607666,-0.18982863426208496
1782776470078738000,4.322738037109375,4.26778507232666,0.5180267095565796,-0.2126535177230835
1782776470088747800,4.332747802734375,4.661557197570801,0.23369097709655762,-0.19141900539398193
1782776470098727200,4.34272705078125,4.731679916381836,-0.12344419956207275,-0.13660216331481934
1782776470108737000,4.352737060546875,4.24538516998291,-0.4744912385940552,-0.11722469329833984
1782776470118746600,4.36274658203125,3.0782814025878906,-0.8618676662445068,-0.33173811435699463
1782776470128726000,4.37272607421875,1.8838071823120117,-1.0965464115142822,-0.7910650968551636
1782776470138735600,4.382735595703125,0.7399883270263672,-1.3533884286880493,-1.3375611305236816
1782776470148745500,4.392745361328125,-0.22927284240722656,-1.65859055519104,-1.8138993978500366
1782776470158724600,4.402724609375,-1.0633411407470703,-1.8923295736312866,-1.9446921348571777
1782776470168734500,4.412734375,-1.819162368774414,-2.006580114364624,-1.8565623760223389
1782776470178744000,4.422744140625,-2.4845895767211914,-1.8834888935089111,-1.5875649452209473
1782776470188723500,4.432723388671875,-3.0887017250061035,-1.5992523431777954,-1.0635894536972046
1782776470198733300,4.4427333984375,-3.556009292602539,-1.3013899326324463,-0.5919539928436279
1782776470208743000,4.452742919921875,-3.7680130004882812,-1.033514380455017,-0.0764303207397461
1782776470218722300,4.462722412109375,-3.678727149963379,-0.8227601051330566,0.4428027868270874
1782776470228732200,4.472732177734375,-3.098238468170166,-0.6290855407714844,1.1355875730514526
1782776470238742000,4.482741943359375,-2.391876220703125,-0.4976801872253418,1.6375235319137573
1782776470248721200,4.49272119140625,-1.5319938659667969,-0.4526181221008301,2.014907121658325
1782776470258671000,4.502671142578125,-0.49070072174072266,-0.432589054107666,2.196040630340576
1782776470268742000,4.512741943359375,0.43290138244628906,-0.5459487438201904,2.152282238006592
1782776470278811400,4.522811279296875,1.1387081146240234,-0.7329357862472534,1.761164903640747
1782776470288670000,4.532669921875,1.6420488357543945,-0.9280837774276733,0.9640202522277832
1782776470298740700,4.54274072265625,1.8801383972167969,-1.1475132703781128,0.0312882661819458
1782776470309637400,4.553637451171875,1.894845962524414,-1.320238471031189,-0.7992565631866455
1782776470328738300,4.57273828125,1.2168169021606445,-1.4066030979156494,-1.4971041679382324
1782776470338688300,4.582688232421875,0.5298843383789062,-1.2657538652420044,-1.4501948356628418
1782776470348759000,4.592759033203125,-0.19849586486816406,-1.0702108144760132,-1.082790732383728
1782776470358797800,4.6027978515625,-0.9077844619750977,-0.7759647369384766,-0.486480712890625
1782776470368746500,4.61274658203125,-1.541304111480713,-0.5396928787231445,0.07883262634277344
1782776470378726000,4.622725830078125,-2.0741238594055176,-0.2966771125793457,0.5188599824905396
1782776470388735700,4.63273583984375,-2.454679489135742,-0.10827827453613281,0.7616413831710815
1782776470398745300,4.642745361328125,-2.626804828643799,0.09926486015319824,0.8439892530441284
1782776470408724700,4.652724853515625,-2.6086788177490234,0.20310497283935547,0.8756358623504639
1782776470418734600,4.662734619140625,-2.61953067779541,0.26879096031188965,0.9241491556167603
1782776470428744200,4.672744140625,-2.571568489074707,0.3209662437438965,0.7737804651260376
1782776470438723600,4.6827236328125,-2.4223222732543945,0.38498759269714355,0.5432705879211426
1782776470448733200,4.692733154296875,-2.279493808746338,0.4028940200805664,0.3701147437095642
1782776470458743000,4.702742919921875,-2.092163562774658,0.4377555847167969,0.2459048628807068
1782776470468722200,4.71272216796875,-2.0102858543395996,0.5500683784484863,0.404813289642334
1782776470478732000,4.72273193359375,-1.8198323249816895,0.7618215084075928,0.5755354762077332
1782776470488741600,4.73274169921875,-1.4011001586914062,0.8176419734954834,0.5312422513961792
1782776470498721000,4.742720947265625,-0.8902587890625,0.8537716865539551,0.5285612344741821
1782776470508731000,4.75273095703125,-0.4256477355957031,0.862994909286499,0.634350597858429
1782776470518740500,4.762740478515625,-0.14230728149414062,0.9117953777313232,0.674278974533081
1782776470528750300,4.772750244140625,-0.05824089050292969,1.0311188697814941,0.6665019989013672
1782776470538729700,4.782729736328125,-0.06764507293701172,1.194387435913086,0.6175979971885681
1782776470548739300,4.7927392578125,-0.09155082702636719,0.9550714492797852,0.29438358545303345
1782776470558749200,4.802749267578125,-0.008616447448730469,0.6575818061828613,-0.09929490089416504
1782776470568728300,4.812728271484375,-0.08397388458251953,0.3585340976715088,-0.2819310426712036
1782776470578738200,4.82273828125,0.017884254455566406,0.11581277847290039,-0.5399991273880005
1782776470588747800,4.832747802734375,0.24966144561767578,0.06704115867614746,-0.7945443391799927
1782776470598727200,4.84272705078125,0.5153341293334961,-0.04436826705932617,-0.869512677192688
1782776470608737000,4.852737060546875,0.761998176574707,-0.09312295913696289,-0.7091227769851685
1782776470618746600,4.86274658203125,1.0260038375854492,-0.1161043643951416,-0.5155272483825684
1782776470628726000,4.87272607421875,1.1725616455078125,-0.1412355899810791,-0.28276360034942627
1782776470638736000,4.88273583984375,1.4766407012939453,-0.24739313125610352,-0.20113259553909302
1782776470648745500,4.892745361328125,1.9788589477539062,-0.450192928314209,-0.3630399703979492
1782776470658724600,4.902724609375,2.2918882369995117,-0.4033222198486328,-0.8574495315551758
1782776470668734500,4.912734375,2.2984867095947266,-0.12675070762634277,-1.6345852613449097
1782776470678744000,4.922744140625,2.034726142883301,0.10952973365783691,-2.0084738731384277
1782776470688723500,4.932723388671875,1.747523307800293,0.22450637817382812,-1.5373179912567139
1782776470698733300,4.9427333984375,1.5735158920288086,0.2136518955230713,-0.34261074662208557
1782776470708743200,4.9527431640625,1.531174659729004,0.09239888191223145,0.9804630875587463
1782776470718722300,4.962722412109375,1.6548700332641602,-0.19247841835021973,2.0486111640930176
1782776470728732200,4.972732177734375,2.181981086730957,-0.7507815361022949,2.2816309928894043
1782776470738742000,4.982741943359375,2.778073310852051,-1.4645411968231201,1.5651631355285645
1782776470748721200,4.99272119140625,3.156052589416504,-2.160202741622925,0.36271923780441284
1782776470758730800,5.002730712890625,2.992095947265625,-2.7447595596313477,-1.0088112354278564
1782776470768740600,5.01274072265625,2.4246740341186523,-3.1124300956726074,-2.0854437351226807
1782776470778750200,5.022750244140625,1.6078157424926758,-3.349679708480835,-2.8442153930664062
1782776470788729600,5.0327294921875,0.6256017684936523,-3.3604531288146973,-3.2086617946624756
1782776470798739500,5.042739501953125,-0.22043800354003906,-3.0817158222198486,-3.2597434520721436
1782776470808749000,5.0527490234375,-0.6319904327392578,-2.592163562774658,-3.0712509155273438
1782776470818728400,5.062728515625,-0.7374229431152344,-2.120591640472412,-2.723942756652832
1782776470828738300,5.07273828125,-0.6595468521118164,-1.8058778047561646,-2.274858236312866
1782776470838748000,5.082747802734375,-0.5749807357788086,-1.6367918252944946,-1.9404280185699463
1782776470848727000,5.09272705078125,-0.5480442047119141,-1.358571171760559,-1.775862216949463
1782776470858737000,5.10273681640625,-0.4622364044189453,-1.1934480667114258,-1.7024180889129639
1782776470868746500,5.11274658203125,-0.38916683197021484,-1.2903701066970825,-1.2647820711135864
1782776470878726000,5.122725830078125,-0.07260513305664062,-1.4577304124832153,-0.8341057300567627
1782776470888735700,5.13273583984375,0.3047628402709961,-1.544257402420044,-0.36232393980026245
1782776470898745300,5.142745361328125,0.611353874206543,-1.564148187637329,0.013713181018829346
1782776470908724700,5.152724853515625,0.8860635757446289,-1.6580630540847778,0.325187087059021
1782776470918734600,5.162734619140625,1.0757875442504883,-1.7699013948440552,0.4870917797088623
1782776470928744200,5.172744140625,1.2581110000610352,-1.8183456659317017,0.5433109402656555
1782776470938723600,5.1827236328125,1.3787870407104492,-1.8899340629577637,0.42907702922821045
1782776470948673500,5.192673583984375,1.4429607391357422,-1.9795182943344116,0.1107376217842102
1782776470958804000,5.202803955078125,1.3836069107055664,-1.9906835556030273,-0.2689321041107178
1782776470968722200,5.21272216796875,1.1426239013671875,-1.866586446762085,-0.522508978843689
1782776470978732000,5.22273193359375,0.6032085418701172,-1.6737302541732788,-0.5336788892745972
1782776470988741600,5.23274169921875,-0.1628561019897461,-1.6876988410949707,-0.7401659488677979
1782776470998721000,5.242720947265625,-1.0371875762939453,-1.6839947700500488,-0.8432806730270386
1782776471008731000,5.25273095703125,-1.9019594192504883,-1.5169000625610352,-0.8249818682670593
1782776471018740500,5.262740478515625,-2.6194000244140625,-1.3154270648956299,-0.797217607498169
1782776471028750300,5.272750244140625,-3.1185622215270996,-1.1280407905578613,-0.8434057831764221
1782776471038729700,5.282729736328125,-3.4199843406677246,-1.0143532752990723,-1.0074833631515503
1782776471048739300,5.2927392578125,-3.570340156555176,-1.0262606143951416,-1.1075810194015503
1782776471058749200,5.302749267578125,-3.6284704208374023,-1.0891838073730469,-1.2011140584945679
1782776471068728300,5.312728271484375,-3.5282983779907227,-1.1197261810302734,-1.280090093612671
1782776471078738200,5.32273828125,-3.2828102111816406,-1.063185453414917,-1.2330377101898193
1782776471088747800,5.332747802734375,-2.890054225921631,-1.0050363540649414,-1.2481334209442139
1782776471098727200,5.34272705078125,-2.395352840423584,-0.964806318283081,-1.205849051475525
1782776471108737000,5.352737060546875,-1.804887294769287,-0.8799326419830322,-1.1123219728469849
1782776471118746600,5.36274658203125,-1.2343616485595703,-0.816225528717041,-0.9645392298698425
1782776471128726000,5.37272607421875,-0.8757514953613281,-0.7521119117736816,-0.761523962020874
1782776471138735600,5.382735595703125,-0.5357389450073242,-0.6138877868652344,-0.5624446868896484
1782776471148745500,5.392745361328125,-0.22815799713134766,-0.4771871566772461,-0.4156784415245056
1782776471158724600,5.402724609375,0.030762672424316406,-0.3866572380065918,-0.2640923261642456
1782776471168734500,5.412734375,0.2339630126953125,-0.3836522102355957,-0.20546114444732666
1782776471178744000,5.422744140625,0.4435758590698242,-0.4064769744873047,-0.20924413204193115
1782776471188723500,5.432723388671875,0.6016921997070312,-0.36582493782043457,-0.21433675289154053
1782776471198733300,5.4427333984375,0.7396831512451172,-0.3459937572479248,-0.13556885719299316
1782776471208743000,5.452742919921875,0.8075838088989258,-0.3827335834503174,0.06496036052703857
1782776471218722300,5.462722412109375,0.8941564559936523,-0.4927983283996582,0.1776878833770752
1782776471228732200,5.472732177734375,1.0062713623046875,-0.5604877471923828,0.16489481925964355
1782776471238742000,5.482741943359375,1.0909223556518555,-0.5903968811035156,0.2391728162765503
1782776471248721000,5.492720947265625,1.0587682723999023,-0.6082301139831543,0.3251075744628906
1782776471258730800,5.502730712890625,0.9999790191650391,-0.6706647872924805,0.4978903532028198
1782776471268740400,5.512740234375,0.8865594863891602,-0.46778106689453125,0.5090082883834839
1782776471278690600,5.522690673828125,0.8388910293579102,0.12034869194030762,-0.23878741264343262
1782776471288821000,5.532821044921875,0.6784648895263672,0.5134091377258301,-0.8310183882713318
1782776471298739200,5.5427392578125,0.34759998321533203,0.3726482391357422,-0.6863482594490051
1782776471308749000,5.5527490234375,-0.08751869201660156,0.11169838905334473,-0.1485154628753662
1782776471318728400,5.562728515625,-0.5031604766845703,-0.16586923599243164,0.6036078929901123
1782776471328738300,5.57273828125,-0.7080049514770508,-0.5680016279220581,1.5318915843963623
1782776471338748000,5.582747802734375,-0.22900390625,-0.9645547866821289,2.339324712753296
1782776471348727000,5.59272705078125,0.9232006072998047,-1.3459458351135254,2.4932470321655273
1782776471358737000,5.60273681640625,2.182682991027832,-1.7501873970031738,2.249067544937134
1782776471368746500,5.61274658203125,3.3184356689453125,-2.0796053409576416,1.7840874195098877
1782776471378726000,5.622725830078125,4.066858291625977,-2.2807726860046387,1.0756864547729492
1782776471388735700,5.63273583984375,4.460482597351074,-2.416069746017456,0.3874778747558594
1782776471398745300,5.642745361328125,4.204621315002441,-2.4503026008605957,-0.06788778305053711
1782776471408724700,5.652724853515625,3.6045846939086914,-2.303607940673828,-0.4908640384674072
1782776471418734600,5.662734619140625,2.75858211517334,-2.068142890930176,-0.7111768126487732
1782776471428744200,5.672744140625,1.6748847961425781,-1.815382480621338,-0.7172686457633972
1782776471438723600,5.6827236328125,0.6511497497558594,-1.482915997505188,-0.680381715297699
1782776471448733200,5.692733154296875,-0.2603931427001953,-1.1501829624176025,-0.45267003774642944
1782776471458683100,5.70268310546875,-0.9700288772583008,-0.9158769845962524,-0.18816107511520386
1782776471468813800,5.712813720703125,-1.4934148788452148,-0.6936836242675781,0.054190754890441895
1782776471478732000,5.72273193359375,-1.9371891021728516,-0.5308859348297119,0.25125908851623535
1782776471488742000,5.732741943359375,-2.3679137229919434,-0.3700752258300781,0.46194374561309814
1782776471498721000,5.742720947265625,-2.577695846557617,-0.3013606071472168,0.9471642971038818
1782776471508731000,5.75273095703125,-2.35377836227417,-0.3075566291809082,1.5485239028930664
1782776471518740500,5.762740478515625,-1.7296290397644043,-0.34763646125793457,2.1380581855773926
1782776471528750300,5.772750244140625,-0.8047008514404297,-0.46301889419555664,2.4315929412841797
1782776471538729700,5.782729736328125,0.2863655090332031,-0.6586836576461792,2.3737504482269287
1782776471548739600,5.792739501953125,1.192007064819336,-0.8700991868972778,2.039506435394287
1782776471558689300,5.802689208984375,1.8395614624023438,-1.0776299238204956,1.412614345550537
1782776471568820000,5.812820068359375,2.080526351928711,-1.3029524087905884,0.6200610399246216
1782776471578738000,5.822738037109375,1.9582138061523438,-1.463706374168396,-0.0820799469947815
1782776471588747800,5.832747802734375,1.4779672622680664,-1.6010386943817139,-0.6161202192306519
1782776471598727200,5.84272705078125,0.775599479675293,-1.5870544910430908,-1.2429726123809814
1782776471608737000,5.852737060546875,-0.0762624740600586,-1.4436285495758057,-1.5312094688415527
1782776471618656500,5.862656494140625,-1.0608139038085938,-1.2739254236221313,-1.5245704650878906
1782776471629492200,5.8734921875,-1.8531956672668457,-1.0588099956512451,-1.3541133403778076
1782776471648745500,5.892745361328125,-2.6223440170288086,-0.5818791389465332,-0.922092080116272
1782776471658755300,5.90275537109375,-2.677952289581299,-0.4109153747558594,-0.7446404099464417
1782776471668734500,5.912734375,-2.5277256965637207,-0.2965562343597412,-0.6526116728782654
1782776471678737400,5.9227373046875,-2.287576675415039,-0.21753239631652832,-0.5074114799499512
1782776471688716800,5.932716796875,-2.062696933746338,-0.14881515502929688,-0.3825029730796814
1782776471698726700,5.9427265625,-1.778745174407959,-0.13685059547424316,-0.32511311769485474
1782776471708736300,5.952736328125,-1.4592266082763672,-0.15717434883117676,-0.3606796860694885
1782776471718715600,5.962715576171875,-1.2470207214355469,-0.23144960403442383,-0.42739468812942505
1782776471728725200,5.972725341796875,-1.126908302307129,-0.3218357563018799,-0.49142998456954956
1782776471738735000,5.982735107421875,-0.9787445068359375,-0.41525983810424805,-0.6249911189079285
1782776471748714500,5.992714599609375,-0.8358821868896484,-0.5168330669403076,-0.7691073417663574
1782776471758724000,6.00272412109375,-0.7507362365722656,-0.541175365447998,-0.8830603361129761
1782776471768734000,6.01273388671875,-0.6895675659179688,-0.5370843410491943,-1.0279819965362549
1782776471778743600,6.02274365234375,-0.6616363525390625,-0.5461125373840332,-1.1446021795272827
1782776471788723000,6.032722900390625,-0.6548585891723633,-0.5853803157806396,-1.3284916877746582
1782776471798732500,6.042732666015625,-0.6292858123779297,-0.629509687423706,-1.5640673637390137
1782776471808742400,6.052742431640625,-0.5320854187011719,-0.6359195709228516,-1.7477906942367554
1782776471818721800,6.0627216796875,-0.4879474639892578,-0.6474282741546631,-1.7898880243301392
1782776471828731600,6.072731689453125,-0.49031734466552734,-0.6432850360870361,-1.7838761806488037
1782776471838741200,6.0827412109375,-0.4176034927368164,-0.6986756324768066,-1.8768491744995117
1782776471848720400,6.092720458984375,-0.17475223541259766,-0.7563655376434326,-1.9030836820602417
1782776471858730000,6.10272998046875,0.2569160461425781,-0.809983491897583,-2.016697645187378
1782776471868739800,6.11273974609375,0.6882839202880859,-0.5630371570587158,-2.3977410793304443
1782776471878719200,6.12271923828125,0.8561372756958008,0.12652945518493652,-3.0933709144592285
1782776471888728800,6.132728759765625,0.6581811904907227,0.5883703231811523,-3.4420573711395264
1782776471898738700,6.14273876953125,0.2257251739501953,0.47455835342407227,-2.6895523071289062
1782776471908718000,6.152718017578125,-0.04578113555908203,0.14472317695617676,-1.0487093925476074
1782776471918727700,6.162727783203125,0.31496715545654297,-0.31577038764953613,0.940251350402832
1782776471928737500,6.172737548828125,1.0260963439941406,-0.7784154415130615,2.15016508102417
1782776471938716700,6.182716552734375,1.9738092422485352,-1.2187758684158325,2.087998867034912
1782776471948726500,6.1927265625,2.7626466751098633,-1.6311923265457153,1.3476706743240356
1782776471958676500,6.202676513671875,3.161867141723633,-1.9515910148620605,0.42063218355178833
1782776471968807200,6.21280712890625,3.3125877380371094,-2.2623720169067383,-0.4231080710887909
1782776471978725400,6.222725341796875,3.3028993606567383,-2.547454357147217,-1.1001206636428833
1782776471988735000,6.23273486328125,3.2281179428100586,-2.7357981204986572,-1.6754646301269531
1782776471998714400,6.24271435546875,2.9120302200317383,-2.837541103363037,-2.0970282554626465
1782776472008724200,6.25272412109375,2.2574357986450195,-2.9114742279052734,-2.326261520385742
1782776472018733800,6.26273388671875,1.2308979034423828,-2.833794116973877,-2.4361531734466553
1782776472028743700,6.27274365234375,0.2771310806274414,-2.628617525100708,-2.533484935760498
1782776472038722800,6.282722900390625,-0.47821617126464844,-2.319202423095703,-2.634869337081909
1782776472048732400,6.292732421875,-0.9597043991088867,-2.012638568878174,-2.6771764755249023
1782776472058742300,6.3027421875,-1.326162338256836,-1.7409404516220093,-2.688974380493164
1782776472068721700,6.3127216796875,-1.6282544136047363,-1.466267704963684,-2.693134069442749
1782776472078731500,6.3227314453125,-1.762786865234375,-1.2103294134140015,-2.7069761753082275
1782776472088741000,6.3327412109375,-1.667050838470459,-1.003307580947876,-2.6999518871307373
1782776472098720500,6.342720458984375,-1.461629867553711,-0.9290107488632202,-2.397542715072632
1782776472108730400,6.35273046875,-1.1779804229736328,-1.0037615299224854,-1.753122329711914
1782776472118740000,6.362739990234375,-0.9620246887207031,-1.1278613805770874,-0.8870953321456909
1782776472128719000,6.372718994140625,-0.5757474899291992,-1.256662368774414,-0.05305982381105423
1782776472138729000,6.38272900390625,0.012799263000488281,-1.3630911111831665,0.3847249746322632
1782776472148738600,6.392738525390625,0.7357616424560547,-1.5059685707092285,0.6378505229949951
1782776472158718000,6.402718017578125,1.4015674591064453,-1.6514472961425781,0.682965874671936
1782776472168727800,6.412727783203125,2.038966178894043,-1.7907559871673584,0.45922422409057617
1782776472178737400,6.4227373046875,2.521392822265625,-1.9262112379074097,-0.03009200096130371
1782776472188716800,6.432716796875,2.8828821182250977,-2.0799498558044434,-0.7345626354217529
1782776472198726700,6.4427265625,2.945026397705078,-2.257056713104248,-1.5248682498931885
1782776472208736300,6.452736328125,2.50808048248291,-2.37434983253479,-2.0925586223602295
1782776472218715600,6.462715576171875,1.659933090209961,-2.347008228302002,-2.3070757389068604
1782776472228725500,6.4727255859375,0.7198324203491211,-2.124591112136841,-2.3257603645324707
1782776472238735000,6.482735107421875,-0.11028385162353516,-1.876953363418579,-2.1614043712615967
1782776472248714200,6.49271435546875,-0.7513885498046875,-1.6129775047302246,-1.925297737121582
1782776472258724000,6.50272412109375,-1.2331933975219727,-1.371741533279419,-1.635164499282837
1782776472268734000,6.51273388671875,-1.645164966583252,-1.1715545654296875,-1.3248562812805176
1782776472278743600,6.52274365234375,-1.9308056831359863,-1.0279916524887085,-1.1142349243164062
1782776472288723000,6.532722900390625,-2.067422866821289,-0.9554110765457153,-0.9700660109519958
1782776472298732500,6.542732666015625,-2.1132149696350098,-0.8604085445404053,-0.9895987510681152
1782776472308742400,6.552742431640625,-1.9204468727111816,-0.8123395442962646,-1.0962532758712769
1782776472318721800,6.5627216796875,-1.5448384284973145,-0.8062295913696289,-1.2373645305633545
1782776472328731400,6.5727314453125,-1.1224422454833984,-0.8197340965270996,-1.3562575578689575
1782776472338741200,6.5827412109375,-0.7411184310913086,-0.7814068794250488,-1.4651793241500854
1782776472348720400,6.592720458984375,-0.5701789855957031,-0.7034543752670288,-1.4777339696884155
1782776472358730200,6.602730224609375,-0.49893951416015625,-0.6671146154403687,-1.4688503742218018
1782776472368739800,6.61273974609375,-0.42682361602783203,-0.6317521333694458,-1.4435583353042603
1782776472378719200,6.62271923828125,-0.38961029052734375,-0.5404074192047119,-1.392963171005249
1782776472388728800,6.632728759765625,-0.4995689392089844,-0.46107470989227295,-1.3083499670028687
1782776472398738700,6.64273876953125,-0.6727724075317383,-0.3558080196380615,-1.2735706567764282
1782776472408718000,6.652718017578125,-0.7873144149780273,-0.2833898067474365,-1.274179220199585
1782776472418727700,6.662727783203125,-0.8819236755371094,-0.25866270065307617,-1.3805180788040161
1782776472428737500,6.672737548828125,-0.9832048416137695,-0.2491922378540039,-1.4562615156173706
1782776472438716700,6.682716552734375,-1.0051202774047852,-0.22786951065063477,-1.5153281688690186
1782776472448726500,6.6927265625,-0.9286136627197266,-0.2297806739807129,-1.6671271324157715
1782776472458736400,6.702736328125,-0.9022102355957031,-0.32845234870910645,-1.8593602180480957
1782776472468715500,6.712715576171875,-0.7845611572265625,-0.4498060941696167,-1.9503848552703857
1782776472478665700,6.722665771484375,-0.683135986328125,-0.546549916267395,-1.8954417705535889
1782776472488736500,6.732736572265625,-0.5279636383056641,-0.6266849040985107,-1.863288402557373
1782776472498806000,6.742805908203125,-0.17037200927734375,-0.6303327083587646,-1.9717297554016113
1782776472508724200,6.75272412109375,0.3993091583251953,-0.45386767387390137,-2.438844680786133
1782776472518733800,6.76273388671875,1.1874332427978516,-0.3040306568145752,-2.5820116996765137
1782776472528743700,6.77274365234375,1.6500234603881836,-0.4107201099395752,-2.477447032928467
1782776472538722800,6.782722900390625,1.9888620376586914,-0.4948756694793701,-2.420126438140869
1782776472548732400,6.792732421875,1.9795713424682617,-0.629772424697876,-2.2742345333099365
1782776472558742300,6.8027421875,1.828298568725586,-0.9683423042297363,-2.0534508228302
1782776472568721700,6.8127216796875,1.331557273864746,-1.5254955291748047,-1.6084554195404053
1782776472578671600,6.822671630859375,0.6759166717529297,-2.1068336963653564,-1.1688814163208008
1782776472589655800,6.83365576171875,-0.206878662109375,-2.5281496047973633,-0.653792142868042
1782776472608730400,6.85273046875,-0.4592018127441406,-2.8562610149383545,0.358457088470459
1782776472618740000,6.862739990234375,0.31894969940185547,-2.892559766769409,0.8215616941452026
1782776472628719000,6.872718994140625,2.03610897064209,-2.6873185634613037,0.9814941883087158
1782776472638729000,6.88272900390625,3.7882556915283203,-2.4392316341400146,1.0125356912612915
1782776472648738600,6.892738525390625,5.05888557434082,-2.196967124938965,0.9312152862548828
1782776472658658300,6.902658203125,5.839766502380371,-1.7813578844070435,0.23239445686340332
1782776472668729000,6.91272900390625,5.64497184753418,-1.4164364337921143,-0.658077597618103
1782776472678739000,6.922739013671875,4.491265296936035,-1.4409140348434448,-1.533193826675415
1782776472688808200,6.93280810546875,2.9769248962402344,-1.7580854892730713,-2.4076056480407715
1782776472698726700,6.9427265625,1.7491579055786133,-1.9565287828445435,-3.3496909141540527
1782776472708736300,6.952736328125,0.5641717910766602,-2.048985719680786,-4.216163635253906
1782776472718715600,6.962715576171875,-0.5666284561157227,-2.087946891784668,-4.687232971191406
1782776472728725500,6.9727255859375,-1.4669232368469238,-2.0237138271331787,-4.799767971038818
1782776472738735000,6.982735107421875,-1.958360195159912,-1.9061484336853027,-4.516078948974609
1782776472748714500,6.992714599609375,-2.0166049003601074,-1.7081316709518433,-3.7234511375427246
1782776472758724000,7.00272412109375,-1.710611343383789,-1.4415327310562134,-2.4351396560668945
1782776472768733700,7.012733642578125,-1.1562752723693848,-1.181502342224121,-1.349231481552124
1782776472778743600,7.02274365234375,-0.4717597961425781,-1.0597633123397827,-0.40843892097473145
1782776472788723000,7.032722900390625,0.4994010925292969,-1.1186591386795044,0.1418015956878662
1782776472798732500,7.042732666015625,1.4140129089355469,-1.2715736627578735,0.4998960494995117
1782776472808742400,7.052742431640625,2.219724655151367,-1.460349678993225,0.39362406730651855
1782776472818721800,7.0627216796875,2.9216556549072266,-1.743318796157837,-0.27313733100891113
1782776472828731600,7.072731689453125,3.3676652908325195,-1.9989802837371826,-1.2211990356445312
1782776472838741200,7.0827412109375,3.428577423095703,-2.2860584259033203,-2.0172207355499268
1782776472848720400,7.092720458984375,3.145419120788574,-2.5031232833862305,-2.510734796524048
1782776472858730200,7.102730224609375,2.379734992980957,-2.616757869720459,-2.6462888717651367
1782776472868739800,7.11273974609375,1.6221637725830078,-2.7304747104644775,-2.854116916656494
1782776472878659600,7.12265966796875,0.9678859710693359,-2.8285884857177734,-2.7677056789398193
1782776472888730400,7.13273046875,0.1979513168334961,-2.740739345550537,-2.4637937545776367
1782776472898799900,7.1427998046875,-0.5150136947631836,-2.489311456680298,-2.1053836345672607
1782776472908718000,7.152718017578125,-1.0376596450805664,-2.1942219734191895,-1.7207974195480347
1782776472918728000,7.16272802734375,-1.4573688507080078,-1.9210855960845947,-1.1898585557937622
1782776472928737500,7.172737548828125,-1.7474541664123535,-1.7119019031524658,-0.7875525951385498
1782776472938716700,7.182716552734375,-1.8972258567810059,-1.5987672805786133,-0.5375221967697144
1782776472948726500,7.1927265625,-1.8626518249511719,-1.515170931816101,-0.5033866167068481
1782776472958736100,7.202736083984375,-1.5658788681030273,-1.4000380039215088,-0.5166674852371216
1782776472968656000,7.21265576171875,-1.1453542709350586,-1.2506784200668335,-0.34453439712524414
1782776472978726700,7.2227265625,-0.8197526931762695,-1.1251813173294067,-0.2273271083831787
1782776472989678000,7.233677978515625,-0.4806385040283203,-1.0333714485168457,-0.14624285697937012
1782776473008724200,7.25272412109375,-0.5165653228759766,-1.090112328529358,-0.0744779109954834
1782776473018733800,7.26273388671875,-0.692047119140625,-1.0860390663146973,-0.18744516372680664
1782776473028743700,7.27274365234375,-0.8689670562744141,-1.0682380199432373,-0.31540143489837646
1782776473038722800,7.282722900390625,-0.7602777481079102,-1.0650503635406494,-0.5174727439880371
1782776473048732400,7.292732421875,-0.4478483200073242,-1.1225647926330566,-0.6926531791687012
1782776473058742300,7.3027421875,-0.07305335998535156,-1.206024408340454,-0.7983654737472534
1782776473068721700,7.3127216796875,0.17443466186523438,-1.2539517879486084,-0.9415183067321777
1782776473078731500,7.3227314453125,0.3448619842529297,-1.2472081184387207,-1.0190802812576294
1782776473088741000,7.3327412109375,0.3036327362060547,-0.9432751536369324,-0.8841029405593872
1782776473098720500,7.342720458984375,0.3139381408691406,-0.6799781322479248,-0.7272787094116211
1782776473108730400,7.35273046875,0.15955448150634766,-0.4507790207862854,-0.5490121841430664
1782776473118740000,7.362739990234375,-0.016294479370117188,-0.27345770597457886,-0.3974897861480713
1782776473128719000,7.372718994140625,-0.1221456527709961,-0.13100719451904297,-0.20038914680480957
1782776473138729000,7.38272900390625,-0.17470645904541016,-0.02371758222579956,-0.01908409595489502
1782776473148738600,7.392738525390625,-0.2423257827758789,0.015245378017425537,0.06825292110443115
1782776473158718000,7.402718017578125,-0.34891510009765625,-0.019223928451538086,0.061722517013549805
1782776473168727800,7.412727783203125,-0.42315196990966797,-0.01798456907272339,0.11772453784942627
1782776473178737400,7.4227373046875,-0.5268955230712891,0.08851319551467896,0.23706936836242676
1782776473188716800,7.432716796875,-0.48482418060302734,0.10388505458831787,0.2874746322631836
1782776473198726700,7.4427265625,-0.3418922424316406,0.08302104473114014,0.4185396432876587
1782776473208736300,7.452736328125,-0.0907449722290039,0.04216790199279785,0.48342210054397583
1782776473218715600,7.462715576171875,0.22098064422607422,-0.0034176111221313477,0.4498581290245056
1782776473228725500,7.4727255859375,0.6340169906616211,0.06676334142684937,0.23264247179031372
1782776473238735000,7.482735107421875,0.9449348449707031,0.27417606115341187,-0.32721367478370667
1782776473248714200,7.49271435546875,0.9164628982543945,0.68647301197052,-1.2760159969329834
1782776473258724000,7.50272412109375,0.5585470199584961,1.0177690982818604,-2.109436273574829
1782776473268734000,7.51273388671875,0.0077648162841796875,1.110713005065918,-2.385768175125122
1782776473278684000,7.522683837890625,-0.7375888824462891,0.9507400393486023,-1.7866573333740234
1782776473288814300,7.532814453125,-1.4931564331054688,0.5898797512054443,-0.4445447325706482
1782776473298732500,7.542732666015625,-1.5677433013916016,0.1229977011680603,0.6282291412353516
1782776473308742400,7.552742431640625,-0.85711669921875,-0.24568569660186768,1.1602668762207031
1782776473318721800,7.5627216796875,0.37914466857910156,-0.5307703614234924,1.2052760124206543
1782776473328731600,7.572731689453125,1.6715269088745117,-0.769062340259552,0.9332838654518127
1782776473338741200,7.5827412109375,2.711789131164551,-0.919451117515564,0.30967390537261963
1782776473348720400,7.592720458984375,3.191927909851074,-1.1765713691711426,-0.2624202072620392
1782776473358730000,7.60272998046875,3.232484817504883,-1.540330171585083,-0.6100277900695801
1782776473368739800,7.61273974609375,2.8818206787109375,-1.9099174737930298,-0.9430039525032043
1782776473378719200,7.62271923828125,2.2935447692871094,-2.2780723571777344,-1.3077061176300049
1782776473388729000,7.63272900390625,1.5134410858154297,-2.5181686878204346,-1.8295878171920776
1782776473398679000,7.642678955078125,0.8314008712768555,-2.6228411197662354,-2.402275800704956
1782776473408809500,7.6528095703125,0.28101348876953125,-2.643874406814575,-2.8102898597717285
1782776473418727700,7.662727783203125,-0.06624507904052734,-2.5941171646118164,-3.028136730194092
1782776473428737500,7.672737548828125,-0.26395511627197266,-2.411301851272583,-3.0580103397369385
1782776473438716700,7.682716552734375,-0.39166259765625,-2.1868162155151367,-2.899522066116333
1782776473448726500,7.6927265625,-0.591191291809082,-2.007607936859131,-2.4182448387145996
1782776473458736400,7.702736328125,-0.8390302658081055,-1.8581024408340454,-1.5573770999908447
1782776473468655900,7.71265576171875,-1.0205421447753906,-1.6779944896697998,-0.41858983039855957
1782776473478786300,7.722786376953125,-1.1463289260864258,-1.4557268619537354,0.7711324691772461
1782776473488735000,7.73273486328125,-0.955988883972168,-1.263575792312622,1.7543094158172607
1782776473498714400,7.74271435546875,0.1332998275756836,-1.1108345985412598,2.2325243949890137
1782776473508724200,7.75272412109375,1.3379592895507812,-1.080739974975586,2.2777280807495117
1782776473518734000,7.762734130859375,2.317376136779785,-1.2908425331115723,2.1179981231689453
1782776473528743700,7.77274365234375,2.968539237976074,-1.5077450275421143,1.783719778060913
1782776473538722800,7.782722900390625,3.314520835876465,-1.6351017951965332,1.1489572525024414
1782776473548732400,7.792732421875,3.3247766494750977,-1.7979257106781006,0.5591546297073364
1782776473558742300,7.8027421875,2.925495147705078,-1.9479281902313232,0.23204386234283447
1782776473568721700,7.8127216796875,2.289078712463379,-1.9720640182495117,0.013895809650421143
1782776473578731500,7.8227314453125,1.4894218444824219,-1.827191948890686,-0.0021738409996032715
1782776473588741000,7.8327412109375,0.7200984954833984,-1.6093007326126099,0.08809900283813477
1782776473598720500,7.842720458984375,0.13613414764404297,-1.3243608474731445,0.3119363784790039
1782776473608730400,7.85273046875,-0.42324352264404297,-1.0730992555618286,0.46109312772750854
1782776473618740000,7.862739990234375,-0.8720035552978516,-0.8543195724487305,0.5370010137557983
1782776473628719000,7.872718994140625,-1.272268295288086,-0.7161316275596619,0.626462459564209
1782776473638729000,7.88272900390625,-1.5351438522338867,-0.5680667757987976,0.6018493175506592
1782776473648738800,7.89273876953125,-1.6159734725952148,-0.441605806350708,0.44678637385368347
1782776473658718000,7.902718017578125,-1.746713638305664,-0.37880057096481323,0.4152240455150604
1782776473668727800,7.912727783203125,-1.953686237335205,-0.3309389352798462,0.44766339659690857
1782776473678737400,7.9227373046875,-2.076885223388672,-0.25419843196868896,0.4858977198600769
1782776473688716800,7.932716796875,-1.9758524894714355,-0.16930460929870605,0.5408458709716797
1782776473698726700,7.9427265625,-1.6464958190917969,-0.10072779655456543,0.6406326293945312
1782776473708736300,7.952736328125,-1.1413459777832031,-0.049727678298950195,0.700028657913208
1782776473718715600,7.962715576171875,-0.7924976348876953,-0.028669118881225586,0.7330282926559448
1782776473728725500,7.9727255859375,-0.5918455123901367,-0.03289604187011719,0.7097213864326477
1782776473738735000,7.982735107421875,-0.5412893295288086,-0.052968382835388184,0.6721727252006531
1782776473748714500,7.992714599609375,-0.5450286865234375,-0.061753273010253906,0.5892179012298584
1782776473758724000,8.00272412109375,-0.5626287460327148,-0.09528732299804688,0.622626006603241
1782776473768733700,8.012733642578125,-0.69708251953125,-0.13558340072631836,0.6807868480682373
1782776473778684000,8.022683837890625,-0.7425546646118164,-0.14921295642852783,0.7309438586235046
1782776473788754700,8.032754638671875,-0.6084871292114258,-0.12531399726867676,0.7793346047401428
1782776473798734000,8.042734130859374,-0.44614410400390625,-0.1508263349533081,0.9712861180305481
1782776473808803600,8.052803466796876,-0.31536865234375,-0.19807255268096924,1.1883208751678467
1782776473818721800,8.0627216796875,-0.25421810150146484,-0.21822595596313477,1.3288943767547607
1782776473828731600,8.072731689453125,-0.14069271087646484,-0.2425907850265503,1.4274101257324219
1782776473838741200,8.0827412109375,0.11367034912109375,-0.12682580947875977,1.2321152687072754
1782776473848720400,8.092720458984376,0.4226264953613281,0.3620598316192627,0.44240620732307434
1782776473858730200,8.102730224609376,0.28142833709716797,0.7635895013809204,0.029114365577697754
1782776473868680200,8.11268017578125,-0.10833263397216797,0.6286412477493286,0.3637307584285736
1782776473878810600,8.122810546875,-0.4288444519042969,0.5620222091674805,0.8439517021179199
1782776473888729000,8.13272900390625,-0.49279308319091797,0.5281572341918945,1.186217188835144
1782776473898738700,8.14273876953125,-0.023609161376953125,0.3927419185638428,1.6563609838485718
1782776473908718000,8.152718017578126,0.8392705917358398,-0.010691165924072266,2.087272882461548
1782776473918728000,8.16272802734375,1.9428987503051758,-0.5652979612350464,2.0961668491363525
1782776473928737500,8.172737548828126,2.607132911682129,-1.1031544208526611,1.707613229751587
1782776473938716700,8.182716552734375,2.8353347778320312,-1.6132596731185913,1.1622982025146484
1782776473948726500,8.1927265625,2.765462875366211,-1.9266537427902222,0.6244763135910034
1782776473958736100,8.202736083984375,2.4901123046875,-2.046940326690674,0.21730753779411316
1782776473968715500,8.212715576171876,2.2973241806030273,-1.8108222484588623,0.05346640944480896
1782776473978725400,8.222725341796876,0.9650392532348633,-1.5844236612319946,-0.35371142625808716
1782776473988735000,8.23273486328125,-0.010717391967773438,-1.4927202463150024,-0.8770557045936584
1782776473998714400,8.24271435546875,-0.9624910354614258,-1.4240689277648926,-0.9459143877029419
1782776474008724200,8.25272412109375,-1.3290224075317383,-1.1772466897964478,-0.8829618096351624
1782776474018733800,8.26273388671875,-0.7864961624145508,-0.8386046886444092,-1.0853643417358398
