time,seconds_elapsed,z,y,x
1782776409378742800,0.17774267578125,-1.0767583847045898,-0.546148419380188,-0.390857994556427
1782776409388752400,0.18775244140625,-1.0716800689697266,-0.47254395484924316,-0.29674220085144043
1782776409398762200,0.19776220703125,-1.0531902313232422,-0.4109318256378174,-0.14982742071151733
1782776409408741600,0.20774169921875,-1.0383176803588867,-0.3302195072174072,-0.017269551753997803
1782776409418751200,0.217751220703125,-0.9415969848632812,-0.2339770793914795,0.07655948400497437
1782776409428761000,0.227760986328125,-0.7566652297973633,-0.08659493923187256,0.3028762638568878
1782776409438740200,0.237740234375,-0.4858665466308594,-0.0321427583694458,0.4344016909599304
1782776409448750000,0.24775,-0.11189460754394531,-0.01595461368560791,0.4705876111984253
1782776409458759700,0.257759765625,0.16883087158203125,-0.05270493030548096,0.41966599225997925
1782776409468739000,0.267739013671875,0.27303123474121094,-0.10817337036132812,0.31332844495773315
1782776409478749000,0.2777490234375,0.2153158187866211,-0.10867857933044434,0.20664164423942566
1782776409488758500,0.287758544921875,0.08904361724853516,-0.07085764408111572,0.12381014227867126
1782776409498738000,0.297738037109375,-0.051085472106933594,-0.09838700294494629,0.14306773245334625
1782776409508747800,0.307747802734375,-0.11218833923339844,0.04301881790161133,0.26243966817855835
1782776409518757400,0.31775732421875,-0.08123207092285156,0.2257453203201294,0.4458491802215576
1782776409528767200,0.327767333984375,-0.047364234924316406,0.3623976707458496,0.6594089269638062
1782776409538746400,0.337746337890625,-0.04556083679199219,0.4604986906051636,0.7686863541603088
1782776409548756000,0.347755859375,-0.04776763916015625,0.464328408241272,0.7853150963783264
1782776409558765800,0.357765869140625,-0.08535003662109375,0.41290926933288574,0.7018440365791321
1782776409568745200,0.3677451171875,-0.15766334533691406,0.3527393341064453,0.6325757503509521
1782776409578755000,0.377755126953125,-0.18030452728271484,0.2776973247528076,0.5031456351280212
1782776409588764700,0.3877646484375,-0.06935596466064453,0.25019025802612305,0.5325596332550049
1782776409598744000,0.397744140625,0.010481834411621094,0.1945335865020752,0.6351689100265503
1782776409608754000,0.40775390625,0.0021495819091796875,0.08964228630065918,0.6349532604217529
1782776409618763500,0.417763427734375,-0.11089420318603516,0.04515814781188965,0.6513797640800476
1782776409628742700,0.42774267578125,-0.17772674560546875,0.005788564682006836,0.5263773798942566
1782776409638752500,0.43775244140625,-0.2897605895996094,0.19330191612243652,0.12862789630889893
1782776409648762000,0.44776220703125,-0.7010354995727539,0.40241479873657227,-0.06796982884407043
1782776409658741500,0.457741455078125,-1.2110309600830078,0.33976268768310547,0.05005127191543579
1782776409668751400,0.46775146484375,-1.5542259216308594,0.1802990436553955,0.30137836933135986
1782776409678761000,0.477760986328125,-1.6398835182189941,0.10453581809997559,0.5941978693008423
1782776409688740400,0.487740234375,-1.2865495681762695,0.004072427749633789,0.894038736820221
1782776409698750200,0.497750244140625,-0.8656711578369141,-0.1457362174987793,1.1983991861343384
1782776409708759800,0.507759765625,-0.442901611328125,-0.36731767654418945,1.277880072593689
1782776409718739200,0.5177392578125,-0.029758453369140625,-0.5220673084259033,1.1827712059020996
1782776409728748800,0.527748779296875,0.2782630920410156,-0.7155003547668457,0.8945441842079163
1782776409738758700,0.537758544921875,0.5249996185302734,-1.054456114768982,0.5042917132377625
1782776409748737800,0.54773779296875,0.7452125549316406,-1.2680037021636963,0.04066210985183716
1782776409758747600,0.55774755859375,0.9834184646606445,-1.3223369121551514,-0.1276320219039917
1782776409768757200,0.56775732421875,1.2721967697143555,-1.1959049701690674,-0.02490091323852539
1782776409778767000,0.57776708984375,1.691781997680664,-0.9600275754928589,0.24406063556671143
1782776409788746500,0.58774658203125,2.115841865539551,-0.69300377368927,0.6049396991729736
1782776409798756000,0.597756103515625,2.2663822174072266,-0.48992061614990234,0.8715493679046631
1782776409808766000,0.607765869140625,2.111125946044922,-0.3814026117324829,0.9614561796188354
1782776409818745300,0.617745361328125,1.701188087463379,-0.359871506690979,0.9430205821990967
1782776409828755000,0.6277548828125,1.0661230087280273,-0.3701397180557251,0.8905338048934937
1782776409838764800,0.637764892578125,0.7080860137939453,-0.3777233362197876,0.7794851064682007
1782776409848744000,0.647743896484375,0.17415809631347656,-0.33683300018310547,0.734148383140564
1782776409858753500,0.65775341796875,-0.08639812469482422,-0.23319637775421143,0.8298063278198242
1782776409868763400,0.667763427734375,-0.0898599624633789,-0.08287882804870605,1.098349690437317
1782776409878742800,0.67774267578125,0.02042865753173828,0.06947588920593262,1.422908902168274
1782776409888752400,0.68775244140625,0.10589218139648438,0.18679451942443848,1.7048413753509521
1782776409898762200,0.69776220703125,0.16175174713134766,0.2534933090209961,1.9224467277526855
1782776409908741600,0.70774169921875,0.12080955505371094,0.30701780319213867,2.0885162353515625
1782776409918751200,0.717751220703125,0.04475116729736328,0.2737462520599365,2.1227545738220215
1782776409928761000,0.727760986328125,-0.0883016586303711,0.23517823219299316,2.061117649078369
1782776409938740200,0.737740234375,-0.25521373748779297,0.1358177661895752,1.860266089439392
1782776409948750000,0.74775,-0.49239635467529297,-0.0038433074951171875,1.5209487676620483
1782776409958759700,0.757759765625,-0.71417236328125,-0.16550302505493164,1.1080435514450073
1782776409968739000,0.767739013671875,-0.9209175109863281,-0.30778074264526367,0.7564101219177246
1782776409978749000,0.7777490234375,-1.1345958709716797,-0.3890509605407715,0.5168828964233398
1782776409988758500,0.787758544921875,-1.250197410583496,-0.30857324600219727,-0.0885932445526123
1782776409998738000,0.797738037109375,-1.3701190948486328,-0.2642655372619629,-0.17842602729797363
1782776410008747800,0.807747802734375,-1.5007781982421875,-0.20488381385803223,-0.18017804622650146
1782776410018757400,0.81775732421875,-1.6484417915344238,-0.11756110191345215,-0.08931756019592285
1782776410028767200,0.827767333984375,-1.7329349517822266,0.016405582427978516,0.03125607967376709
1782776410038746400,0.837746337890625,-1.7999892234802246,0.12307953834533691,0.16986286640167236
1782776410048756000,0.847755859375,-1.9058074951171875,0.22533512115478516,0.35362708568573
1782776410058765800,0.857765869140625,-2.0389838218688965,0.3166773319244385,0.5542247295379639
1782776410068745200,0.8677451171875,-2.2047972679138184,0.36633825302124023,0.6923291683197021
1782776410078755000,0.877755126953125,-2.360841751098633,0.3684415817260742,0.7910928726196289
1782776410088764700,0.8877646484375,-2.438302993774414,0.35083484649658203,0.7580000162124634
1782776410098744000,0.897744140625,-2.4017372131347656,0.308258056640625,0.6762748956680298
1782776410108754000,0.90775390625,-2.328327178955078,0.2689650058746338,0.5888936519622803
1782776410118763500,0.917763427734375,-2.2111763954162598,0.24307942390441895,0.534669041633606
1782776410128742700,0.92774267578125,-2.0146584510803223,0.19296956062316895,0.49240171909332275
1782776410138752500,0.93775244140625,-1.8323559761047363,0.17608976364135742,0.39605581760406494
1782776410148762000,0.94776220703125,-1.6575713157653809,0.16317057609558105,0.3013930320739746
1782776410158741500,0.957741455078125,-1.572296142578125,0.09130096435546875,0.15709280967712402
1782776410168751400,0.96775146484375,-1.497969150543213,0.03666520118713379,-0.12017989158630371
1782776410178761000,0.977760986328125,-1.4489836692810059,0.025501728057861328,-0.3358250856399536
1782776410188740400,0.987740234375,-1.4248714447021484,0.05808520317077637,-0.5444843769073486
1782776410198750200,0.997750244140625,-1.3624582290649414,0.10712409019470215,-0.7365893125534058
1782776410208759800,1.007759765625,-1.2418584823608398,0.18686223030090332,-0.895724892616272
1782776410218739200,1.0177392578125,-1.0300731658935547,0.2857189178466797,-0.9682968854904175
1782776410228748800,1.027748779296875,-0.709197998046875,0.39758777618408203,-0.9680189490318298
1782776410238758700,1.037758544921875,-0.3143281936645508,0.5254251956939697,-0.9138418436050415
1782776410248737800,1.04773779296875,0.09749794006347656,0.6310148239135742,-0.8724206686019897
1782776410258747600,1.05774755859375,0.47632694244384766,0.6825804710388184,-0.8300333619117737
1782776410268757200,1.06775732421875,0.9270486831665039,0.7558963298797607,-0.8579124212265015
1782776410278767000,1.07776708984375,1.3758392333984375,0.790621280670166,-0.9118348956108093
1782776410288746500,1.08774658203125,1.718545913696289,0.838129997253418,-0.9334221482276917
1782776410298756000,1.097756103515625,2.045827865600586,0.8983681201934814,-0.901851236820221
1782776410308766000,1.107765869140625,2.2013940811157227,0.985605001449585,-0.9379692673683167
1782776410318745300,1.117745361328125,2.08168888092041,1.167921543121338,-1.1110385656356812
1782776410328755000,1.1277548828125,1.6519441604614258,1.2058813571929932,-1.2201638221740723
1782776410338764800,1.137764892578125,1.1947011947631836,1.2162790298461914,-1.0974767208099365
1782776410348744000,1.147743896484375,0.7951488494873047,1.2457118034362793,-0.6664633750915527
1782776410358753500,1.15775341796875,0.7846698760986328,1.2957041263580322,0.0880589485168457
1782776410368763400,1.167763427734375,1.3319177627563477,1.3698360919952393,0.881649374961853
1782776410378742800,1.17774267578125,2.3519840240478516,1.3765571117401123,1.4726086854934692
1782776410388753000,1.1877529296875,3.4403610229492188,1.3484890460968018,1.674618124961853
1782776410398762200,1.19776220703125,4.385156631469727,1.2409603595733643,1.6147664785385132
1782776410408741600,1.20774169921875,4.901824951171875,0.9989819526672363,1.2961983680725098
1782776410418751200,1.217751220703125,4.812887191772461,0.6119122505187988,0.8264452219009399
1782776410428761000,1.227760986328125,4.190363883972168,0.21639585494995117,0.1851896047592163
1782776410438740200,1.237740234375,3.217585563659668,-0.11354446411132812,-0.4729156494140625
1782776410448750000,1.24775,1.9763736724853516,-0.39906787872314453,-1.130052089691162
1782776410458759700,1.257759765625,0.7796440124511719,-0.5419307947158813,-1.690829873085022
1782776410468739000,1.267739013671875,-0.24822616577148438,-0.6439552307128906,-2.0016770362854004
1782776410478749000,1.2777490234375,-1.0189208984375,-0.6319378614425659,-2.138209104537964
1782776410488758500,1.287758544921875,-1.4280061721801758,-0.57079017162323,-2.1569173336029053
1782776410498738000,1.297738037109375,-1.4837303161621094,-0.4878811836242676,-2.0031657218933105
1782776410508747800,1.307747802734375,-1.354294776916504,-0.3507862091064453,-1.6473735570907593
1782776410518757400,1.31775732421875,-1.028864860534668,-0.28874969482421875,-1.0431170463562012
1782776410528767200,1.327767333984375,-0.45154666900634766,-0.18601012229919434,-0.29026979207992554
1782776410538746400,1.337746337890625,0.14483165740966797,-0.1450495719909668,0.42781388759613037
1782776410548756000,1.347755859375,0.6629724502563477,-0.09344196319580078,1.0809674263000488
1782776410558765800,1.357765869140625,1.1261615753173828,-0.05259299278259277,1.6317384243011475
1782776410568745200,1.3677451171875,1.5145254135131836,-0.004715919494628906,2.0314531326293945
1782776410578755000,1.377755126953125,1.8478517532348633,-0.014136552810668945,2.18350887298584
1782776410588764700,1.3877646484375,2.120351791381836,-0.12827110290527344,2.0099740028381348
1782776410598744000,1.397744140625,2.1219005584716797,-0.36076998710632324,1.5411075353622437
1782776410608754000,1.40775390625,1.8008356094360352,-0.7223973274230957,0.9069515466690063
1782776410618763500,1.417763427734375,1.1319036483764648,-1.1063421964645386,0.2866640090942383
1782776410628742700,1.42774267578125,0.30416202545166016,-1.4654195308685303,-0.24722814559936523
1782776410638752500,1.43775244140625,-0.6197137832641602,-1.6852978467941284,-0.6829822063446045
1782776410648762000,1.44776220703125,-1.4567108154296875,-1.7699438333511353,-0.9189785122871399
1782776410658741500,1.457741455078125,-2.2140636444091797,-1.770765781402588,-0.9752331376075745
1782776410669107700,1.468107666015625,-2.800924777984619,-1.7162240743637085,-0.8631751537322998
1782776410679042300,1.478042236328125,-3.25032901763916,-1.5992403030395508,-0.6239147782325745
1782776410689021700,1.488021728515625,-3.54909086227417,-1.4063725471496582,-0.37510883808135986
1782776410699031600,1.498031494140625,-3.6813879013061523,-1.273972988128662,-0.17619788646697998
1782776410709041200,1.508041259765625,-3.739107608795166,-1.1642351150512695,-0.09022676944732666
1782776410719020300,1.518020263671875,-3.7197813987731934,-1.0702507495880127,-0.07496488094329834
1782776410729030100,1.528030029296875,-3.6617517471313477,-1.0403707027435303,-0.11551237106323242
1782776410739039700,1.538039794921875,-3.560274124145508,-1.0151667594909668,-0.2326434850692749
1782776410749019100,1.54801904296875,-3.3986945152282715,-0.9969494342803955,-0.3448880910873413
1782776410759029000,1.558029052734375,-3.1937618255615234,-0.9784111976623535,-0.4337208867073059
1782776410769038600,1.56803857421875,-2.854475498199463,-0.9979472160339355,-0.5110910534858704
1782776410779048400,1.57804833984375,-2.438056468963623,-1.0036053657531738,-0.5454292893409729
1782776410789027800,1.58802783203125,-2.0829787254333496,-1.0059127807617188,-0.5438101887702942
1782776410799037400,1.598037353515625,-1.7957286834716797,-0.9807167053222656,-0.47856152057647705
1782776410809047300,1.60804736328125,-1.6145076751708984,-0.9842379093170166,-0.4405204653739929
1782776410819026400,1.6180263671875,-1.4504547119140625,-0.9502987861633301,-0.41003304719924927
1782776410829036000,1.6280361328125,-1.2939205169677734,-0.8739380836486816,-0.3232564926147461
1782776410839024400,1.6380244140625,-1.1378488540649414,-0.8096458911895752,-0.21889162063598633
1782776410849055700,1.6480556640625,-0.9941310882568359,-0.7662458419799805,-0.0032924413681030273
1782776410859035000,1.658034912109375,-0.7688465118408203,-0.705711841583252,0.2778967618942261
1782776410869044700,1.668044677734375,-0.3967323303222656,-0.6140811443328857,0.5718216896057129
1782776410879024000,1.678024169921875,0.15137577056884766,-0.524956226348877,0.7809016704559326
1782776410889033700,1.68803369140625,0.8299856185913086,-0.464510440826416,0.9585310220718384
1782776410899043600,1.698043701171875,1.6436891555786133,-0.434070348739624,1.049723505973816
1782776410909022700,1.708022705078125,2.14418888092041,-0.4749605655670166,1.076283574104309
1782776410919032600,1.718032470703125,2.3381567001342773,-0.5443575382232666,0.9931036233901978
1782776410929042200,1.728042236328125,2.214448928833008,-0.550107479095459,0.7076387405395508
1782776410939021600,1.738021484375,1.8879003524780273,-0.405057430267334,0.07748246192932129
1782776410949031400,1.748031494140625,1.3483705520629883,-0.1193549633026123,-0.5462491512298584
1782776410959041000,1.758041015625,0.7033605575561523,0.038347721099853516,-0.49503839015960693
1782776410969020400,1.7680205078125,0.07134342193603516,0.13611817359924316,0.11102092266082764
1782776410979030300,1.7780302734375,-0.36123085021972656,0.2627074718475342,0.8971718549728394
1782776410989039900,1.788039794921875,-0.23395252227783203,0.5742101669311523,1.7435911893844604
1782776410999019300,1.798019287109375,0.18329811096191406,0.8718349933624268,2.528236150741577
1782776411009028900,1.80802880859375,1.0685310363769531,0.9493818283081055,3.1169848442077637
1782776411019038700,1.818038818359375,1.8638858795166016,0.7068614959716797,3.2090768814086914
1782776411029048600,1.828048583984375,2.4680023193359375,0.28772687911987305,3.0497097969055176
1782776411039027700,1.83802783203125,2.8124942779541016,-0.10323381423950195,2.675290584564209
1782776411049037300,1.848037353515625,2.934380531311035,-0.3821544647216797,2.175635814666748
1782776411059047200,1.858047119140625,2.9404687881469727,-0.5465538501739502,1.6614525318145752
1782776411069026600,1.868026611328125,2.854435920715332,-0.6285532712936401,1.1978774070739746
1782776411079036400,1.878036376953125,2.7867984771728516,-0.6129353046417236,0.9126696586608887
1782776411089046000,1.8880458984375,2.6108198165893555,-0.6453838348388672,0.7510390281677246
1782776411099025400,1.898025390625,2.331401824951172,-0.6101880073547363,0.7204618453979492
1782776411109035300,1.90803515625,1.7353324890136719,-0.5560338497161865,0.7690002918243408
1782776411119044900,1.918044921875,1.0742807388305664,-0.398276686668396,1.0924718379974365
1782776411129024000,1.92802392578125,0.3736257553100586,-0.20966589450836182,1.3749630451202393
1782776411139033900,1.938033935546875,-0.3001127243041992,-0.04594564437866211,1.7004904747009277
1782776411149043500,1.94804345703125,-0.856297492980957,0.03796219825744629,2.0892317295074463
1782776411159022800,1.95802294921875,-1.310166358947754,0.09229397773742676,2.4704325199127197
1782776411169032700,1.96803271484375,-1.5896573066711426,0.12982392311096191,2.8213839530944824
1782776411179042300,1.978042236328125,-1.7854957580566406,0.23876500129699707,3.1924996376037598
1782776411189021700,1.988021728515625,-1.865351676940918,0.38104677200317383,3.594839096069336
1782776411199031600,1.998031494140625,-1.8932390213012695,0.4599180221557617,3.8919568061828613
1782776411209041200,2.008041259765625,-1.9114232063293457,0.47435998916625977,4.027535915374756
1782776411219020300,2.018020263671875,-1.8461003303527832,0.2794504165649414,3.9325196743011475
1782776411229030100,2.028030029296875,-1.7310853004455566,0.009247541427612305,3.5683767795562744
1782776411239039700,2.038039794921875,-1.6268706321716309,-0.3381319046020508,2.9321911334991455
1782776411249019100,2.04801904296875,-1.631375789642334,-0.6964597702026367,2.1719582080841064
1782776411259029000,2.058029052734375,-1.639866828918457,-1.0230882167816162,1.4555857181549072
1782776411269038600,2.06803857421875,-1.701775074005127,-1.2692346572875977,0.8670692443847656
1782776411279048400,2.07804833984375,-1.7046403884887695,-1.3767331838607788,0.35503721237182617
1782776411289027800,2.08802783203125,-1.6384162902832031,-1.3481758832931519,-0.05606579780578613
1782776411299037400,2.098037353515625,-1.5550193786621094,-1.268850564956665,-0.3514280319213867
1782776411309047300,2.10804736328125,-1.4231657981872559,-1.1373716592788696,-0.45538294315338135
1782776411319026400,2.1180263671875,-1.2665071487426758,-0.9553372859954834,-0.3671380281448364
1782776411329036000,2.1280361328125,-1.157759666442871,-0.7595278024673462,-0.05862569808959961
1782776411339046000,2.1380458984375,-1.1344289779663086,-0.5699889659881592,0.256854772567749
1782776411349025300,2.148025390625,-1.230146884918213,-0.39577698707580566,0.5288348197937012
1782776411359035000,2.158034912109375,-1.45784330368042,-0.2343451976776123,0.6604580879211426
1782776411369044700,2.168044677734375,-1.7132792472839355,-0.1323843002319336,0.6981649398803711
1782776411379024100,2.178024169921875,-1.9857921600341797,-0.048514604568481445,0.691861629486084
1782776411389033700,2.18803369140625,-2.2792859077453613,-0.01956796646118164,0.7103450298309326
1782776411399043600,2.198043701171875,-2.4658851623535156,-0.013074159622192383,0.6950786113739014
1782776411409022700,2.208022705078125,-2.498772621154785,-0.025698184967041016,0.6031348705291748
1782776411419032600,2.218032470703125,-2.431304454803467,-0.07166004180908203,0.4579017162322998
1782776411429042200,2.228042236328125,-2.158881664276123,-0.15207910537719727,0.20807218551635742
1782776411439021600,2.238021484375,-1.7799644470214844,-0.2806737422943115,-0.11005711555480957
1782776411449031400,2.248031494140625,-1.4405813217163086,-0.33541202545166016,-0.4029653072357178
1782776411459041300,2.258041259765625,-1.159489631652832,-0.38005948066711426,-0.6413686275482178
1782776411469020400,2.2680205078125,-0.9029541015625,-0.3687145709991455,-0.8279232978820801
1782776411479030300,2.2780302734375,-0.6055402755737305,-0.34104442596435547,-1.050053596496582
1782776411489040000,2.288039794921875,-0.24254894256591797,-0.29540348052978516,-1.2977981567382812
1782776411499019300,2.298019287109375,0.07668495178222656,-0.25002169609069824,-1.424129605293274
1782776411509028900,2.30802880859375,0.3864278793334961,-0.2470536231994629,-1.3753820657730103
1782776411519038700,2.318038818359375,0.6849288940429688,-0.24960088729858398,-1.2437301874160767
1782776411529048600,2.328048583984375,1.1302375793457031,-0.3372950553894043,-1.186604619026184
1782776411539027700,2.33802783203125,1.6634559631347656,-0.3587470054626465,-1.268792748451233
1782776411549037300,2.348037353515625,2.138028144836426,-0.28254151344299316,-1.4739739894866943
1782776411559047200,2.358047119140625,2.300082206726074,-0.1394195556640625,-1.7725694179534912
1782776411569026600,2.368026611328125,2.13189697265625,-0.13424372673034668,-2.0756616592407227
1782776411579036400,2.378036376953125,1.7939157485961914,-0.15714502334594727,-2.102168560028076
1782776411589046000,2.3880458984375,1.286865234375,-0.22769618034362793,-1.9400842189788818
1782776411599025400,2.398025390625,0.8346900939941406,-0.3067455291748047,-1.579553246498108
1782776411609035300,2.40803515625,0.5358190536499023,-0.28549957275390625,-0.9549229145050049
1782776411619044900,2.418044921875,0.5917806625366211,-0.2038872241973877,-0.31791627407073975
1782776411629024000,2.42802392578125,1.2520275115966797,-0.04897117614746094,0.1082313060760498
1782776411639033900,2.438033935546875,2.306687355041504,0.13370037078857422,0.65477454662323
1782776411649043500,2.44804345703125,3.325582504272461,0.2829861640930176,1.112804889678955
1782776411659022800,2.45802294921875,4.187482833862305,0.3237128257751465,1.2504702806472778
1782776411669032700,2.46803271484375,4.695241928100586,0.2158968448638916,1.0132553577423096
1782776411679042300,2.478042236328125,4.589934349060059,-0.09388518333435059,0.4802262783050537
1782776411689021700,2.488021728515625,4.041778564453125,-0.40117156505584717,-0.18248450756072998
1782776411699031600,2.498031494140625,3.164196014404297,-0.6615055799484253,-0.7720609307289124
1782776411709041200,2.508041259765625,2.1283884048461914,-0.8127171993255615,-1.2294120788574219
1782776411719020500,2.5180205078125,1.0721769332885742,-0.8120934963226318,-1.5010038614273071
1782776411729030100,2.528030029296875,0.17824745178222656,-0.7021526098251343,-1.5458201169967651
1782776411739039700,2.538039794921875,-0.5051193237304688,-0.6083838939666748,-1.419118881225586
1782776411749019100,2.54801904296875,-1.073263168334961,-0.5117818117141724,-1.1493455171585083
1782776411759029000,2.558029052734375,-1.3822860717773438,-0.42719101905822754,-0.8199451565742493
1782776411769038600,2.56803857421875,-1.5410518646240234,-0.2962956428527832,-0.49032700061798096
1782776411779048400,2.57804833984375,-1.5943818092346191,-0.2135779857635498,-0.07971930503845215
1782776411789027800,2.58802783203125,-1.4721431732177734,-0.13971447944641113,0.4955357313156128
1782776411799037700,2.59803759765625,-1.1385955810546875,-0.02520751953125,1.196218729019165
1782776411809047300,2.60804736328125,-0.5311126708984375,0.09555697441101074,1.820749044418335
1782776411819026400,2.6180263671875,0.24378013610839844,0.12470531463623047,2.283266544342041
1782776411829036000,2.6280361328125,0.9989433288574219,0.04618644714355469,2.5815114974975586
1782776411839046000,2.6380458984375,1.778824806213379,-0.15430188179016113,2.6137781143188477
1782776411849025300,2.648025390625,2.4360904693603516,-0.4659137725830078,2.23930287361145
1782776411859035100,2.65803515625,2.6220693588256836,-0.9150415658950806,1.6512402296066284
1782776411869044700,2.668044677734375,2.3333539962768555,-1.404665470123291,0.9342336654663086
1782776411879024000,2.678024169921875,1.6649208068847656,-1.836085557937622,0.2786548137664795
1782776411889033700,2.68803369140625,0.8492155075073242,-2.195219039916992,-0.216272234916687
1782776411899043600,2.698043701171875,-0.060302734375,-2.4255828857421875,-0.5545142292976379
1782776411909022700,2.708022705078125,-0.8667850494384766,-2.471808910369873,-0.6349843740463257
1782776411919032600,2.718032470703125,-1.4405298233032227,-2.409318447113037,-0.454220175743103
1782776411929042200,2.728042236328125,-1.6921710968017578,-2.2702529430389404,-0.07031071186065674
1782776411939021600,2.738021484375,-1.747941017150879,-2.130842924118042,0.4709278345108032
1782776411949031400,2.748031494140625,-1.61055326461792,-1.9932361841201782,1.0968173742294312
1782776411959041000,2.758041015625,-1.4422059059143066,-1.8391637802124023,1.6473422050476074
1782776411969020400,2.7680205078125,-1.3773465156555176,-1.7786694765090942,2.0399060249328613
1782776411979030300,2.7780302734375,-1.3562393188476562,-1.7593668699264526,2.2975125312805176
1782776411989039900,2.788039794921875,-1.1708364486694336,-1.7423797845840454,2.3797502517700195
1782776411999019300,2.798019287109375,-0.9175100326538086,-1.763903021812439,2.405046224594116
1782776412009028900,2.80802880859375,-0.7901239395141602,-1.8910235166549683,2.427809476852417
1782776412019038700,2.818038818359375,-0.7435235977172852,-2.0711746215820312,2.4466135501861572
1782776412029048600,2.828048583984375,-0.6559247970581055,-2.19604754447937,2.3117687702178955
1782776412039027700,2.83802783203125,-0.5373716354370117,-2.2875301837921143,2.1788876056671143
1782776412049037300,2.848037353515625,-0.36895084381103516,-2.3181324005126953,2.173205614089966
1782776412059047200,2.858047119140625,-0.1629810333251953,-2.301013708114624,2.2964248657226562
1782776412069026600,2.868026611328125,0.0780038833618164,-2.2834293842315674,2.445075511932373
1782776412079036400,2.878036376953125,0.30584049224853516,-2.2671427726745605,2.622495651245117
1782776412089046000,2.8880458984375,0.44646549224853516,-2.2292704582214355,2.7999958992004395
1782776412099025400,2.898025390625,0.5000486373901367,-2.1981544494628906,3.0039563179016113
1782776412109035300,2.90803515625,0.4458351135253906,-2.1751956939697266,3.142970561981201
1782776412119044900,2.918044921875,0.2790679931640625,-2.184725284576416,3.2844817638397217
1782776412129024000,2.92802392578125,0.06682968139648438,-2.1885056495666504,3.344170331954956
1782776412139033900,2.938033935546875,-0.12875938415527344,-2.2145133018493652,3.3949668407440186
1782776412149043500,2.94804345703125,-0.33406829833984375,-2.2452893257141113,3.4543380737304688
1782776412159022800,2.95802294921875,-0.5129575729370117,-2.325672149658203,3.432830810546875
1782776412169032700,2.96803271484375,-0.7464189529418945,-2.429124355316162,3.389530897140503
1782776412179042300,2.978042236328125,-0.9693737030029297,-2.5512146949768066,3.3706352710723877
1782776412189021700,2.988021728515625,-1.270108699798584,-2.6703505516052246,3.326767921447754
1782776412199031600,2.998031494140625,-1.514211654663086,-2.7879116535186768,3.305133104324341
1782776412209041200,3.008041259765625,-1.5383925437927246,-2.9672439098358154,3.265148162841797
1782776412219020300,3.018020263671875,-1.4821524620056152,-3.1461334228515625,3.2111194133758545
1782776412229030100,3.028030029296875,-1.523423194885254,-3.2558705806732178,3.2740025520324707
1782776412239039700,3.038039794921875,-1.596264362335205,-3.3927626609802246,3.5069427490234375
1782776412249019100,3.04801904296875,-1.5403051376342773,-3.4735279083251953,3.9454007148742676
1782776412259029000,3.058029052734375,-1.1680774688720703,-3.545438528060913,4.414002895355225
1782776412269038600,3.06803857421875,-0.236541748046875,-3.6767258644104004,4.8341217041015625
1782776412279048400,3.07804833984375,0.7385005950927734,-4.0455708503723145,4.739534378051758
1782776412289027800,3.08802783203125,1.5394315719604492,-4.6281256675720215,4.324278831481934
1782776412299037700,3.09803759765625,1.9834413528442383,-5.180325508117676,3.648939609527588
1782776412309047300,3.10804736328125,2.0434646606445312,-5.6122517585754395,2.943345308303833
1782776412319026400,3.1180263671875,1.8875913619995117,-5.858781814575195,2.2864842414855957
1782776412329036000,3.1280361328125,1.6908206939697266,-5.980042934417725,1.6425716876983643
1782776412339046000,3.1380458984375,1.5908479690551758,-5.994719982147217,1.0514256954193115
1782776412349025300,3.148025390625,1.695521354675293,-5.923940658569336,0.4175400733947754
1782776412359035100,3.15803515625,1.8737249374389648,-6.1515374183654785,0.1793351173400879
1782776412369044700,3.168044677734375,2.227391242980957,-6.318236351013184,0.013689517974853516
1782776412379024100,3.178024169921875,2.8107128143310547,-6.328493118286133,-0.4204392433166504
1782776412389034000,3.188033935546875,3.323820114135742,-6.25035285949707,-0.8396281003952026
1782776412399043600,3.198043701171875,3.795332908630371,-6.070744514465332,-1.2352330684661865
1782776412409022700,3.208022705078125,4.155891418457031,-5.837209224700928,-1.4766204357147217
1782776412419032600,3.218032470703125,4.216363906860352,-5.652605056762695,-1.7756271362304688
1782776412429042200,3.228042236328125,3.9165048599243164,-5.438344955444336,-1.985568642616272
1782776412439021600,3.238021484375,3.3180246353149414,-5.16487455368042,-2.1255247592926025
1782776412449031400,3.248031494140625,2.6364831924438477,-4.8374834060668945,-2.2023909091949463
1782776412459041300,3.258041259765625,2.0299577713012695,-4.489741325378418,-2.169827699661255
1782776412469020400,3.2680205078125,1.6895503997802734,-4.151522159576416,-2.0670058727264404
1782776412479030300,3.2780302734375,1.5492572784423828,-3.749922275543213,-1.8750892877578735
1782776412489040000,3.288039794921875,1.6245689392089844,-3.487356662750244,-1.6958924531936646
1782776412499019300,3.298019287109375,1.8416414260864258,-3.290144920349121,-1.6734352111816406
1782776412509028900,3.30802880859375,2.117403030395508,-3.1485249996185303,-1.8104687929153442
1782776412519038700,3.318038818359375,2.3380632400512695,-3.027634620666504,-2.0119383335113525
1782776412529048600,3.328048583984375,2.402520179748535,-2.8336589336395264,-2.2320454120635986
1782776412539027700,3.33802783203125,2.358976364135742,-2.6384541988372803,-2.355116367340088
1782776412549037300,3.348037353515625,2.1660633087158203,-2.3776721954345703,-2.391162157058716
1782776412559047200,3.358047119140625,1.837310791015625,-2.0726842880249023,-2.2494306564331055
1782776412569026600,3.368026611328125,1.3763561248779297,-1.7421588897705078,-1.9989084005355835
1782776412579036400,3.378036376953125,0.8682956695556641,-1.4064443111419678,-1.7260234355926514
1782776412589046000,3.3880458984375,0.31389427185058594,-1.044008493423462,-1.3586127758026123
1782776412599025400,3.398025390625,-0.16158485412597656,-0.776700496673584,-0.9995107650756836
1782776412609035300,3.40803515625,-0.6233730316162109,-0.560236930847168,-0.6680014133453369
1782776412619044900,3.418044921875,-1.05214262008667,-0.40560412406921387,-0.44026708602905273
1782776412629024000,3.42802392578125,-1.4355835914611816,-0.24147534370422363,-0.30080175399780273
1782776412639033900,3.438033935546875,-1.7324185371398926,-0.13328337669372559,-0.17638754844665527
1782776412649043500,3.44804345703125,-1.9303193092346191,-0.032518863677978516,-0.21902155876159668
1782776412659022800,3.45802294921875,-2.078918933868408,-0.021061182022094727,-0.30503177642822266
1782776412669032700,3.46803271484375,-2.074460983276367,0.04105186462402344,-0.38002586364746094
1782776412679042300,3.478042236328125,-1.9515724182128906,0.07492637634277344,-0.44766664505004883
1782776412689021700,3.488021728515625,-1.7006330490112305,0.1551966667175293,-0.4318122863769531
1782776412699031600,3.498031494140625,-1.3735756874084473,0.25278544425964355,-0.36072564125061035
1782776412709041200,3.508041259765625,-1.0918898582458496,0.36334919929504395,-0.23197460174560547
1782776412719020500,3.5180205078125,-0.8833093643188477,0.43636584281921387,-0.1083226203918457
1782776412729030100,3.528030029296875,-0.648716926574707,0.5393397808074951,0.0234222412109375
1782776412739039700,3.538039794921875,-0.4970703125,0.6008007526397705,0.13257694244384766
1782776412749019100,3.54801904296875,-0.3512744903564453,0.6575901508331299,0.1877448558807373
1782776412759029000,3.558029052734375,-0.24908447265625,0.7134203910827637,0.19035577774047852
1782776412769038800,3.568038818359375,-0.1538858413696289,0.6037383079528809,0.15755295753479004
1782776412779048400,3.57804833984375,-0.077728271484375,0.4479210376739502,0.0653066635131836
1782776412789027800,3.58802783203125,-0.07448005676269531,0.3234431743621826,-0.03750038146972656
1782776412799037700,3.59803759765625,-0.15190601348876953,0.2525198459625244,-0.10577130317687988
1782776412809047300,3.60804736328125,-0.1557626724243164,0.25977563858032227,-0.025485992431640625
1782776412819026400,3.6180263671875,-0.2450246810913086,0.316007137298584,0.17305755615234375
1782776412829036300,3.628036376953125,-0.3601970672607422,0.3498835563659668,0.35823678970336914
1782776412839046000,3.6380458984375,-0.41750621795654297,0.2530970573425293,0.3490135669708252
1782776412849025300,3.648025390625,-0.47831249237060547,0.13985157012939453,0.3178534507751465
1782776412859035000,3.658034912109375,-0.5086793899536133,-0.0067026615142822266,0.3119382858276367
1782776412869044700,3.668044677734375,-0.42108631134033203,-0.18039822578430176,0.29395079612731934
1782776412879024000,3.678024169921875,-0.27830028533935547,-0.37612485885620117,0.14036798477172852
1782776412889034000,3.688033935546875,-0.05049610137939453,-0.5844862461090088,-0.09185576438903809
1782776412899043600,3.698043701171875,0.18734169006347656,-0.8709688186645508,-0.34849071502685547
1782776412909022700,3.708022705078125,0.4485616683959961,-1.0447320938110352,-0.5829422473907471
1782776412919032600,3.718032470703125,0.8192310333251953,-1.296079397201538,-0.7377710342407227
1782776412929042200,3.728042236328125,1.0998878479003906,-1.5191199779510498,-0.8743091821670532
1782776412939021600,3.738021484375,1.2997217178344727,-1.6340159177780151,-0.9228003025054932
1782776412949031400,3.748031494140625,1.381972312927246,-1.3701918125152588,-0.8803411722183228
1782776412959041300,3.758041259765625,1.489394187927246,-1.3579745292663574,-0.9728406667709351
1782776412969020400,3.7680205078125,1.4405193328857422,-1.335674524307251,-1.062652826309204
1782776412979030300,3.7780302734375,1.3953018188476562,-1.1757086515426636,-1.10556960105896
1782776412989039900,3.788039794921875,1.4631690979003906,-0.9694443941116333,-1.1273887157440186
1782776412999019300,3.798019287109375,1.588937759399414,-0.7340021133422852,-1.1016790866851807
1782776413009029000,3.808029052734375,1.7295951843261719,-0.4975874423980713,-0.8501999974250793
1782776413019038700,3.818038818359375,1.8809213638305664,-0.23217129707336426,-0.4899681806564331
1782776413029048600,3.828048583984375,2.1411075592041016,-0.09833598136901855,-0.13622045516967773
1782776413039027700,3.83802783203125,2.546977996826172,-0.06890869140625,0.2488025426864624
1782776413049037300,3.848037353515625,3.031888961791992,-0.10405254364013672,0.49125170707702637
1782776413059047200,3.858047119140625,3.4644298553466797,-0.07060027122497559,0.5904765129089355
1782776413069026600,3.868026611328125,3.801508903503418,-0.05376100540161133,0.481512188911438
1782776413079036400,3.878036376953125,3.922574996948242,-0.15732121467590332,0.2714686393737793
1782776413089046000,3.8880458984375,3.793529510498047,-0.31858277320861816,-0.05831146240234375
1782776413099025400,3.898025390625,3.323422431945801,-0.5079724788665771,-0.3842676877975464
1782776413109035300,3.90803515625,2.592013359069824,-0.7443194389343262,-0.6861055493354797
1782776413119044900,3.918044921875,1.6145305633544922,-0.8171586990356445,-1.050544261932373
1782776413129024000,3.92802392578125,0.8985795974731445,-0.7928605079650879,-1.3244670629501343
1782776413139033900,3.938033935546875,0.3304786682128906,-0.8517558574676514,-1.4923702478408813
1782776413149043500,3.94804345703125,-0.041210174560546875,-0.8903207778930664,-1.5411670207977295
1782776413159022800,3.95802294921875,-0.28998470306396484,-0.8701841831207275,-1.4486018419265747
1782776413169032700,3.96803271484375,-0.4961071014404297,-0.8150656223297119,-1.2595525979995728
1782776413179042300,3.978042236328125,-0.6393766403198242,-0.7629039287567139,-1.0783923864364624
1782776413189021700,3.988021728515625,-0.7964420318603516,-0.7118160724639893,-0.9526707530021667
1782776413199031600,3.998031494140625,-0.8522930145263672,-0.7050538063049316,-1.0037212371826172
1782776413209041200,4.008041259765625,-0.902461051940918,-0.7097594738006592,-0.9713340401649475
1782776413219020500,4.0180205078125,-0.935943603515625,-0.7008218765258789,-0.9049612283706665
1782776413229030100,4.028030029296875,-0.9560985565185547,-0.71630859375,-0.8069369196891785
1782776413239040000,4.0380400390625,-1.0106773376464844,-0.7038989067077637,-0.7176417708396912
1782776413249019100,4.04801904296875,-1.1468238830566406,-0.69940185546875,-0.8155826926231384
1782776413259029000,4.058029052734375,-1.2512688636779785,-0.7264430522918701,-0.8903743028640747
1782776413269038600,4.06803857421875,-1.4774837493896484,-1.0023112297058105,-0.9082188606262207
1782776413279048400,4.07804833984375,-1.3895158767700195,-1.074821949005127,-1.3327666521072388
1782776413289027800,4.08802783203125,-1.4998650550842285,-0.9975113868713379,-1.6427252292633057
1782776413299037700,4.09803759765625,-1.514021873474121,-1.0111467838287354,-1.836811900138855
1782776413309047300,4.10804736328125,-1.4996047019958496,-1.0922276973724365,-1.7852134704589844
1782776413319026400,4.1180263671875,-1.554542064666748,-1.1344221830368042,-1.9350178241729736
1782776413329036000,4.1280361328125,-1.7646050453186035,-1.1033579111099243,-2.203664779663086
1782776413339046000,4.1380458984375,-2.074277877807617,-0.9887485504150391,-2.3116345405578613
1782776413349025300,4.148025390625,-2.43038272857666,-0.818340539932251,-2.347248077392578
1782776413359035000,4.158034912109375,-2.7155075073242188,-0.6201233863830566,-2.4264960289001465
1782776413369044700,4.168044677734375,-2.9516615867614746,-0.4680604934692383,-2.503913164138794
1782776413379024100,4.178024169921875,-3.0197672843933105,-0.40448927879333496,-2.5860064029693604
1782776413389033700,4.18803369140625,-2.8249001502990723,-0.4047684669494629,-2.6480472087860107
1782776413399043600,4.198043701171875,-2.5589256286621094,-0.3671412467956543,-2.6124706268310547
1782776413409022700,4.208022705078125,-2.3603525161743164,-0.3909585475921631,-2.482832431793213
1782776413419032600,4.218032470703125,-1.974785327911377,-0.3949270248413086,-2.2672207355499268
1782776413429042200,4.228042236328125,-1.50480318069458,-0.3110983371734619,-2.1303787231445312
1782776413439021600,4.238021484375,-1.2346563339233398,-0.2900841236114502,-2.0019047260284424
1782776413449031400,4.248031494140625,-0.9652185440063477,-0.2662346363067627,-1.8285092115402222
1782776413459041000,4.258041015625,-0.7731418609619141,-0.22973012924194336,-1.659367561340332
1782776413469020400,4.2680205078125,-0.6059112548828125,-0.23731207847595215,-1.5479724407196045
1782776413479030300,4.2780302734375,-0.51678466796875,-0.2895231246948242,-1.4973721504211426
1782776413489040000,4.288039794921875,-0.3459892272949219,-0.35545969009399414,-1.5342375040054321
1782776413499019300,4.298019287109375,-0.15655040740966797,-0.40427112579345703,-1.5730385780334473
1782776413509029000,4.308029052734375,0.1943979263305664,-0.419464111328125,-1.5509761571884155
1782776413519038700,4.318038818359375,0.5675220489501953,-0.41895341873168945,-1.4882638454437256
1782776413529048600,4.328048583984375,0.8837900161743164,-0.42194294929504395,-1.3727893829345703
1782776413539027700,4.33802783203125,1.1220312118530273,-0.43997836112976074,-1.3125438690185547
1782776413549037300,4.348037353515625,1.2854127883911133,-0.4129178524017334,-1.2411081790924072
1782776413559047200,4.358047119140625,1.3484344482421875,-0.372189998626709,-1.267763376235962
1782776413569026600,4.368026611328125,1.2263927459716797,-0.24191951751708984,-0.7527951598167419
1782776413579036400,4.378036376953125,1.0675268173217773,-0.17980575561523438,-0.6221930980682373
1782776413589046000,4.3880458984375,0.9389400482177734,-0.09853243827819824,-0.553557276725769
1782776413599025400,4.398025390625,0.8049516677856445,0.018271923065185547,-0.5758247375488281
1782776413609035300,4.40803515625,0.6647205352783203,0.13428831100463867,-0.4141315817832947
1782776413619044900,4.418044921875,0.49417781829833984,0.2024669647216797,-0.15888285636901855
1782776413629024000,4.42802392578125,0.44882965087890625,0.2395937442779541,0.029760032892227173
1782776413639033900,4.438033935546875,0.509033203125,0.312732458114624,0.1400691270828247
1782776413649043500,4.44804345703125,0.5089082717895508,0.452974796295166,0.17389225959777832
1782776413659022800,4.45802294921875,0.45755958557128906,0.5883872509002686,0.276195228099823
1782776413669032700,4.46803271484375,0.34569740295410156,0.6200706958770752,0.4767373204231262
1782776413679042300,4.478042236328125,0.1874370574951172,0.6825375556945801,0.692009449005127
1782776413689021700,4.488021728515625,-0.036604881286621094,0.76519775390625,0.8050482869148254
1782776413699031600,4.498031494140625,-0.2478771209716797,0.8013837337493896,0.8361290693283081
1782776413709041200,4.508041259765625,-0.27421092987060547,0.7818155288696289,0.8419686555862427
1782776413719020300,4.518020263671875,-0.11410903930664062,0.7899079322814941,0.8644078969955444
1782776413729030100,4.528030029296875,0.08691692352294922,0.7151951789855957,0.839329719543457
1782776413739040000,4.5380400390625,0.22108173370361328,0.5796692371368408,0.8956854343414307
1782776413749019100,4.54801904296875,0.2778787612915039,0.5386462211608887,0.5552965402603149
1782776413759029000,4.558029052734375,-0.08321094512939453,0.6123194694519043,0.07847249507904053
1782776413769038800,4.568038818359375,-0.6267633438110352,0.5715701580047607,-0.12649548053741455
1782776413779048400,4.57804833984375,-1.2220172882080078,0.470656156539917,0.1055140495300293
1782776413789027800,4.58802783203125,-1.533686637878418,0.44432663917541504,0.6477149724960327
1782776413799037400,4.598037353515625,-1.1959824562072754,0.4411964416503906,1.231640338897705
1782776413809047300,4.60804736328125,-0.31974220275878906,0.3892092704772949,1.7212367057800293
1782776413819026400,4.6180263671875,0.8224029541015625,0.21830296516418457,2.2076823711395264
1782776413829036300,4.628036376953125,1.9432792663574219,-0.07412958145141602,2.4633851051330566
1782776413839046000,4.6380458984375,2.9504919052124023,-0.45772290229797363,2.329472541809082
1782776413849025300,4.648025390625,3.466355323791504,-0.9077461957931519,1.797264575958252
1782776413859035000,4.658034912109375,3.5620222091674805,-1.353212594985962,0.9942903518676758
1782776413869044700,4.668044677734375,3.2963857650756836,-1.725940465927124,0.4239344596862793
1782776413879024000,4.678024169921875,2.8995542526245117,-1.9856212139129639,-0.18396973609924316
1782776413889033700,4.68803369140625,2.3964786529541016,-2.108231782913208,-0.7403789758682251
1782776413899043600,4.698043701171875,1.7772045135498047,-2.0535101890563965,-1.1968598365783691
1782776413909022700,4.708022705078125,1.1341829299926758,-1.906775712966919,-1.5492066144943237
1782776413919032600,4.718032470703125,0.48649024963378906,-1.6640706062316895,-1.7466392517089844
1782776413929042200,4.728042236328125,-0.07582664489746094,-1.4294540882110596,-1.7326469421386719
1782776413939021600,4.738021484375,-0.5265531539916992,-1.225639820098877,-1.4815239906311035
1782776413949031400,4.748031494140625,-0.8733081817626953,-0.9879089593887329,-1.135690689086914
1782776413959041300,4.758041259765625,-0.9820747375488281,-0.7296513319015503,-0.8215303421020508
1782776413969020400,4.7680205078125,-0.7948465347290039,-0.5502332448959351,-0.5033961534500122
1782776413979030300,4.7780302734375,-0.5340709686279297,-0.42914533615112305,-0.12479043006896973
1782776413989039900,4.788039794921875,-0.3609914779663086,-0.3367927074432373,0.3182950019836426
1782776413999019300,4.798019287109375,-0.3388690948486328,-0.24308454990386963,0.6977298259735107
1782776414009029000,4.808029052734375,-0.39446449279785156,-0.15778827667236328,1.0288138389587402
1782776414019038700,4.818038818359375,-0.4928274154663086,-0.13715767860412598,1.2272038459777832
1782776414029048600,4.828048583984375,-0.6063327789306641,-0.2195448875427246,1.2654476165771484
1782776414039027700,4.83802783203125,-0.7361307144165039,-0.38445818424224854,1.262732982635498
1782776414049037300,4.848037353515625,-0.8401689529418945,-0.5642576217651367,1.144345760345459
1782776414059047200,4.858047119140625,-0.7185993194580078,-0.8456616401672363,0.784521222114563
1782776414069026600,4.868026611328125,-0.5851573944091797,-1.1061534881591797,0.32267487049102783
1782776414079036400,4.878036376953125,-0.4509458541870117,-1.3238747119903564,-0.07488811016082764
1782776414089046000,4.8880458984375,-0.22475242614746094,-1.4642764329910278,-0.45284104347229004
1782776414099025400,4.898025390625,-0.09266090393066406,-1.585052251815796,-0.7317184805870056
1782776414109035300,4.90803515625,-0.14704227447509766,-1.5806186199188232,-0.9076607823371887
1782776414119044900,4.918044921875,-0.2071552276611328,-1.4977912902832031,-0.9958707690238953
1782776414129024000,4.92802392578125,-0.39858436584472656,-1.3585832118988037,-0.9134824275970459
1782776414139033900,4.938033935546875,-0.6671600341796875,-1.1828407049179077,-0.8090724945068359
1782776414149043500,4.94804345703125,-0.988306999206543,-0.9891102313995361,-0.5981308817863464
1782776414159022800,4.95802294921875,-1.2946720123291016,-0.8234989643096924,-0.3779332637786865
1782776414169032700,4.96803271484375,-1.6055431365966797,-0.6325362920761108,-0.14435994625091553
1782776414179042300,4.978042236328125,-1.988365650177002,-0.4478980302810669,0.032732248306274414
1782776414189021700,4.988021728515625,-2.321739673614502,-0.3077363967895508,0.22819876670837402
1782776414199031600,4.998031494140625,-2.613649845123291,-0.1655435562133789,0.42234909534454346
1782776414209041200,5.008041259765625,-2.771577835083008,-0.06843709945678711,0.5004633665084839
1782776414219020300,5.018020263671875,-2.8108267784118652,-0.03462839126586914,0.4963415265083313
1782776414229030100,5.028030029296875,-2.70097017288208,-0.05004525184631348,0.4085308909416199
1782776414239039700,5.038039794921875,-2.423398971557617,-0.10127401351928711,0.3700513243675232
1782776414249019100,5.04801904296875,-2.0859832763671875,-0.12839984893798828,0.3317614793777466
1782776414259029000,5.058029052734375,-1.7075014114379883,-0.14454078674316406,0.16377198696136475
1782776414269038600,5.06803857421875,-1.2829217910766602,-0.16546869277954102,-0.026812970638275146
1782776414279048400,5.07804833984375,-0.9481334686279297,-0.14815878868103027,-0.18854016065597534
1782776414289027800,5.08802783203125,-0.6640872955322266,-0.10495305061340332,-0.22562414407730103
1782776414298977800,5.097977783203125,-0.5159759521484375,-0.020018815994262695,-0.22399568557739258
1782776414309048600,5.108048583984375,-0.31185436248779297,0.08844780921936035,-0.2446029782295227
1782776414319058200,5.11805810546875,-0.07294082641601562,0.22204184532165527,-0.22779476642608643
1782776414329097500,5.128097412109375,0.15076541900634766,0.3844938278198242,-0.15109628438949585
1782776414339046000,5.1380458984375,0.3018770217895508,0.5392932891845703,0.06918281316757202
1782776414349025300,5.148025390625,0.44251346588134766,0.6316306591033936,0.3015897870063782
1782776414359035100,5.15803515625,0.6465826034545898,0.6577532291412354,0.41263335943222046
1782776414369044700,5.168044677734375,0.9398088455200195,0.6009466648101807,0.46037280559539795
1782776414379024100,5.178024169921875,1.328775405883789,0.47765636444091797,0.4252365231513977
1782776414389064400,5.188064453125,1.7125511169433594,0.2312788963317871,0.2587205171585083
1782776414399043600,5.198043701171875,2.222476005554199,0.16080594062805176,-0.1390722095966339
1782776414409022700,5.208022705078125,2.561274528503418,0.42820000648498535,-0.8494503498077393
1782776414419032600,5.218032470703125,2.400297164916992,0.5735838413238525,-1.3121678829193115
1782776414429042200,5.228042236328125,1.878519058227539,0.5895130634307861,-1.277803659439087
1782776414439021600,5.238021484375,1.3440866470336914,0.6349875926971436,-0.7686753273010254
1782776414449031400,5.248031494140625,0.9151067733764648,0.6775848865509033,0.10330531001091003
1782776414459041000,5.258041015625,0.7276449203491211,0.5223422050476074,1.0886589288711548
1782776414469020400,5.2680205078125,0.842529296875,0.19630146026611328,1.7511677742004395
1782776414479030300,5.2780302734375,1.2270078659057617,-0.2831904888153076,1.8861936330795288
1782776414489040000,5.288039794921875,1.7045602798461914,-0.5781112909317017,1.5439664125442505
1782776414499019300,5.298019287109375,1.914907455444336,-0.8443331718444824,0.9998155236244202
1782776414509029000,5.308029052734375,1.7103586196899414,-1.141500473022461,0.47620677947998047
1782776414519038700,5.318038818359375,1.251997947692871,-1.5041340589523315,0.003055095672607422
1782776414529048600,5.328048583984375,0.8319549560546875,-1.8195703029632568,-0.5413119196891785
1782776414539027700,5.33802783203125,0.3879680633544922,-2.0026984214782715,-1.0931612253189087
1782776414549037300,5.348037353515625,-0.051001548767089844,-2.017247438430786,-1.5958099365234375
1782776414559047200,5.358047119140625,-0.5326099395751953,-1.9227831363677979,-1.9043729305267334
1782776414569026600,5.368026611328125,-1.0640192031860352,-1.711942434310913,-1.917932152748108
1782776414579036200,5.3780361328125,-1.4742050170898438,-1.4597580432891846,-1.854048252105713
1782776414589046000,5.3880458984375,-1.6707220077514648,-1.207449197769165,-1.7473747730255127
1782776414599025400,5.398025390625,-1.5991296768188477,-1.039090871810913,-1.5839056968688965
1782776414609035000,5.408034912109375,-1.4059247970581055,-0.9896764755249023,-1.3530193567276
1782776414619044900,5.418044921875,-1.1152067184448242,-1.0166399478912354,-1.0126726627349854
1782776414629024000,5.42802392578125,-0.7818317413330078,-1.1192010641098022,-0.6548206210136414
1782776414639033600,5.43803369140625,-0.5322713851928711,-1.213042974472046,-0.2762388586997986
1782776414649043500,5.44804345703125,-0.22251510620117188,-1.2299206256866455,0.07048705220222473
1782776414659022800,5.45802294921875,0.2141704559326172,-1.1008988618850708,0.4686306416988373
1782776414669032400,5.468032470703125,0.8154706954956055,-1.0113927125930786,0.9127475023269653
1782776414679042300,5.478042236328125,1.4779586791992188,-0.9863805770874023,1.3667010068893433
1782776414689021700,5.488021728515625,2.109097480773926,-0.9181256294250488,1.6552166938781738
1782776414699031600,5.498031494140625,2.6274404525756836,-0.9462966918945312,1.5173983573913574
1782776414709041400,5.50804150390625,2.8003387451171875,-1.083866834640503,0.9865211248397827
1782776414719020300,5.518020263671875,2.584559440612793,-1.3292114734649658,0.2725495398044586
1782776414729030100,5.528030029296875,1.9492082595825195,-1.515610694885254,-0.31650668382644653
1782776414739039700,5.538039794921875,1.1894540786743164,-1.6480543613433838,-0.6403090357780457
1782776414749019100,5.54801904296875,0.4712972640991211,-1.6579575538635254,-0.8527140617370605
1782776414759029000,5.558029052734375,-0.14487743377685547,-1.564039707183838,-0.9503732919692993
1782776414769038600,5.56803857421875,-0.6731357574462891,-1.3875470161437988,-0.9004562497138977
1782776414779048400,5.57804833984375,-1.1348943710327148,-1.2167729139328003,-0.7531991004943848
1782776414789027800,5.58802783203125,-1.4568891525268555,-1.0288442373275757,-0.5880545973777771
1782776414799037400,5.598037353515625,-1.838557243347168,-0.8259364366531372,-0.45498964190483093
1782776414809047300,5.60804736328125,-2.158081531524658,-0.686234712600708,-0.3880133032798767
1782776414818966800,5.617966796875,-2.463991641998291,-0.5617243051528931,-0.36013221740722656
1782776414830060500,5.629060546875,-2.7982139587402344,-0.4788017272949219,-0.36013418436050415
1782776414849025300,5.648025390625,-3.1476550102233887,-0.3783445358276367,-0.2885169982910156
1782776414859035000,5.658034912109375,-3.192647933959961,-0.357177734375,-0.20820099115371704
1782776414869044700,5.668044677734375,-3.0481600761413574,-0.36620521545410156,-0.19732451438903809
1782776414879024000,5.678024169921875,-2.671574115753174,-0.38682985305786133,-0.23768764734268188
1782776414889033700,5.68803369140625,-2.1133480072021484,-0.4707803726196289,-0.31353119015693665
1782776414899043600,5.698043701171875,-1.531163215637207,-0.568718671798706,-0.4037818908691406
1782776414909022700,5.708022705078125,-0.9130640029907227,-0.6081792116165161,-0.48188501596450806
1782776414919032600,5.718032470703125,-0.4989662170410156,-0.6276832818984985,-0.4714723825454712
1782776414929042400,5.72804248046875,-0.17104625701904297,-0.6053129434585571,-0.5556985139846802
1782776414939021600,5.738021484375,0.06374454498291016,-0.5804315805435181,-0.5973360538482666
1782776414949031400,5.748031494140625,0.1575908660888672,-0.5559049844741821,-0.4953160285949707
1782776414959041000,5.758041015625,0.3976011276245117,-0.49760234355926514,-0.3140857517719269
1782776414969020400,5.7680205078125,0.6297340393066406,-0.32601797580718994,0.08026158809661865
1782776414979030300,5.7780302734375,0.9457588195800781,-0.1507120132446289,0.4642903506755829
1782776414989039900,5.788039794921875,1.3482465744018555,-0.02850508689880371,0.7329554557800293
1782776414999019300,5.798019287109375,1.727128028869629,0.07403647899627686,0.9538367986679077
1782776415009029000,5.808029052734375,2.021571159362793,0.12237215042114258,1.115524411201477
1782776415019038700,5.818038818359375,2.102304458618164,0.08606231212615967,1.1509010791778564
1782776415029048600,5.828048583984375,2.0932445526123047,0.023909926414489746,0.9907813668251038
1782776415039027700,5.83802783203125,1.9846105575561523,-0.03202688694000244,0.6063607335090637
1782776415049037300,5.848037353515625,1.735661506652832,0.09489047527313232,0.04391813278198242
1782776415059047200,5.858047119140625,1.2312345504760742,0.23969507217407227,-0.20632138848304749
1782776415069026600,5.868026611328125,0.7033510208129883,0.1403203010559082,0.0698210597038269
1782776415078976500,5.8779765625,0.25032711029052734,0.06479847431182861,0.6737553477287292
1782776415089047600,5.888047607421875,0.06867122650146484,0.1906416416168213,1.250257968902588
1782776415099116800,5.89811669921875,0.36847972869873047,0.2734084129333496,1.6127852201461792
1782776415109035300,5.90803515625,0.9672155380249023,0.16910207271575928,1.9236791133880615
1782776415119044900,5.918044921875,1.680436134338379,-0.14624130725860596,2.161590814590454
1782776415129024000,5.92802392578125,2.180190086364746,-0.41793549060821533,2.157330274581909
1782776415139033900,5.938033935546875,2.3919878005981445,-0.6141320466995239,1.9708192348480225
1782776415149043500,5.94804345703125,2.4926223754882812,-0.7742440104484558,1.546000361442566
1782776415159022800,5.95802294921875,2.3935508728027344,-0.9186352491378784,1.0823051929473877
1782776415169032700,5.96803271484375,2.09283447265625,-1.1316922903060913,0.676132321357727
1782776415179042300,5.978042236328125,1.6413993835449219,-1.3304166793823242,0.3368713855743408
1782776415189021700,5.988021728515625,1.1234540939331055,-1.4327476024627686,0.1057400107383728
1782776415199031600,5.998031494140625,0.6231851577758789,-1.3768340349197388,-0.04186660051345825
1782776415208981500,6.0079814453125,0.1432180404663086,-1.2554432153701782,-0.055815160274505615
1782776415219112000,6.01811181640625,-0.49580860137939453,-1.0439167022705078,0.05442523956298828
1782776415229030100,6.028030029296875,-0.9226627349853516,-0.8690062165260315,0.13055753707885742
1782776415239039700,6.038039794921875,-1.329599380493164,-0.6879033446311951,0.2987450361251831
1782776415249019100,6.04801904296875,-1.6609368324279785,-0.5278916358947754,0.5604365468025208
1782776415259029000,6.058029052734375,-1.8924808502197266,-0.37291646003723145,0.8781858086585999
1782776415269038600,6.06803857421875,-1.9857892990112305,-0.21547627449035645,1.2569844722747803
1782776415279048400,6.07804833984375,-1.9222311973571777,-0.12270557880401611,1.6089115142822266
1782776415289027800,6.08802783203125,-1.7453665733337402,-0.08695864677429199,1.9614665508270264
1782776415299037400,6.098037353515625,-1.398324966430664,-0.0810389518737793,2.287788152694702
1782776415309047300,6.10804736328125,-0.8192472457885742,-0.14800488948822021,2.532078742980957
1782776415318966800,6.117966796875,-0.133026123046875,-0.2468266487121582,2.6099250316619873
1782776415329097200,6.12809716796875,0.6537561416625977,-0.38653600215911865,2.4854159355163574
1782776415338986200,6.137986328125,1.1945381164550781,-0.5516586303710938,2.195676565170288
1782776415350371600,6.14937158203125,1.5749540328979492,-0.7001487016677856,1.5531061887741089
1782776415369106000,6.16810595703125,1.4793834686279297,-1.0172392129898071,0.27088463306427
1782776415379024100,6.178024169921875,0.9872665405273438,-1.1472066640853882,-0.149569571018219
1782776415389033700,6.18803369140625,0.37782859802246094,-1.110095739364624,-0.3523558974266052
1782776415399043600,6.198043701171875,-0.2237377166748047,-0.8905254602432251,-0.39980989694595337
1782776415409022700,6.208022705078125,-0.779810905456543,-0.5970797538757324,-0.3111327290534973
1782776415419032600,6.218032470703125,-1.2403202056884766,-0.3530846834182739,-0.0010579824447631836
1782776415429042400,6.22804248046875,-1.601130485534668,-0.10251259803771973,0.3527708053588867
1782776415439021600,6.238021484375,-1.7899470329284668,0.12627935409545898,0.6444273591041565
1782776415449031400,6.248031494140625,-1.958207130432129,0.3450648784637451,0.8704920411109924
1782776415459041000,6.258041015625,-2.0108938217163086,0.4916989803314209,1.0096638202667236
1782776415469020400,6.2680205078125,-2.0637927055358887,0.5761051177978516,1.1562211513519287
1782776415479060700,6.278060791015625,-2.0625033378601074,0.6339774131774902,1.2331569194793701
1782776415488980200,6.287980224609375,-2.0481114387512207,0.6374623775482178,1.2688376903533936
1782776415499110700,6.298110595703125,-1.9827265739440918,0.5855550765991211,1.209062933921814
1782776415509029000,6.308029052734375,-1.7179441452026367,0.5092151165008545,0.9995284676551819
1782776415519038700,6.318038818359375,-1.3975276947021484,0.38547730445861816,0.8058507442474365
1782776415529048600,6.328048583984375,-1.1241750717163086,0.24649572372436523,0.7105602622032166
1782776415539027700,6.33802783203125,-0.861546516418457,0.12378716468811035,0.616658091545105
1782776415549037300,6.348037353515625,-0.6810188293457031,0.0848228931427002,0.4939822256565094
1782776415559047200,6.358047119140625,-0.5581521987915039,0.07283234596252441,0.3677560091018677
1782776415569026600,6.368026611328125,-0.4638843536376953,0.07220792770385742,0.2691482901573181
1782776415579036200,6.3780361328125,-0.39310646057128906,0.05558180809020996,0.18747004866600037
1782776415589046000,6.3880458984375,-0.3287487030029297,0.07445764541625977,0.13431721925735474
1782776415599025400,6.398025390625,-0.24416351318359375,0.12308287620544434,0.13384419679641724
1782776415609035000,6.408034912109375,-0.10810470581054688,0.16762304306030273,0.17434638738632202
1782776415619044900,6.418044921875,-0.009110450744628906,0.2438185214996338,0.24482357501983643
1782776415629024000,6.42802392578125,0.031188011169433594,0.2847452163696289,0.2771371603012085
1782776415639033600,6.43803369140625,0.0005559921264648438,0.2962374687194824,0.3942376971244812
1782776415649043500,6.44804345703125,-0.00077056884765625,0.25565171241760254,0.5498595833778381
1782776415659022800,6.45802294921875,0.045607566833496094,0.14228034019470215,0.5463272333145142
1782776415669032400,6.468032470703125,0.23064708709716797,-0.09321188926696777,0.07549619674682617
1782776415679042300,6.478042236328125,0.4200439453125,-0.043459415435791016,-0.5777572989463806
1782776415689021700,6.488021728515625,0.3879661560058594,0.20937299728393555,-1.3052983283996582
1782776415699031600,6.498031494140625,0.15861797332763672,0.2945539951324463,-1.734021544456482
1782776415709041400,6.50804150390625,-0.15440654754638672,0.2126772403717041,-1.7553951740264893
1782776415719020300,6.518020263671875,-0.337310791015625,0.28258323669433594,-1.2242306470870972
1782776415729030100,6.528030029296875,-0.3139514923095703,0.2980618476867676,-0.3157593011856079
1782776415739039700,6.538039794921875,-0.028290748596191406,0.2159287929534912,0.9705790281295776
1782776415749019100,6.54801904296875,0.7904500961303711,-0.07287335395812988,2.067775011062622
1782776415759029000,6.558029052734375,1.8074235916137695,-0.3034522533416748,2.4422523975372314
1782776415769038600,6.56803857421875,2.5801029205322266,-0.48862433433532715,2.4316153526306152
1782776415779048400,6.57804833984375,3.0739002227783203,-0.734788179397583,1.8338652849197388
1782776415789027800,6.58802783203125,3.112607002258301,-1.008797526359558,0.8950756192207336
1782776415799037400,6.598037353515625,2.70706844329834,-1.4125597476959229,0.07993635535240173
1782776415809047300,6.60804736328125,2.085407257080078,-1.7692360877990723,-0.5763041973114014
1782776415818966800,6.617966796875,1.5569639205932617,-2.0011892318725586,-1.0660014152526855
1782776415829037600,6.62803759765625,1.0645809173583984,-2.0276927947998047,-1.2933752536773682
1782776415839107000,6.638107177734375,0.5748386383056641,-1.865766167640686,-1.249585747718811
1782776415849025300,6.648025390625,0.604884147644043,-1.5321897268295288,-0.8243950605392456
1782776415859035100,6.65803515625,0.058208465576171875,-1.211498498916626,-0.162419855594635
1782776415869044700,6.668044677734375,-0.31893062591552734,-0.8976348638534546,-0.135868102312088
1782776415879024000,6.678024169921875,-0.6216230392456055,-0.6108031272888184,-0.4410896897315979
1782776415889034000,6.688033935546875,-0.8870296478271484,-0.6309595108032227,-0.5413023233413696
1782776415899043600,6.698043701171875,-1.1107187271118164,-0.7064859867095947,-0.6714908480644226
1782776415909022700,6.708022705078125,-1.4981908798217773,-0.7214832305908203,-0.8444952368736267
1782776415919032600,6.718032470703125,-1.7771739959716797,-0.8128840923309326,-0.8725385665893555
1782776415929042400,6.72804248046875,-1.980219841003418,-0.8789150714874268,-0.5569355487823486
1782776415939021600,6.738021484375,-1.481827735900879,-1.0289801359176636,-0.11164164543151855
1782776415949031400,6.748031494140625,-1.0638818740844727,-1.3770294189453125,0.6168951392173767
