time,seconds_elapsed,z,y,x
1782776138758861600,0.185861572265625,-0.5076290369033813,-0.02687807008624077,0.08552113175392151
1782776138768849700,0.195849609375,-0.5076290369033813,-0.02687807008624077,0.08552113175392151
1782776138778881000,0.205881103515625,-0.5076290369033813,-0.02687807008624077,0.08552113175392151
1782776138788839000,0.2158388671875,-0.04581489413976669,0.11789698898792267,0.24984388053417206
1782776138798870300,0.225870361328125,-0.009162978269159794,0.12828169763088226,0.2968805134296417
1782776138808858600,0.235858642578125,0.01771509274840355,0.14294247329235077,0.3176499307155609
1782776138818857700,0.245857666015625,0.04092797264456749,0.16065755486488342,0.32070425152778625
1782776138828846800,0.255846923828125,0.060475658625364304,0.17531833052635193,0.31154128909111023
1782776138838880000,0.2658798828125,0.07635815441608429,0.14905111491680145,0.2877175211906433
1782776138848835800,0.2758359375,0.0910189226269722,0.09224065393209457,0.24373523890972137
1782776138858869000,0.285868896484375,0.10812314599752426,0.03787364438176155,0.1966986060142517
1782776138868855600,0.29585546875,0.12400564551353455,0.0012217304902151227,0.15332718193531036
1782776138878858200,0.305858154296875,0.13927727937698364,-0.01771509274840355,0.11239920556545258
1782776138888844300,0.31584423828125,0.15332718193531036,-0.016493361443281174,0.08491026610136032
1782776138898878000,0.3258779296875,0.16432274878025055,0.00733038317412138,0.08246681094169617
1782776138908833300,0.335833251953125,0.1716531366109848,0.04764748737215996,0.09529497474431992
1782776138918865200,0.345865234375,0.18020524084568024,0.08491026610136032,0.11423180252313614
1782776138928853200,0.355853271484375,0.19058994948863983,0.11789698898792267,0.1417207419872284
1782776138938856400,0.3658564453125,0.19486601650714874,0.14355333149433136,0.16982053220272064
1782776138948842500,0.375842529296875,0.18936823308467865,0.1563815027475357,0.1875356286764145
1782776138958876200,0.385876220703125,0.1722639948129654,0.16065755486488342,0.19364428520202637
1782776138968831500,0.39583154296875,0.1508837193250656,0.16065755486488342,0.1918116807937622
1782776138978864600,0.40586474609375,0.1411098688840866,0.16310101747512817,0.19425514340400696
1782776138988851200,0.415851318359375,0.1459967941045761,0.16554448008537292,0.1966986060142517
1782776138998853600,0.425853515625,0.1667662113904953,0.19364428520202637,0.21074850857257843
1782776139008840000,0.43583984375,0.19792033731937408,0.23090706765651703,0.22663100063800812
1782776139018873300,0.445873291015625,0.2278527319431305,0.2528982162475586,0.2431243658065796
1782776139028859400,0.455859375,0.25106561183929443,0.26022860407829285,0.26083946228027344
1782776139038862300,0.4658623046875,0.26083946228027344,0.25045475363731384,0.2828305959701538
1782776139048848600,0.4758486328125,0.2590068578720093,0.24129177629947662,0.30604347586631775
1782776139058881500,0.485881591796875,0.2577851414680481,0.24434609711170197,0.3225368559360504
1782776139068837600,0.495837646484375,0.2528982162475586,0.24495697021484375,0.3182607889175415
1782776139078870800,0.505870849609375,0.22846360504627228,0.2370157092809677,0.27977627515792847
1782776139088857000,0.515857177734375,0.15882496535778046,0.242513507604599,0.16982053220272064
1782776139098859800,0.52585986328125,0.11545353382825851,0.2742784917354584,0.09468411654233932
1782776139108846000,0.53584619140625,0.1014036312699318,0.30054569244384766,0.042760565876960754
1782776139118846200,0.54584619140625,0.10934487730264664,0.29565876722335815,0.012217304669320583
1782776139128926500,0.555926513671875,0.11728613078594208,0.26450464129447937,-0.0024434609804302454
1782776139138866200,0.5658662109375,0.12522737681865692,0.2773328125476837,0.004886921960860491
1782776139148854500,0.5758544921875,0.14416420459747314,0.33597588539123535,0.02015855349600315
1782776139158824400,0.585824462890625,0.1722639948129654,0.41722095012664795,0.036651913076639175
1782776139168904700,0.59590478515625,0.19975294172763824,0.5564982295036316,0.05742133408784866
1782776139178877000,0.605876953125,0.2370157092809677,0.7354817390441895,0.06414084881544113
1782776139188832800,0.615832763671875,0.29626965522766113,0.7648032903671265,0.05742133408784866
1782776139198866000,0.625865966796875,0.32009339332580566,0.5705481171607971,0.025656340643763542
1782776139208852200,0.635852294921875,0.28955012559890747,0.22540926933288574,-0.07147123664617538
1782776139218855200,0.645855224609375,0.2125810980796814,-0.19486601650714874,-0.2883284091949463
1782776139228841200,0.65584130859375,0.09468411654233932,-0.5314527750015259,-0.578489363193512
1782776139238903600,0.665903564453125,-0.016493361443281174,-0.617584764957428,-0.8344419002532959
1782776139248830200,0.675830322265625,-0.07880161702632904,-0.4282165467739105,-0.9755517840385437
1782776139258861300,0.685861328125,-0.07208210229873657,-0.10018189996480942,-0.9578366875648499
1782776139268849700,0.695849609375,-0.01710422709584236,0.28466320037841797,-0.8020660877227783
1782776139278880800,0.705880859375,0.06536258012056351,0.6053674817085266,-0.5479460954666138
1782776139288839000,0.7158388671875,0.14355333149433136,0.7629706859588623,-0.25534167885780334
1782776139298870000,0.7258701171875,0.17104226350784302,0.7764097452163696,0.0012217304902151227
1782776139308858600,0.735858642578125,0.17776179313659668,0.7293730974197388,0.1966986060142517
1782776139318859000,0.74585888671875,0.1875356286764145,0.6878342628479004,0.31642818450927734
1782776139328847000,0.75584716796875,0.19914206862449646,0.6401867866516113,0.34758231043815613
1782776139338878000,0.7658779296875,0.21319197118282318,0.5650503635406494,0.31093040108680725
1782776139348836400,0.77583642578125,0.23640485107898712,0.45753806829452515,0.22357667982578278
1782776139358867000,0.785866943359375,0.2816088795661926,0.30604347586631775,0.11728613078594208
1782776139368855800,0.795855712890625,0.3390302062034607,0.11667526513338089,0.015882495790719986
1782776139378856200,0.805856201171875,0.39217549562454224,-0.039706241339445114,-0.06291911751031876
1782776139388845000,0.815844970703125,0.44165557622909546,-0.11178833991289139,-0.0959058403968811
1782776139398876400,0.82587646484375,0.47708576917648315,-0.11911872029304504,-0.09529497474431992
1782776139408833800,0.835833740234375,0.47830748558044434,-0.09773843735456467,-0.08368854224681854
1782776139418865200,0.845865234375,0.4404338300228119,-0.07819075137376785,-0.08124507963657379
1782776139428853200,0.855853271484375,0.3781255781650543,-0.09773843735456467,-0.10384709388017654
1782776139438854100,0.865854248046875,0.29138273000717163,-0.17409659922122955,-0.15393804013729095
1782776139448842200,0.87584228515625,0.19058994948863983,-0.28527405858039856,-0.23396138846874237
1782776139458842600,0.885842529296875,0.1014036312699318,-0.3878994286060333,-0.3378084897994995
1782776139468883000,0.895883056640625,0.039095375686883926,-0.4300491213798523,-0.43127086758613586
1782776139478923800,0.905923828125,0.0024434609804302454,-0.375071257352829,-0.46181413531303406
1782776139488851000,0.915850830078125,-0.01038470957428217,-0.24678955972194672,-0.41722095012664795
1782776139498851300,0.925851318359375,0.007941247895359993,-0.10201449692249298,-0.2987131178379059
1782776139508840000,0.93583984375,0.07024950534105301,0.10201449692249298,-0.08368854224681854
1782776139518871300,0.945871337890625,0.12278391420841217,0.16554448008537292,0.027488935738801956
1782776139528859400,0.955859375,0.16249015927314758,0.16920967400074005,0.0959058403968811
1782776139538860000,0.965860107421875,0.1716531366109848,0.13561208546161652,0.1111774742603302
1782776139548848600,0.9758486328125,0.15332718193531036,0.0708603709936142,0.07819075137376785
1782776139558880000,0.9858798828125,0.12828169763088226,0.021380282938480377,0.02626720629632473
1782776139568797400,0.99579736328125,0.10873401165008545,-0.0012217304902151227,-0.01160643994808197
1782776139578899000,1.00589892578125,0.08796459436416626,0.02321287989616394,0.0006108652451075613
1782776139588550700,1.015550537109375,0.0555887371301651,0.11362093687057495,0.06536258012056351
1782776139598857200,1.025857177734375,0,0.22113321721553802,0.19425514340400696
1782776139608907000,1.035906982421875,-0.0659734457731247,0.2431243658065796,0.3787364661693573
1782776139618877200,1.045877197265625,-0.1215621829032898,0.12278391420841217,0.5766568183898926
1782776139628835300,1.05583544921875,-0.18875735998153687,-0.1014036312699318,0.6774495840072632
1782776139638868500,1.065868408203125,-0.23884831368923187,-0.33719760179519653,0.6524040699005127
1782776139648854800,1.075854736328125,-0.2590068578720093,-0.4795292317867279,0.5473352670669556
1782776139658855400,1.08585546875,-0.23396138846874237,-0.5320636034011841,0.43615779280662537
1782776139668843800,1.09584375,-0.20036379992961884,-0.5070181488990784,0.3543018400669098
1782776139678875000,1.105875,-0.18997909128665924,-0.423329621553421,0.3286454975605011
1782776139688832800,1.115832763671875,-0.19058994948863983,-0.36590829491615295,0.3543018400669098
1782776139698864000,1.125864013671875,-0.21135938167572021,-0.3274237811565399,0.4202753007411957
1782776139708852500,1.1358525390625,-0.2822197377681732,-0.35613444447517395,0.4398229718208313
1782776139718852900,1.145852783203125,-0.3732386529445648,-0.4795292317867279,0.4050036668777466
1782776139728841200,1.15584130859375,-0.43249258399009705,-0.6224716901779175,0.38667771220207214
1782776139738872600,1.16587255859375,-0.45753806829452515,-0.7244861721992493,0.4434881806373596
1782776139748830200,1.175830322265625,-0.45814892649650574,-0.7293730974197388,0.6450737118721008
1782776139758861600,1.185861572265625,-0.48197266459465027,-0.6230825781822205,0.9737191796302795
1782776139768849700,1.195849609375,-0.5571091175079346,-0.4758640229701996,1.348179578781128
1782776139778881000,1.205881103515625,-0.6432411074638367,-0.4196644127368927,1.7055357694625854
1782776139788839000,1.2158388671875,-0.7238753437995911,-0.48380526900291443,1.966986060142517
1782776139798872000,1.2258720703125,-0.8417723178863525,-0.6969972252845764,2.043955087661743
1782776139808858600,1.235858642578125,-0.9101892113685608,-0.9486737251281738,1.9620991945266724
1782776139818859500,1.245859619140625,-0.8570439219474792,-1.141707181930542,1.768454909324646
1782776139828846800,1.255846923828125,-0.6890559792518616,-1.3390166759490967,1.500285029411316
1782776139838879500,1.26587939453125,-0.4703662395477295,-1.380555510520935,1.171028733253479
1782776139848835800,1.2758359375,-0.2718350291252136,-1.2113457918167114,0.8655960559844971
1782776139858869000,1.285868896484375,-0.12522737681865692,-0.9340129494667053,0.608421802520752
1782776139868855600,1.29585546875,-0.04214970022439957,-0.6517932415008545,0.3793473243713379
1782776139878858200,1.305858154296875,-0.009773843921720982,-0.3695734739303589,0.1765400618314743
1782776139888844300,1.31584423828125,0.02932153269648552,-0.0757472887635231,0.01038470957428217
1782776139898877700,1.325877685546875,0.11667526513338089,0.10506882518529892,-0.1612684279680252
1782776139908833300,1.335833251953125,0.2571742534637451,0.03420845419168472,-0.4098905920982361
1782776139918866700,1.34586669921875,0.3604104816913605,-0.3274237811565399,-0.7189884185791016
1782776139928853200,1.355853271484375,0.3286454975605011,-1.1233811378479004,-1.2095131874084473
1782776139938855400,1.36585546875,0.15393804013729095,-1.3939944505691528,-1.4666874408721924
1782776139948842500,1.375842529296875,-0.039095375686883926,-1.4043792486190796,-1.6242907047271729
1782776139958873000,1.385873046875,-0.19853121042251587,-1.2754865884780884,-1.700037956237793
1782776139968831500,1.39583154296875,-0.3182607889175415,-1.0348057746887207,-1.7055357694625854
1782776139978862000,1.405862060546875,-0.394618958234787,-0.675006091594696,-1.6310101747512817
1782776139988851000,1.415850830078125,-0.4434881806373596,-0.28038713335990906,-1.493565559387207
1782776139998851000,1.42585107421875,-0.45875978469848633,0.01710422709584236,-1.3182471990585327
1782776140008840200,1.435840087890625,-0.44104471802711487,0.16065755486488342,-1.1508700847625732
1782776140018871300,1.445871337890625,-0.3903428912162781,0.15027284622192383,-1.0231993198394775
1782776140028859400,1.455859375,-0.3396410644054413,-0.05375614017248154,-0.9431759119033813
1782776140038862300,1.4658623046875,-0.3170390725135803,-0.37262779474258423,-0.8698720932006836
1782776140048848400,1.475848388671875,-0.29077184200286865,-0.6548475623130798,-0.7458664774894714
1782776140058879200,1.485879150390625,-0.24434609711170197,-0.788627028465271,-0.5564982295036316
1782776140068837600,1.495837646484375,-0.23396138846874237,-0.8136724829673767,-0.3341432809829712
1782776140078868000,1.505867919921875,-0.2883284091949463,-0.79840087890625,-0.13439035415649414
1782776140088857000,1.515857177734375,-0.3836233615875244,-0.7470881938934326,-0.00733038317412138
1782776140098857000,1.52585693359375,-0.4990769028663635,-0.6444628238677979,0.03726277872920036
1782776140108846000,1.53584619140625,-0.6139195561408997,-0.4856378734111786,0.007941247895359993
1782776140118877000,1.545876953125,-0.7214318513870239,-0.29565876722335815,-0.0806342139840126
1782776140128835000,1.5558349609375,-0.8203920125961304,-0.12828169763088226,-0.22357667982578278
1782776140138866000,1.565865966796875,-0.8442157506942749,-0.02076941914856434,-0.3891211748123169
1782776140148854500,1.5758544921875,-0.8038986921310425,0.06536258012056351,-0.5180137157440186
1782776140158855000,1.58585498046875,-0.7470881938934326,0.12950342893600464,-0.5833762884140015
1782776140168843800,1.59584375,-0.6817256212234497,0.15393804013729095,-0.5748242139816284
1782776140178874600,1.60587451171875,-0.6255260109901428,0.16554448008537292,-0.4954117238521576
1782776140188833000,1.6158330078125,-0.5791002511978149,0.19914206862449646,-0.33719760179519653
1782776140198863400,1.62586328125,-0.5418374538421631,0.26145032048225403,-0.13316862285137177
1782776140208852500,1.6358525390625,-0.5204572081565857,0.2877175211906433,0.06108652427792549
1782776140218854400,1.6458544921875,-0.5076290369033813,0.2571742534637451,0.21074850857257843
1782776140228841200,1.65584130859375,-0.48808133602142334,0.18509216606616974,0.30970868468284607
1782776140238873900,1.665873779296875,-0.47830748558044434,0.10506882518529892,0.3646865487098694
1782776140248830200,1.675830322265625,-0.4996877610683441,0.02687807008624077,0.375071257352829
1782776140258862800,1.68586279296875,-0.5424483418464661,-0.01710422709584236,0.34697145223617554
1782776140268850000,1.695849853515625,-0.5943718552589417,-0.05192354694008827,0.29016098380088806
1782776140278882600,1.705882568359375,-0.6505714654922485,-0.09529497474431992,0.19058994948863983
1782776140288839000,1.7158388671875,-0.6884451508522034,-0.1270599663257599,0.05864306539297104
1782776140298871600,1.72587158203125,-0.6994407176971436,-0.11301007121801376,-0.07452555745840073
1782776140308858400,1.7358583984375,-0.6872233748435974,-0.07208210229873657,-0.18631389737129211
1782776140318860500,1.745860595703125,-0.6603453159332275,-0.04581489413976669,-0.25045475363731384
1782776140328847000,1.75584716796875,-0.6322455406188965,0.0012217304902151227,-0.24617868661880493
1782776140338878700,1.765878662109375,-0.6120869517326355,0.06108652427792549,-0.19303341209888458
1782776140348836400,1.77583642578125,-0.5864306092262268,0.10751228034496307,-0.12400564551353455
1782776140358870000,1.7858701171875,-0.5338962078094482,0.12400564551353455,-0.04153883829712868
1782776140368856000,1.79585595703125,-0.49235737323760986,0.13011430203914642,0.0006108652451075613
1782776140378858800,1.805858642578125,-0.4502076804637909,0.15943582355976105,0.03176499158143997
1782776140388845000,1.815844970703125,-0.4129449129104614,0.19853121042251587,0.05314527451992035
1782776140398878200,1.825878173828125,-0.394618958234787,0.2321287989616394,0.06169738993048668
1782776140408833800,1.835833740234375,-0.39584067463874817,0.26022860407829285,0.0757472887635231
1782776140418867200,1.8458671875,-0.4092797040939331,0.2480112910270691,0.07635815441608429
1782776140428853500,1.855853515625,-0.41599923372268677,0.21930062770843506,0.05619960278272629
1782776140438856400,1.8658564453125,-0.3995058834552765,0.1869247704744339,0.02015855349600315
1782776140448842500,1.875842529296875,-0.37079519033432007,0.1466076523065567,-0.02871066704392433
1782776140458875600,1.885875732421875,-0.34147366881370544,0.09529497474431992,-0.07757988572120667
1782776140468831500,1.89583154296875,-0.32498031854629517,0.04764748737215996,-0.0959058403968811
1782776140478865000,1.905864990234375,-0.31642818450927734,0.04214970022439957,-0.08674286305904388
1782776140488851000,1.915850830078125,-0.30482175946235657,0.10262536257505417,-0.06291911751031876
1782776140498853600,1.925853515625,-0.3066543638706207,0.2376265823841095,-0.030543262138962746
1782776140508840000,1.93583984375,-0.3090978264808655,0.36713001132011414,0.01710422709584236
1782776140518871000,1.94587109375,-0.3023782968521118,0.41599923372268677,0.07452555745840073
1782776140528859400,1.955859375,-0.2987131178379059,0.2993239760398865,0.10262536257505417
1782776140538860300,1.9658603515625,-0.27550023794174194,0.015271631069481373,0.08307767659425735
1782776140548848400,1.975848388671875,-0.24129177629947662,-0.2889392673969269,0.012217304669320583
1782776140558879700,1.985879638671875,-0.1973094791173935,-0.4697553813457489,-0.08185594528913498
1782776140568837600,1.995837646484375,-0.1563815027475357,-0.44593164324760437,-0.14294247329235077
1782776140578868700,2.00586865234375,-0.1459967941045761,-0.2828305959701538,-0.1508837193250656
1782776140588857000,2.015857177734375,-0.1722639948129654,-0.06902777403593063,-0.12828169763088226
1782776140598858000,2.02585791015625,-0.20891591906547546,0.1661553531885147,-0.08979719132184982
1782776140608846000,2.03584619140625,-0.23090706765651703,0.38179078698158264,-0.05803219974040985
1782776140618877400,2.04587744140625,-0.2370157092809677,0.5522221922874451,-0.039095375686883926
1782776140628835000,2.0558349609375,-0.2376265823841095,0.6591235995292664,-0.03481931984424591
1782776140638866200,2.0658662109375,-0.23457226157188416,0.6914994716644287,-0.04948008432984352
1782776140648854500,2.0758544921875,-0.2474004179239273,0.6676757335662842,-0.06108652427792549
1782776140658855400,2.08585546875,-0.22663100063800812,0.607810914516449,-0.048258353024721146
1782776140668843800,2.09584375,-0.15577064454555511,0.5393940210342407,-0.01466076634824276
1782776140678874000,2.1058740234375,-0.042760565876960754,0.44226643443107605,0.02321287989616394
1782776140688832800,2.115832763671875,0.0861319974064827,0.3219259977340698,0.056810468435287476
1782776140698863600,2.125863525390625,0.2064724564552307,0.19425514340400696,0.07147123664617538
1782776140708852200,2.135852294921875,0.30970868468284607,0.06719517707824707,0.07147123664617538
1782776140718853000,2.14585302734375,0.3689626157283783,-0.04948008432984352,0.06475171446800232
1782776140728841500,2.155841552734375,0.37140607833862305,-0.17104226350784302,0.04337143152952194
1782776140738874000,2.1658740234375,0.3084869384765625,-0.3176499307155609,-0.016493361443281174
1782776140748830200,2.175830322265625,0.19486601650714874,-0.4764748811721802,-0.1270599663257599
1782776140758860800,2.18586083984375,0.048258353024721146,-0.5729916095733643,-0.2583959996700287
1782776140768849700,2.195849609375,-0.11239920556545258,-0.5412266254425049,-0.37568211555480957
1782776140778881000,2.205881103515625,-0.33047810196876526,-0.31031954288482666,-0.48747047781944275
1782776140788839000,2.2158388671875,-0.4331034719944,-0.11850785464048386,-0.5210680365562439
1782776140798870000,2.2258701171875,-0.48869219422340393,0.08246681094169617,-0.5174028873443604
1782776140808858600,2.235858642578125,-0.4990769028663635,0.22602014243602753,-0.4954117238521576
1782776140818858000,2.24585791015625,-0.48258355259895325,0.30543261766433716,-0.4508185386657715
1782776140828846800,2.255846923828125,-0.4453207552433014,0.35613444447517395,-0.37751471996307373
1782776140838878200,2.265878173828125,-0.4056145250797272,0.3488040566444397,-0.2938261926174164
1782776140848835800,2.2758359375,-0.3781255781650543,0.2840523421764374,-0.19792033731937408
1782776140858867200,2.2858671875,-0.36529740691185,0.2217440903186798,-0.08796459436416626
1782776140868855600,2.29585546875,-0.3701843321323395,0.16065755486488342,0.022602014243602753
1782776140878856000,2.30585595703125,-0.4001167416572571,0.11178833991289139,0.12400564551353455
1782776140888844300,2.31584423828125,-0.42577308416366577,0.06414084881544113,0.19547687470912933
1782776140898875600,2.325875732421875,-0.4489859640598297,0.005497787147760391,0.22663100063800812
1782776140908833300,2.335833251953125,-0.46181413531303406,-0.06658431142568588,0.20586158335208893
1782776140918865400,2.345865478515625,-0.4764748811721802,-0.15027284622192383,0.13866640627384186
1782776140928853200,2.355853271484375,-0.49357911944389343,-0.2168571650981903,0.04398229718208313
1782776140938854400,2.3658544921875,-0.5204572081565857,-0.2669481039047241,-0.060475658625364304
1782776140948842500,2.375842529296875,-0.5577199459075928,-0.31031954288482666,-0.1618792861700058
1782776140958873900,2.385873779296875,-0.5913175344467163,-0.3433062732219696,-0.24923302233219147
1782776140968831500,2.39583154296875,-0.6151412725448608,-0.36590829491615295,-0.3121521472930908
1782776140978862800,2.40586279296875,-0.6395758986473083,-0.394618958234787,-0.3481931984424591
1782776140988851200,2.415851318359375,-0.6609562039375305,-0.42210787534713745,-0.35552358627319336
1782776140998851800,2.425851806640625,-0.6835582256317139,-0.42088615894317627,-0.32559117674827576
1782776141008840000,2.43583984375,-0.7171558141708374,-0.41111230850219727,-0.2675589919090271
1782776141018871600,2.44587158203125,-0.7562511563301086,-0.4092797040939331,-0.20097467303276062
1782776141028859400,2.455859375,-0.7941248416900635,-0.40133845806121826,-0.1368338167667389
1782776141038860300,2.4658603515625,-0.8319984674453735,-0.39095374941825867,-0.09040805697441101
1782776141048848600,2.4758486328125,-0.8717046976089478,-0.40256020426750183,-0.059864792972803116
1782776141058879700,2.485879638671875,-0.9162978529930115,-0.4202753007411957,-0.03298672288656235
1782776141068837600,2.495837646484375,-0.9523389339447021,-0.4544837474822998,0
1782776141078868700,2.50586865234375,-0.9822713136672974,-0.5192354321479797,0.029932396486401558
1782776141088857000,2.515857177734375,-1.0073168277740479,-0.5717698931694031,0.0555887371301651
1782776141098858000,2.52585791015625,-1.0256427526474,-0.627358615398407,0.07330382615327835
1782776141108846000,2.53584619140625,-1.0464121103286743,-0.6811147332191467,0.08185594528913498
1782776141118877700,2.545877685546875,-1.0726794004440308,-0.7354817390441895,0.0861319974064827
1782776141128835000,2.5558349609375,-1.1148290634155273,-0.7843509912490845,0.12034045159816742
1782776141138866000,2.565865966796875,-1.1728612184524536,-0.8613200187683105,0.2223549485206604
1782776141148854800,2.575854736328125,-1.2699888944625854,-0.988990843296051,0.375071257352829
1782776141158855000,2.58585498046875,-1.3939944505691528,-1.1349875926971436,0.5406157374382019
1782776141168843800,2.59584375,-1.5149458646774292,-1.2791517972946167,0.6701191663742065
1782776141178876400,2.60587646484375,-1.6169602870941162,-1.4220943450927734,0.7470881938934326
1782776141188832800,2.615832763671875,-1.7153096199035645,-1.5253305435180664,0.7672467231750488
1782776141198865700,2.62586572265625,-1.8936822414398193,-1.5790866613388062,0.7000515460968018
1782776141208852200,2.635852294921875,-2.004859685897827,-1.577254056930542,0.5736024379730225
1782776141218854400,2.6458544921875,-2.0751092433929443,-1.522887110710144,0.34758231043815613
1782776141228841200,2.65584130859375,-2.1197023391723633,-1.4672982692718506,-0.001832595793530345
1782776141238905900,2.66590576171875,-2.157576084136963,-1.470963478088379,-0.42271876335144043
1782776141248830200,2.675830322265625,-2.183232307434082,-1.5503759384155273,-0.7843509912490845
1782776141258861000,2.685861083984375,-2.266309976577759,-1.7544050216674805,-1.062294602394104
1782776141268849700,2.695849609375,-2.4556782245635986,-1.996307611465454,-1.2137892246246338
1782776141278880300,2.70588037109375,-2.6755897998809814,-2.141082763671875,-1.264491081237793
1782776141288839000,2.7158388671875,-2.8368582725524902,-2.138639211654663,-1.2504411935806274
1782776141298869200,2.725869140625,-2.9126055240631104,-1.9785925149917603,-1.1801916360855103
1782776141308858400,2.7358583984375,-2.914438009262085,-1.7385225296020508,-1.0561859607696533
1782776141318859800,2.74585986328125,-2.8374691009521484,-1.5155566930770874,-0.8936958312988281
1782776141328847000,2.75584716796875,-2.6920831203460693,-1.3292428255081177,-0.7092145681381226
1782776141338879200,2.765879150390625,-2.5082128047943115,-1.2015719413757324,-0.5198463201522827
1782776141348836400,2.77583642578125,-2.3096814155578613,-1.1563678979873657,-0.3396410644054413
1782776141358868200,2.7858681640625,-2.13314151763916,-1.187522053718567,-0.16371189057826996
1782776141368855800,2.795855712890625,-2.0085248947143555,-1.2583824396133423,0.015271631069481373
1782776141378856000,2.80585595703125,-1.9352210760116577,-1.341460108757019,0.1771509200334549
1782776141388845000,2.815844970703125,-1.8906279802322388,-1.4062118530273438,0.30115658044815063
1782776141398875400,2.82587548828125,-1.8643606901168823,-1.454470157623291,0.36224308609962463
1782776141408833800,2.835833740234375,-1.8594738245010376,-1.5112806558609009,0.3530801236629486
1782776141418864400,2.845864501953125,-1.874745488166809,-1.580308437347412,0.2724458873271942
1782776141428853200,2.855853271484375,-1.891238808631897,-1.6340645551681519,0.13439035415649414
1782776141438853600,2.865853515625,-1.9046778678894043,-1.670716404914856,-0.04703662544488907
1782776141448842500,2.875842529296875,-1.9327776432037354,-1.7024813890457153,-0.24984388053417206
1782776141458873000,2.885873046875,-1.9822577238082886,-1.722640037536621,-0.46242499351501465
1782776141468831500,2.89583154296875,-2.0506746768951416,-1.7140878438949585,-0.6664539575576782
1782776141478862000,2.905862060546875,-2.1282544136047363,-1.6646077632904053,-0.8576548099517822
1782776141488851000,2.915850830078125,-2.193617105484009,-1.5815300941467285,-1.0128145217895508
1782776141498851000,2.92585107421875,-2.235766887664795,-1.4856243133544922,-1.1154398918151855
1782776141508840000,2.93583984375,-2.258368730545044,-1.4080443382263184,-1.158811330795288
1782776141518870500,2.94587060546875,-2.252871036529541,-1.3530665636062622,-1.1539244651794434
1782776141528859400,2.955859375,-2.207667112350464,-1.3066407442092896,-1.1099421977996826
1782776141538861000,2.965861083984375,-2.1319196224212646,-1.2773191928863525,-1.037249207496643
1782776141548848600,2.9758486328125,-2.0396790504455566,-1.2779301404953003,-0.9443976879119873
1782776141558879500,2.98587939453125,-1.9504927396774292,-1.301142930984497,-0.8381071090698242
1782776141568837600,2.995837646484375,-1.8808541297912598,-1.3347405195236206,-0.7263187766075134
1782776141578868200,3.0058681640625,-1.8472565412521362,-1.3347405195236206,-0.5943718552589417
1782776141588857000,3.015857177734375,-1.8405369520187378,-1.2852604389190674,-0.45814892649650574
1782776141598857200,3.025857177734375,-1.843591332435608,-1.2467759847640991,-0.34513887763023376
1782776141608846000,3.03584619140625,-1.8399261236190796,-1.2125675678253174,-0.27000242471694946
1782776141618877000,3.045876953125,-1.825876235961914,-1.1673635244369507,-0.22663100063800812
1782776141628835300,3.05583544921875,-1.816102385520935,-1.1270463466644287,-0.23396138846874237
1782776141638866000,3.065865966796875,-1.8154915571212769,-1.076344609260559,-0.24862214922904968
1782776141648854500,3.0758544921875,-1.8234328031539917,-1.0231993198394775,-0.25473082065582275
1782776141658855000,3.08585498046875,-1.8362609148025513,-0.9706648588180542,-0.2474004179239273
1782776141668843800,3.09584375,-1.852143406867981,-0.9193521738052368,-0.23090706765651703
1782776141678874600,3.10587451171875,-1.8735237121582031,-0.8692612648010254,-0.21502456068992615
1782776141688832800,3.115832763671875,-1.9022343158721924,-0.817337691783905,-0.19486601650714874
1782776141698863600,3.125863525390625,-1.9333884716033936,-0.7440338730812073,-0.1661553531885147
1782776141708852500,3.1358525390625,-1.9602665901184082,-0.6792821288108826,-0.14477506279945374
1782776141718852400,3.145852294921875,-1.976759910583496,-0.6517932415008545,-0.13377949595451355
1782776141728841500,3.155841552734375,-1.9773707389831543,-0.6579018831253052,-0.14294247329235077
1782776141738872000,3.1658720703125,-1.9663752317428589,-0.6866125464439392,-0.16920967400074005
1782776141748830200,3.175830322265625,-1.955379605293274,-0.7202101349830627,-0.20586158335208893
1782776141758861000,3.185861083984375,-1.957212209701538,-0.7476990818977356,-0.25534167885780334
1782776141768849700,3.195849609375,-1.976759910583496,-0.7550294399261475,-0.3127630054950714
1782776141778880500,3.205880615234375,-2.0005836486816406,-0.7367035150527954,-0.37629300355911255
1782776141788839000,3.2158388671875,-2.015244483947754,-0.7043276429176331,-0.4386012554168701
1782776141798869500,3.225869384765625,-2.0091357231140137,-0.6615670323371887,-0.4905247986316681
1782776141808858600,3.235858642578125,-1.9926424026489258,-0.6126978397369385,-0.5198463201522827
1782776141818857500,3.245857421875,-1.9792033433914185,-0.5674937963485718,-0.5271766781806946
1782776141828846800,3.255846923828125,-1.966986060142517,-0.5314527750015259,-0.5125159621238708
1782776141838877400,3.26587744140625,-1.9566013813018799,-0.5094616413116455,-0.48380526900291443
1782776141848835800,3.2758359375,-1.9511035680770874,-0.48747047781944275,-0.4343251883983612
1782776141858866700,3.28586669921875,-1.9535470008850098,-0.4544837474822998,-0.3677408695220947
1782776141868855600,3.29585546875,-1.9541579484939575,-0.42271876335144043,-0.2883284091949463
1782776141878855400,3.30585546875,-1.935831904411316,-0.3805690407752991,-0.2076941877603531
1782776141888844300,3.31584423828125,-1.8936822414398193,-0.32498031854629517,-0.1313360333442688
1782776141898875000,3.325875,-1.8380935192108154,-0.27977627515792847,-0.07024950534105301
1782776141908833300,3.335833251953125,-1.7904460430145264,-0.2638937830924988,-0.025045474991202354
1782776141918864600,3.34586474609375,-1.7464637756347656,-0.2736676335334778,-0.0024434609804302454
1782776141928853200,3.355853271484375,-1.7024813890457153,-0.29626965522766113,0.001832595793530345
1782776141938853600,3.365853515625,-1.6615535020828247,-0.31093040108680725,-0.004886921960860491
1782776141948842500,3.375842529296875,-1.635897159576416,-0.32498031854629517,-0.02076941914856434
1782776141958873000,3.385873046875,-1.6218472719192505,-0.33536502718925476,-0.045204028487205505
1782776141968831500,3.39583154296875,-1.6096298694610596,-0.3439171314239502,-0.08429940044879913
1782776141978862000,3.405862060546875,-1.5961909294128418,-0.36529740691185,-0.13500121235847473
1782776141988851000,3.415850830078125,-1.5796974897384644,-0.3952298164367676,-0.19058994948863983
1782776141998851000,3.42585107421875,-1.5540411472320557,-0.41172316670417786,-0.23029619455337524
1782776142008840000,3.43583984375,-1.5247195959091187,-0.40194934606552124,-0.2480112910270691
1782776142018871600,3.44587158203125,-1.4941763877868652,-0.3787364661693573,-0.25045475363731384
1782776142028859400,3.455859375,-1.4428637027740479,-0.34697145223617554,-0.24495697021484375
1782776142038860300,3.4658603515625,-1.338405728340149,-0.3396410644054413,-0.23579397797584534
1782776142048848600,3.4758486328125,-1.263269305229187,-0.37568211555480957,-0.21807889640331268
1782776142058879700,3.485879638671875,-1.205847978591919,-0.39217549562454224,-0.182648703455925
1782776142068837600,3.495837646484375,-1.171028733253479,-0.37140607833862305,-0.13988813757896423
1782776142078869000,3.505868896484375,-1.1465940475463867,-0.2926044464111328,-0.09529497474431992
1782776142088857000,3.515857177734375,-1.130711555480957,-0.15882496535778046,-0.06658431142568588
1782776142098858000,3.52585791015625,-1.1160508394241333,-0.010995574295520782,-0.06291911751031876
1782776142108846300,3.535846435546875,-1.0965031385421753,0.07880161702632904,-0.1014036312699318
1782776142118879500,3.54587939453125,-1.0500773191452026,0.08002334833145142,-0.1875356286764145
1782776142128835300,3.55583544921875,-0.9645562171936035,-0.012828170321881771,-0.31642818450927734
1782776142138866700,3.56586669921875,-0.8509352803230286,-0.19120082259178162,-0.44287729263305664
1782776142148854500,3.5758544921875,-0.7458664774894714,-0.3530801236629486,-0.5161811113357544
1782776142158855700,3.585855712890625,-0.6743952035903931,-0.4349360466003418,-0.5106833577156067
1782776142168843800,3.59584375,-0.6261368989944458,-0.4129449129104614,-0.43615779280662537
1782776142178875000,3.605875,-0.617584764957428,-0.2474004179239273,-0.30604347586631775
1782776142188832800,3.615832763671875,-0.6359107494354248,0.02382374368607998,-0.15760323405265808
1782776142198864100,3.625864013671875,-0.6517932415008545,0.30604347586631775,-0.0354301854968071
1782776142208852200,3.635852294921875,-0.6200281977653503,0.5076290369033813,0.04398229718208313
1782776142218852400,3.645852294921875,-0.5491678714752197,0.5931501388549805,0.09285151958465576
1782776142228841200,3.65584130859375,-0.4599815309047699,0.5827654600143433,0.12339477986097336
1782776142238871800,3.665871826171875,-0.36590829491615295,0.5064072608947754,0.1368338167667389
1782776142248830200,3.675830322265625,-0.29077184200286865,0.41111230850219727,0.1160643994808197
1782776142258862800,3.68586279296875,-0.2541199326515198,0.3121521472930908,0.039095375686883926
1782776142268850000,3.695849853515625,-0.2168571650981903,0.2021963894367218,-0.07391469180583954
1782776142278882600,3.705882568359375,-0.19120082259178162,0.0910189226269722,-0.2119702398777008
1782776142288839000,3.7158388671875,-0.18509216606616974,-0.039706241339445114,-0.3378084897994995
1782776142298870000,3.7258701171875,-0.19547687470912933,-0.1508837193250656,-0.39645153284072876
1782776142308858400,3.7358583984375,-0.2174680233001709,-0.20830504596233368,-0.40256020426750183
1782776142318859000,3.74585888671875,-0.2638937830924988,-0.27977627515792847,-0.3738495409488678
1782776142328847000,3.75584716796875,-0.3341432809829712,-0.3903428912162781,-0.33108896017074585
1782776142338878700,3.765878662109375,-0.4306600093841553,-0.5198463201522827,-0.3084869384765625
1782776142348836400,3.77583642578125,-0.5155702829360962,-0.6304129362106323,-0.3084869384765625
1782776142358867500,3.785867431640625,-0.5681046843528748,-0.6695083379745483,-0.33536502718925476
1782776142368855800,3.795855712890625,-0.5907067060470581,-0.6243042945861816,-0.38728857040405273
1782776142378856400,3.8058564453125,-0.6029239892959595,-0.49846604466438293,-0.45631635189056396
1782776142388845000,3.815844970703125,-0.6047565937042236,-0.3188716471195221,-0.5253441333770752
1782776142398876400,3.82587646484375,-0.5839871764183044,-0.12278391420841217,-0.5778785347938538
1782776142408833800,3.835833740234375,-0.5418374538421631,0.018325956538319588,-0.6047565937042236
1782776142418865200,3.845865234375,-0.4905247986316681,0.07452555745840073,-0.5937610268592834
1782776142428853500,3.855853515625,-0.42638394236564636,0.06719517707824707,-0.5094616413116455
1782776142438854000,3.86585400390625,-0.36651915311813354,0.08124507963657379,-0.3335324227809906
1782776142448842500,3.875842529296875,-0.3335324227809906,0.12278391420841217,-0.11362093687057495
1782776142458873900,3.885873779296875,-0.3433062732219696,0.09773843735456467,0.18570303916931152
1782776142468831500,3.89583154296875,-0.36529740691185,0.024434609338641167,0.30482175946235657
1782776142478862800,3.90586279296875,-0.36590829491615295,-0.08491026610136032,0.3433062732219696
1782776142488851000,3.915850830078125,-0.34636059403419495,-0.17104226350784302,0.31581732630729675
1782776142498851800,3.925851806640625,-0.33047810196876526,-0.20891591906547546,0.242513507604599
1782776142508840000,3.93583984375,-0.31031954288482666,-0.19058994948863983,0.16065755486488342
1782776142518871600,3.94587158203125,-0.2932153046131134,-0.14782938361167908,0.08857546001672745
1782776142528859400,3.955859375,-0.2974913716316223,-0.14905111491680145,0.027488935738801956
1782776142538860300,3.9658603515625,-0.31581732630729675,-0.1875356286764145,-0.004886921960860491
1782776142548848400,3.975848388671875,-0.3378084897994995,-0.20586158335208893,0.007941247895359993
1782776142558880000,3.9858798828125,-0.37690386176109314,-0.21624629199504852,0.04581489413976669
1782776142568837600,3.995837646484375,-0.42149701714515686,-0.2376265823841095,0.08368854224681854
1782776142578869000,4.005868896484375,-0.45753806829452515,-0.24434609711170197,0.11545353382825851
1782776142588857000,4.015857177734375,-0.48319441080093384,-0.2535090744495392,0.12400564551353455
1782776142598858000,4.02585791015625,-0.484416127204895,-0.2730567753314972,0.10690141469240189
1782776142608846300,4.035846435546875,-0.47342056035995483,-0.30115658044815063,0.06169738993048668
1782776142618877400,4.04587744140625,-0.46181413531303406,-0.323147714138031,0.00733038317412138
1782776142628835000,4.0558349609375,-0.4605923891067505,-0.32131510972976685,-0.039706241339445114
1782776142638866400,4.065866455078125,-0.4709770977497101,-0.32070425152778625,-0.06414084881544113
1782776142648854500,4.0758544921875,-0.4856378734111786,-0.3194825351238251,-0.06291911751031876
1782776142658855400,4.08585546875,-0.504574716091156,-0.32498031854629517,-0.048258353024721146
1782776142668843800,4.09584375,-0.5204572081565857,-0.34574973583221436,-0.02321287989616394
1782776142678875000,4.105875,-0.5247332453727722,-0.36224308609962463,0.005497787147760391
1782776142688832800,4.115832763671875,-0.5241223573684692,-0.384845107793808,0.028099801391363144
1782776142698864000,4.125864013671875,-0.5076290369033813,-0.41599923372268677,0.042760565876960754
1782776142708852500,4.1358525390625,-0.48380526900291443,-0.45326200127601624,0.05497787147760391
1782776142718853000,4.14585302734375,-0.4599815309047699,-0.5143485069274902,0.05497787147760391
1782776142728841200,4.15584130859375,-0.44287729263305664,-0.5907067060470581,0.04703662544488907
1782776142738872300,4.165872314453125,-0.43249258399009705,-0.6633996367454529,0.04214970022439957
1782776142748830200,4.175830322265625,-0.4294382631778717,-0.7110471725463867,0.054367005825042725
1782776142758861600,4.185861572265625,-0.4404338300228119,-0.7434229850769043,0.07696902006864548
1782776142768849700,4.195849609375,-0.46853363513946533,-0.7629706859588623,0.08735372871160507
1782776142778881000,4.205881103515625,-0.4911356568336487,-0.7861835956573486,0.07452555745840073
1782776142788839000,4.2158388671875,-0.49296826124191284,-0.8014551997184753,0.03420845419168472
1782776142798870000,4.2258701171875,-0.47219884395599365,-0.8148942589759827,-0.015271631069481373
1782776142808858600,4.235858642578125,-0.4434881806373596,-0.8662069439888,-0.05803219974040985
1782776142818858000,4.24585791015625,-0.42760565876960754,-0.9468411207199097,-0.08552113175392151
1782776142828846800,4.255846923828125,-0.4190535545349121,-1.0238101482391357,-0.10445795953273773
1782776142838878000,4.2658779296875,-0.41599923372268677,-1.0323622226715088,-0.10506882518529892
1782776142848835800,4.2758359375,-0.4129449129104614,-0.9162978529930115,-0.10323622822761536
1782776142858867000,4.285866943359375,-0.3805690407752991,-0.7147123217582703,-0.10690141469240189
1782776142868855300,4.295855224609375,-0.32559117674827576,-0.5742133259773254,-0.13988813757896423
1782776142878856000,4.30585595703125,-0.28527405858039856,-0.66584312915802,-0.28466320037841797
1782776142888844300,4.31584423828125,-0.3170390725135803,-0.8600982427597046,-0.40622538328170776
1782776142898875000,4.325875,-0.3995058834552765,-1.0323622226715088,-0.48869219422340393
1782776142908833500,4.33583349609375,-0.513737678527832,-1.0952813625335693,-0.5247332453727722
1782776142918864400,4.345864501953125,-0.6279694437980652,-1.0256427526474,-0.5174028873443604
1782776142928853200,4.355853271484375,-0.7141014933586121,-0.8460483551025391,-0.4697553813457489
1782776142938854100,4.365854248046875,-0.7489207983016968,-0.5998696684837341,-0.3903428912162781
1782776142948842500,4.375842529296875,-0.7348709106445312,-0.34513887763023376,-0.29504790902137756
1782776142958873900,4.385873779296875,-0.6914994716644287,-0.14294247329235077,-0.2070833146572113
1782776142968831500,4.39583154296875,-0.6285803318023682,-0.00366519158706069,-0.12095131725072861
1782776142978862600,4.405862548828125,-0.5564982295036316,0.10567969083786011,-0.03298672288656235
1782776142988851200,4.415851318359375,-0.48869219422340393,0.18081611394882202,0.05192354694008827
1782776142998852000,4.42585205078125,-0.4343251883983612,0.2217440903186798,0.1215621829032898
1782776143008840000,4.43583984375,-0.3842342495918274,0.22602014243602753,0.18387043476104736
1782776143018871300,4.445871337890625,-0.34086281061172485,0.16737708449363708,0.23090706765651703
1782776143028859400,4.455859375,-0.304210901260376,0.03420845419168472,0.2541199326515198
1782776143038860300,4.4658603515625,-0.2626720666885376,-0.1411098688840866,0.26145032048225403
1782776143048848600,4.4758486328125,-0.21563543379306793,-0.3023782968521118,0.26145032048225403
1782776143058879700,4.485879638671875,-0.16859880089759827,-0.41233405470848083,0.2474004179239273
1782776143068837600,4.495837646484375,-0.11972958594560623,-0.4715879559516907,0.21807889640331268
1782776143078868200,4.5058681640625,-0.08674286305904388,-0.4990769028663635,0.16982053220272064
1782776143088857000,4.515857177734375,-0.08246681094169617,-0.504574716091156,0.09651670604944229
1782776143098857000,4.52585693359375,-0.09651670604944229,-0.5051855444908142,0.007941247895359993
1782776143108846300,4.535846435546875,-0.14355333149433136,-0.48197266459465027,-0.09285151958465576
1782776143118876700,4.545876708984375,-0.22602014243602753,-0.43676865100860596,-0.19975294172763824
1782776143128835000,4.5558349609375,-0.33536502718925476,-0.3591887652873993,-0.3029891550540924
1782776143138865700,4.56586572265625,-0.43799036741256714,-0.2431243658065796,-0.3878994286060333
1782776143148854800,4.575854736328125,-0.4960225820541382,-0.09285151958465576,-0.4337143301963806
1782776143158855400,4.58585546875,-0.503963828086853,0.054367005825042725,-0.4404338300228119
1782776143168843800,4.59584375,-0.4605923891067505,0.16859880089759827,-0.4056145250797272
1782776143178875100,4.605875244140625,-0.3787364661693573,0.24190263450145721,-0.3274237811565399
1782776143188832800,4.615832763671875,-0.2822197377681732,0.2681698501110077,-0.21563543379306793
1782776143198864100,4.625864013671875,-0.17776179313659668,0.23884831368923187,-0.09712757170200348
1782776143208852500,4.6358525390625,-0.08002334833145142,0.1661553531885147,0.015882495790719986
1782776143218852900,4.645852783203125,-0.01038470957428217,0.08857546001672745,0.1014036312699318
1782776143228841200,4.65584130859375,0.022602014243602753,0.03237585723400116,0.1508837193250656
1782776143238904000,4.665904052734375,0.024434609338641167,0.009162978269159794,0.15821409225463867
1782776143248830200,4.675830322265625,-0.001832595793530345,0.00427605677396059,0.11911872029304504
1782776143258862600,4.685862548828125,-0.04337143152952194,-0.0012217304902151227,0.04886921867728233
1782776143268849700,4.695849609375,-0.08857546001672745,-0.018936822190880775,-0.045204028487205505
1782776143278882600,4.705882568359375,-0.1264491081237793,-0.04642575979232788,-0.1411098688840866
1782776143288839000,4.7158388671875,-0.15393804013729095,-0.06536258012056351,-0.2119702398777008
1782776143298869200,4.725869140625,-0.18936823308467865,-0.054367005825042725,-0.2583959996700287
1782776143308858400,4.7358583984375,-0.20036379992961884,-0.039095375686883926,-0.26022860407829285
1782776143318859000,4.74585888671875,-0.1973094791173935,0.010995574295520782,-0.23273965716362
1782776143328847400,4.755847412109375,-0.18325957655906677,0.08491026610136032,-0.17470745742321014
1782776143338878500,4.76587841796875,-0.15760323405265808,0.15393804013729095,-0.08491026610136032
1782776143348836400,4.77583642578125,-0.13500121235847473,0.21135938167572021,0.02015855349600315
1782776143358867700,4.78586767578125,-0.12034045159816742,0.24617868661880493,0.11301007121801376
1782776143368855800,4.795855712890625,-0.1111774742603302,0.24495697021484375,0.1771509200334549
1782776143378856400,4.8058564453125,-0.11728613078594208,0.21502456068992615,0.23335053026676178
1782776143388845000,4.815844970703125,-0.12400564551353455,0.1569923609495163,0.2791654169559479
1782776143398878200,4.825878173828125,-0.12095131725072861,0.08307767659425735,0.30543261766433716
1782776143408833800,4.835833740234375,-0.11484266817569733,0.005497787147760391,0.29626965522766113
1782776143418866700,4.84586669921875,-0.1264491081237793,-0.048258353024721146,0.2724458873271942
1782776143428853200,4.855853271484375,-0.1466076523065567,-0.060475658625364304,0.22113321721553802
1782776143438854000,4.86585400390625,-0.15943582355976105,-0.039095375686883926,0.13072516024112701
1782776143448842500,4.875842529296875,-0.14294247329235077,0.004886921960860491,0.04214970022439957
1782776143458873600,4.88587353515625,-0.0959058403968811,0.10384709388017654,0.00733038317412138
1782776143468831500,4.89583154296875,-0.027488935738801956,0.23396138846874237,0.01038470957428217
1782776143478862600,4.905862548828125,0.039706241339445114,0.3237585723400116,0.03176499158143997
1782776143488851000,4.915850830078125,0.08979719132184982,0.3597996234893799,0.039095375686883926
1782776143498851300,4.925851318359375,0.13561208546161652,0.3677408695220947,0.024434609338641167
1782776143508840200,4.935840087890625,0.18997909128665924,0.36651915311813354,0.0024434609804302454
1782776143518871000,4.94587109375,0.23945917189121246,0.3787364661693573,-0.02626720629632473
1782776143528859600,4.955859619140625,0.2724458873271942,0.43188172578811646,-0.05742133408784866
1782776143538860000,4.965860107421875,0.29016098380088806,0.5577199459075928,-0.08857546001672745
1782776143548848600,4.9758486328125,0.3090978264808655,0.6737843751907349,-0.12217304855585098
1782776143558879700,4.985879638671875,0.3549126982688904,0.6059783101081848,-0.17104226350784302
1782776143568837600,4.995837646484375,0.3903428912162781,0.3695734739303589,-0.2528982162475586
1782776143578869000,5.005868896484375,0.4129449129104614,0.07757988572120667,-0.35735616087913513
1782776143588857000,5.015857177734375,0.4386012554168701,-0.21135938167572021,-0.4141666293144226
1782776143598858000,5.02585791015625,0.4508185386657715,-0.4129449129104614,-0.3995058834552765
1782776143608846000,5.03584619140625,0.41722095012664795,-0.4899139404296875,-0.3500257730484009
1782776143618877200,5.045877197265625,0.3683517575263977,-0.4141666293144226,-0.2889392673969269
1782776143628835300,5.05583544921875,0.34086281061172485,-0.18936823308467865,-0.22296582162380219
1782776143638866200,5.0658662109375,0.33108896017074585,0.13561208546161652,-0.1612684279680252
1782776143648854500,5.0758544921875,0.3433062732219696,0.4862487316131592,-0.11301007121801376
1782776143658855400,5.08585546875,0.3787364661693573,0.799011766910553,-0.07147123664617538
1782776143668843800,5.09584375,0.4178318381309509,1.0280861854553223,-0.03848451003432274
1782776143678875000,5.105875,0.4648684561252594,1.1649199724197388,-0.01038470957428217
1782776143688832800,5.115832763671875,0.5296201705932617,1.2040153741836548,0.013439035043120384
1782776143698863900,5.12586376953125,0.5992587804794312,1.1380419731140137,0.02687807008624077
1782776143708852500,5.1358525390625,0.6701191663742065,0.988379955291748,0.029932396486401558
1782776143718852900,5.145852783203125,0.7299839854240417,0.6670648455619812,0.02871066704392433
1782776143728841200,5.15584130859375,0.7556403279304504,0.40744712948799133,-0.012217304669320583
1782776143738872600,5.16587255859375,0.7544185519218445,0.17348572611808777,-0.039706241339445114
1782776143748830200,5.175830322265625,0.7483099102973938,-0.014049900695681572,-0.08002334833145142
1782776143758861600,5.185861572265625,0.7489207983016968,-0.14844025671482086,-0.13744467496871948
1782776143768809500,5.1958095703125,0.7562511563301086,-0.2480112910270691,-0.21563543379306793
1782776143778941400,5.20594140625,0.7715228199958801,-0.3127630054950714,-0.303600013256073
1782776143789968400,5.216968505859375,0.7861835956573486,-0.35735616087913513,-0.3885102868080139
1782776143808858400,5.2358583984375,0.750142514705658,-0.423329621553421,-0.4856378734111786
1782776143818858200,5.245858154296875,0.7159340381622314,-0.4129449129104614,-0.4550946056842804
1782776143828846800,5.255846923828125,0.675006091594696,-0.34513887763023376,-0.37079519033432007
1782776143838908700,5.26590869140625,0.6224716901779175,-0.25045475363731384,-0.24068090319633484
1782776143848835800,5.2758359375,0.588263213634491,-0.11362093687057495,-0.09285151958465576
1782776143858867500,5.285867431640625,0.5919284224510193,0.036651913076639175,0.056810468435287476
1782776143868855600,5.29585546875,0.6414085030555725,0.1771509200334549,0.182648703455925
1782776143878856000,5.30585595703125,0.7122688889503479,0.28099802136421204,0.27061331272125244
1782776143888844300,5.31584423828125,0.7586946487426758,0.3378084897994995,0.3188716471195221
1782776143898876000,5.3258759765625,0.7715228199958801,0.34574973583221436,0.3439171314239502
1782776143908833300,5.335833251953125,0.7489207983016968,0.32070425152778625,0.35185837745666504
1782776143918865200,5.345865234375,0.7031059265136719,0.2993239760398865,0.34758231043815613
1782776143928853200,5.355853271484375,0.6395758986473083,0.2736676335334778,0.3274237811565399
1782776143938854400,5.3658544921875,0.5644394755363464,0.2174680233001709,0.2816088795661926
1782776143948842500,5.375842529296875,0.5057964324951172,0.14294247329235077,0.21319197118282318
1782776143958873900,5.385873779296875,0.4599815309047699,0.05619960278272629,0.13072516024112701
1782776143968831500,5.39583154296875,0.42088615894317627,-0.031154127791523933,0.04092797264456749
1782776143978862800,5.40586279296875,0.39156460762023926,-0.0806342139840126,-0.03298672288656235
1782776143988851000,5.415850830078125,0.37201693654060364,-0.08002334833145142,-0.0757472887635231
1782776143998851800,5.425851806640625,0.3597996234893799,-0.05864306539297104,-0.07696902006864548
1782776144008840000,5.43583984375,0.3445279896259308,-0.03481931984424591,-0.05375614017248154
1782776144018871600,5.44587158203125,0.3274237811565399,-0.02626720629632473,-0.01771509274840355
1782776144028859600,5.455859619140625,0.31093040108680725,-0.01771509274840355,0.030543262138962746
1782776144038860300,5.4658603515625,0.2834414839744568,-0.009162978269159794,0.07330382615327835
1782776144048848600,5.4758486328125,0.2535090744495392,-0.03848451003432274,0.0959058403968811
1782776144058879700,5.485879638671875,0.23945917189121246,-0.10445795953273773,0.09834930300712585
1782776144068837600,5.495837646484375,0.2321287989616394,-0.16310101747512817,0.08857546001672745
1782776144078869000,5.505868896484375,0.2125810980796814,-0.2021963894367218,0.05925392732024193
1782776144088857000,5.515857177734375,0.1869247704744339,-0.2064724564552307,0.02321287989616394
1782776144098857700,5.525857666015625,0.14844025671482086,-0.18081611394882202,-0.006108652334660292
1782776144108846300,5.535846435546875,0.10567969083786011,-0.152105450630188,-0.019547687843441963
1782776144118877400,5.54587744140625,0.06536258012056351,-0.13377949595451355,-0.007941247895359993
1782776144128835000,5.5558349609375,0.024434609338641167,-0.1417207419872284,0.02382374368607998
1782776144138866400,5.565866455078125,-0.013439035043120384,-0.15821409225463867,0.08246681094169617
1782776144148854500,5.5758544921875,-0.07147123664617538,-0.15515977144241333,0.19303341209888458
1782776144158855400,5.58585546875,-0.10567969083786011,-0.16004669666290283,0.24007004499435425
1782776144168843800,5.59584375,-0.1270599663257599,-0.18387043476104736,0.2535090744495392
1782776144178875000,5.605875,-0.13927727937698364,-0.21563543379306793,0.23151792585849762
1782776144188832800,5.615832763671875,-0.1417207419872284,-0.23457226157188416,0.1875356286764145
1782776144198863000,5.625863037109375,-0.15332718193531036,-0.24678955972194672,0.1313360333442688
1782776144208852200,5.635852294921875,-0.17592918872833252,-0.24129177629947662,0.06780604273080826
1782776144218852900,5.645852783203125,-0.18875735998153687,-0.16982053220272064,0.014049900695681572
1782776144228841500,5.655841552734375,-0.18387043476104736,-0.05742133408784866,-0.014049900695681572
1782776144238872300,5.665872314453125,-0.1563815027475357,-0.03848451003432274,-0.033597588539123535
1782776144248830200,5.675830322265625,-0.1459967941045761,-0.12034045159816742,-0.0708603709936142
1782776144258861000,5.685861083984375,-0.15760323405265808,-0.2376265823841095,-0.12278391420841217
1782776144268850000,5.695849853515625,-0.19120082259178162,-0.35735616087913513,-0.18387043476104736
1782776144278880300,5.70588037109375,-0.2620611786842346,-0.475253164768219,-0.26145032048225403
1782776144288839000,5.7158388671875,-0.37751471996307373,-0.5778785347938538,-0.35674530267715454
1782776144298869200,5.725869140625,-0.484416127204895,-0.6243042945861816,-0.4605923891067505
1782776144308858400,5.7358583984375,-0.5681046843528748,-0.5729916095733643,-0.5424483418464661
1782776144318858200,5.745858154296875,-0.6383541822433472,-0.4447098970413208,-0.5754350423812866
1782776144328847000,5.75584716796875,-0.6957755088806152,-0.2577851414680481,-0.5448917746543884
1782776144338878700,5.765878662109375,-0.7171558141708374,-0.07941248267889023,-0.45204028487205505
1782776144348836400,5.77583642578125,-0.6927211880683899,0.03848451003432274,-0.3139847218990326
1782776144358867500,5.785867431640625,-0.6401867866516113,0.09529497474431992,-0.1569923609495163
1782776144368855800,5.795855712890625,-0.5711590051651001,0.10690141469240189,0
1782776144378856700,5.805856689453125,-0.48808133602142334,0.10751228034496307,0.14538592100143433
1782776144388845000,5.815844970703125,-0.4105014503002167,0.10262536257505417,0.2669481039047241
1782776144398876200,5.825876220703125,-0.3634648323059082,0.07147123664617538,0.3494149148464203
1782776144408834000,5.835833984375,-0.34758231043815613,0.02076941914856434,0.38606682419776917
1782776144418864400,5.845864501953125,-0.34697145223617554,-0.04642575979232788,0.38667771220207214
1782776144428853200,5.855853271484375,-0.34636059403419495,-0.1362229436635971,0.3597996234893799
1782776144438853600,5.865853515625,-0.34147366881370544,-0.2382374405860901,0.3176499307155609
1782776144448842200,5.87584228515625,-0.33475416898727417,-0.33597588539123535,0.2565633952617645
1782776144458873000,5.885873046875,-0.33292156457901,-0.4349360466003418,0.1716531366109848
1782776144468831500,5.89583154296875,-0.3494149148464203,-0.49785518646240234,0.07024950534105301
1782776144478862000,5.905862060546875,-0.3793473243713379,-0.4954117238521576,-0.03787364438176155
1782776144488851200,5.915851318359375,-0.4202753007411957,-0.4306600093841553,-0.1417207419872284
1782776144498851300,5.925851318359375,-0.4593706727027893,-0.3188716471195221,-0.22540926933288574
1782776144508840000,5.93583984375,-0.49785518646240234,-0.192422553896904,-0.28649580478668213
1782776144518870500,5.94587060546875,-0.5119050741195679,-0.06475171446800232,-0.30970868468284607
1782776144528859400,5.955859375,-0.48808133602142334,0.05925392732024193,-0.2828305959701538
1782776144538860300,5.9658603515625,-0.43188172578811646,0.15515977144241333,-0.20952677726745605
1782776144548848400,5.975848388671875,-0.36590829491615295,0.20402899384498596,-0.1160643994808197
1782776144558880000,5.9858798828125,-0.3017674386501312,0.20586158335208893,-0.02687807008624077
1782776144568837600,5.995837646484375,-0.1875356286764145,0.18325957655906677,0.10445795953273773
1782776144578869000,6.005868896484375,-0.09957103431224823,0.16065755486488342,0.18631389737129211
1782776144588857300,6.015857421875,-0.013439035043120384,0.13011430203914642,0.2474004179239273
1782776144598857700,6.025857666015625,0.05619960278272629,0.09651670604944229,0.28038713335990906
1782776144608846300,6.035846435546875,0.08979719132184982,0.04948008432984352,0.28099802136421204
1782776144618876700,6.045876708984375,0.08857546001672745,-0.006108652334660292,0.2577851414680481
1782776144628835300,6.05583544921875,0.060475658625364304,-0.039706241339445114,0.21868975460529327
1782776144638865700,6.06586572265625,0.03298672288656235,-0.04337143152952194,0.16310101747512817
1782776144648854500,6.0758544921875,0.00855211354792118,-0.0354301854968071,0.1014036312699318
1782776144658854400,6.0858544921875,-0.010995574295520782,-0.019547687843441963,0.036651913076639175
1782776144668843800,6.09584375,-0.025045474991202354,-0.00366519158706069,-0.03176499158143997
1782776144678874400,6.105874267578125,-0.0354301854968071,0.0354301854968071,-0.08674286305904388
1782776144688832800,6.115832763671875,-0.05314527451992035,0.09651670604944229,-0.1313360333442688
1782776144698863900,6.12586376953125,-0.06719517707824707,0.1661553531885147,-0.16554448008537292
1782776144708852200,6.135852294921875,-0.07024950534105301,0.23151792585849762,-0.17837265133857727
1782776144718852900,6.145852783203125,-0.05009094998240471,0.294437050819397,-0.1569923609495163
1782776144728841500,6.155841552734375,-0.0024434609804302454,0.34574973583221436,-0.10751228034496307
1782776144738872600,6.16587255859375,0.06658431142568588,0.3799581825733185,-0.03237585723400116
1782776144748830200,6.175830322265625,0.12889257073402405,0.3830125033855438,0.048258353024721146
1782776144758861600,6.185861572265625,0.18631389737129211,0.3640756905078888,0.11239920556545258
1782776144768850000,6.195849853515625,0.23884831368923187,0.35063666105270386,0.16371189057826996
1782776144778881000,6.205881103515625,0.29138273000717163,0.3579670190811157,0.2076941877603531
1782776144788839000,6.2158388671875,0.34574973583221436,0.3787364661693573,0.23029619455337524
1782776144798870000,6.2258701171875,0.4050036668777466,0.40133845806121826,0.24923302233219147
1782776144808858600,6.235858642578125,0.43615779280662537,0.4141666293144226,0.27977627515792847
1782776144818858000,6.24585791015625,0.45753806829452515,0.4447098970413208,0.33597588539123535
1782776144828846800,6.255846923828125,0.49357911944389343,0.4709770977497101,0.4031710624694824
1782776144838878200,6.265878173828125,0.5393940210342407,0.4807509481906891,0.45265114307403564
1782776144848835800,6.2758359375,0.5858197808265686,0.513126790523529,0.4764748811721802
1782776144858867200,6.2858671875,0.6298020482063293,0.588874101638794,0.4715879559516907
1782776144868855600,6.29585546875,0.6805039048194885,0.7660250067710876,0.45204028487205505
1782776144878856200,6.305856201171875,0.7513642311096191,1.0030407905578613,0.43737950921058655
1782776144888844300,6.31584423828125,0.8454375267028809,1.0598511695861816,0.4502076804637909
1782776144898875000,6.325875,0.9627236127853394,0.9187413454055786,0.43799036741256714
1782776144908833500,6.33583349609375,1.0708467960357666,0.6585127115249634,0.3781255781650543
1782776144918865400,6.345865478515625,1.1539244651794434,0.3530801236629486,0.27611109614372253
1782776144928853200,6.355853271484375,1.1820242404937744,0.10384709388017654,0.13500121235847473
1782776144938854400,6.3658544921875,1.1679743528366089,-0.00366519158706069,-0.042760565876960754
1782776144948842500,6.375842529296875,1.131933331489563,0.03481931984424591,-0.19975294172763824
1782776144958873900,6.385873779296875,1.0836749076843262,0.21868975460529327,-0.29016098380088806
1782776144968831500,6.39583154296875,1.0317513942718506,0.4715879559516907,-0.30115658044815063
1782776144978862600,6.405862548828125,0.9993755221366882,0.6994407176971436,-0.24373523890972137
1782776144988851200,6.415851318359375,1.0134254693984985,0.9657779335975647,-0.09773843735456467
1782776144998852400,6.425852294921875,1.0580185651779175,1.0812314748764038,-0.022602014243602753
1782776145008840000,6.43583984375,1.140485405921936,1.1814134120941162,0.02687807008624077
1782776145018870300,6.445870361328125,1.2663236856460571,1.2626584768295288,0.060475658625364304
1782776145028859600,6.455859619140625,1.405600905418396,1.299310326576233,0.08796459436416626
1782776145038859800,6.46585986328125,1.5210545063018799,1.2944234609603882,0.1264491081237793
1782776145048848400,6.475848388671875,1.6010777950286865,1.2528846263885498,0.1716531366109848
1782776145058879200,6.485879150390625,1.6560556888580322,1.1838568449020386,0.2217440903186798
1782776145068837600,6.495837646484375,1.7043139934539795,1.0971139669418335,0.2736676335334778
1782776145078868200,6.5058681640625,1.750128984451294,0.998153805732727,0.3292563557624817
1782776145088857000,6.515857177734375,1.7941112518310547,0.8998045325279236,0.3842342495918274
1782776145098857500,6.525857421875,1.8399261236190796,0.8038986921310425,0.4337143301963806
1782776145108846300,6.535846435546875,1.8674150705337524,0.7122688889503479,0.45692721009254456
1782776145118877400,6.54587744140625,1.8674150705337524,0.6029239892959595,0.4398229718208313
1782776145128835300,6.55583544921875,1.8472565412521362,0.49357911944389343,0.3494149148464203
1782776145138866400,6.565866455078125,1.817324161529541,0.394618958234787,0.19303341209888458
1782776145148854800,6.575854736328125,1.7733417749404907,0.3286454975605011,0.01710422709584236
1782776145158855700,6.585855712890625,1.7116444110870361,0.29993483424186707,-0.13439035415649414
1782776145168843800,6.59584375,1.6371188163757324,0.3084869384765625,-0.2272418737411499
1782776145178875000,6.605875,1.5644259452819824,0.3536909818649292,-0.25106561183929443
1782776145188832800,6.615832763671875,1.5204435586929321,0.42149701714515686,-0.20341812074184418
1782776145198864000,6.62586376953125,1.508837103843689,0.4899139404296875,-0.10873401165008545
1782776145208852200,6.635852294921875,1.521665334701538,0.5607742667198181,0.016493361443281174
1782776145218853600,6.645853515625,1.5454890727996826,0.6585127115249634,0.14294247329235077
1782776145228841500,6.655841552734375,1.5876387357711792,0.7568620443344116,0.23884831368923187
1782776145238901000,6.66590087890625,1.6395623683929443,0.8112290501594543,0.28099802136421204
1782776145248830200,6.675830322265625,1.6725490093231201,0.827722430229187,0.2724458873271942
1782776145258861600,6.685861572265625,1.6774359941482544,0.8381071090698242,0.2382374405860901
1782776145268850000,6.695849853515625,1.653001308441162,0.8442157506942749,0.19364428520202637
1782776145278881300,6.70588134765625,1.6035212278366089,0.8240572214126587,0.1411098688840866
1782776145288839000,6.7158388671875,1.5424346923828125,0.789237916469574,0.0910189226269722
1782776145298870000,6.7258701171875,1.4844025373458862,0.7434229850769043,0.05314527451992035
1782776145308858600,6.735858642578125,1.4385876655578613,0.6969972252845764,0.02015855349600315
1782776145318859300,6.745859375,1.4074335098266602,0.6633996367454529,-0.012217304669320583
1782776145328847000,6.75584716796875,1.3842206001281738,0.6597344875335693,-0.04948008432984352
1782776145338847500,6.765847412109375,1.3817771673202515,0.6450737118721008,-0.08796459436416626
1782776145349777400,6.77677734375,1.398881435394287,0.6017022728919983,-0.11301007121801376
1782776145368855800,6.795855712890625,1.387274980545044,0.5546656250953674,-0.09651670604944229
1782776145378825700,6.80582568359375,1.36955988407135,0.5595525503158569,-0.06963863968849182
1782776145389557200,6.81655712890625,1.2919800281524658,0.5406157374382019,0.00733038317412138
1782776145408833800,6.835833740234375,1.2064588069915771,0.5357288122177124,0.182648703455925
1782776145418865200,6.845865234375,1.1917980909347534,0.4899139404296875,0.23335053026676178
1782776145428853200,6.855853271484375,1.1899654865264893,0.4343251883983612,0.24862214922904968
1782776145438854100,6.865854248046875,1.1948524713516235,0.4092797040939331,0.2480112910270691
1782776145448842500,6.875842529296875,1.205847978591919,0.3933972120285034,0.24617868661880493
1782776145458873900,6.885873779296875,1.208902359008789,0.34758231043815613,0.2480112910270691
1782776145468831500,6.89583154296875,1.1899654865264893,0.2919935882091522,0.2681698501110077
1782776145478893000,6.90589306640625,1.151481032371521,0.24190263450145721,0.303600013256073
1782776145488912100,6.915912109375,1.1056660413742065,0.20952677726745605,0.342695415019989
1782776145498790100,6.9257900390625,1.0598511695861816,0.17409659922122955,0.3646865487098694
1782776145510236700,6.937236572265625,1.0103710889816284,0.12034045159816742,0.3543018400669098
1782776145528859600,6.955859619140625,0.9578366875648499,0.05803219974040985,0.2638937830924988
1782776145538860300,6.9658603515625,0.9553932547569275,0.08429940044879913,0.20952677726745605
1782776145548848600,6.9758486328125,0.9529497623443604,0.0910189226269722,0.15515977144241333
1782776145558880000,6.9858798828125,0.9535606503486633,0.003054326167330146,0.10873401165008545
1782776145568797400,6.99579736328125,0.9443976879119873,-0.1508837193250656,0.04764748737215996
1782776145578930000,7.005929931640625,0.9193521738052368,-0.2889392673969269,-0.025045474991202354
1782776145588857000,7.015857177734375,0.8820894360542297,-0.36590829491615295,-0.06902777403593063
1782776145598826800,7.02582666015625,0.8197811841964722,-0.37201693654060364,-0.06963863968849182
1782776145608907300,7.0359072265625,0.7525860071182251,-0.2926044464111328,-0.03176499158143997
1782776145618877700,7.045877685546875,0.7214318513870239,-0.14905111491680145,0.021380282938480377
1782776145628835300,7.05583544921875,0.7336491346359253,0.01466076634824276,0.07147123664617538
1782776145638866400,7.065866455078125,0.778853178024292,0.16432274878025055,0.1007927656173706
1782776145648854500,7.0758544921875,0.8399397134780884,0.2687807083129883,0.11728613078594208
1782776145658855400,7.08585546875,0.9059131741523743,0.3090978264808655,0.14477506279945374
1782776145668843800,7.09584375,0.9676105380058289,0.2889392673969269,0.19058994948863983
1782776145678875000,7.105875,1.0122036933898926,0.24984388053417206,0.2474004179239273
1782776145688792600,7.11579248046875,1.0415252447128296,0.21074850857257843,0.303600013256073
1782776145698925000,7.125925048828125,1.056796908378601,0.15332718193531036,0.34574973583221436
1782776145708852500,7.1358525390625,1.0739010572433472,0.08857546001672745,0.3738495409488678
1782776145718853000,7.14585302734375,1.0983357429504395,0.03848451003432274,0.39217549562454224
1782776145728841200,7.15584130859375,1.1282681226730347,-0.01466076634824276,0.39767327904701233
1782776145738872300,7.165872314453125,1.1563678979873657,-0.0659734457731247,0.3933972120285034
1782776145748830200,7.175830322265625,1.1985175609588623,-0.09651670604944229,0.394008070230484
1782776145758830300,7.185830322265625,1.2553280591964722,-0.1062905490398407,0.41722095012664795
1782776145768910800,7.195910888671875,1.303586483001709,-0.12278391420841217,0.47708576917648315
1782776145778881000,7.205881103515625,1.3439035415649414,-0.10751228034496307,0.5742133259773254
1782776145789919700,7.216919677734375,1.3811663389205933,-0.11423180252313614,0.7544185519218445
1782776145808858600,7.235858642578125,1.4062118530273438,-0.12950342893600464,0.9676105380058289
1782776145818858000,7.24585791015625,1.4679092168807983,-0.13316862285137177,1.1191051006317139
1782776145828846600,7.2558466796875,1.566258430480957,-0.16798794269561768,1.3530665636062622
1782776145838878200,7.265878173828125,1.615127682685852,-0.15271630883216858,1.4874569177627563
1782776145848835800,7.2758359375,1.624901533126831,-0.09407325088977814,1.5253305435180664
1782776145858867200,7.2858671875,1.6438384056091309,-0.006108652334660292,1.4654656648635864
1782776145868855600,7.29585546875,1.674992561340332,0.15515977144241333,1.3396275043487549
1782776145878855700,7.305855712890625,1.7482963800430298,0.3390302062034607,1.1264355182647705
1782776145888844300,7.31584423828125,1.834428310394287,0.5198463201522827,0.8704829812049866
1782776145898875000,7.325875,1.860695481300354,0.6713408827781677,0.6243042945861816
1782776145908833300,7.335833251953125,1.813048005104065,0.7452555894851685,0.4202753007411957
1782776145918864400,7.345864501953125,1.7238616943359375,0.7446447610855103,0.2718350291252136
1782776145928853200,7.355853271484375,1.6255123615264893,0.7086036801338196,0.17470745742321014
1782776145938853600,7.365853515625,1.5173892974853516,0.7092145681381226,0.10873401165008545
1782776145948842500,7.375842529296875,1.386053204536438,0.7605272531509399,0.0555887371301651
1782776145958873000,7.385873046875,1.2779301404953003,0.8295549750328064,-0.009162978269159794
1782776145968831500,7.39583154296875,1.207680583000183,0.8741481900215149,-0.10018189996480942
1782776145978862300,7.4058623046875,1.1734721660614014,0.8649851679801941,-0.20402899384498596
1782776145988851000,7.415850830078125,1.1704177856445312,0.8350527882575989,-0.3023782968521118
1782776145998851000,7.42585107421875,1.1869112253189087,0.8112290501594543,-0.37568211555480957
1782776146008840200,7.435840087890625,1.1942415237426758,0.8014551997184753,-0.4294382631778717
1782776146018870500,7.44587060546875,1.1930198669433594,0.808174729347229,-0.475253164768219
1782776146028859600,7.455859619140625,1.1924089193344116,0.846659243106842,-0.5015203952789307
1782776146038859800,7.46585986328125,1.1948524713516235,0.8827002644538879,-0.5002986192703247
1782776146048848600,7.4758486328125,1.1808024644851685,0.8857545852661133,-0.48319441080093384
1782776146058879200,7.485879150390625,1.158811330795288,0.8833111524581909,-0.45265114307403564
1782776146068837600,7.495837646484375,1.13926362991333,0.9187413454055786,-0.39645153284072876
1782776146078868200,7.5058681640625,1.1270463466644287,0.9767735004425049,-0.3170390725135803
1782776146088857000,7.515857177734375,1.1148290634155273,1.034194827079773,-0.20463985204696655
1782776146098857200,7.525857177734375,1.091616153717041,1.1582005023956299,-0.07819075137376785
1782776146108846300,7.535846435546875,1.053742527961731,1.2797627449035645,0.025045474991202354
1782776146118877400,7.54587744140625,1.0183123350143433,1.3451253175735474,0.06841690838336945
1782776146128835000,7.5558349609375,1.0085384845733643,1.3799445629119873,0.07269296050071716
1782776146138866200,7.5658662109375,1.0415252447128296,1.398881435394287,0.0555887371301651
1782776146148854500,7.5758544921875,1.0806206464767456,1.3921618461608887,0.027488935738801956
1782776146158855400,7.58585546875,1.1001683473587036,1.4031574726104736,0.02687807008624077
1782776146168843500,7.595843505859375,1.0989465713500977,1.443474531173706,0.0555887371301651
1782776146178875000,7.605875,1.0910053253173828,1.4776830673217773,0.10201449692249298
1782776146188832800,7.615832763671875,1.0958921909332275,1.4917329549789429,0.1466076523065567
1782776146198864000,7.62586376953125,1.1136072874069214,1.4844025373458862,0.1722639948129654
1782776146208852200,7.635852294921875,1.1368201971054077,1.4343116283416748,0.1722639948129654
1782776146218852900,7.645852783203125,1.1447614431381226,1.302364706993103,0.12400564551353455
1782776146228841200,7.65584130859375,1.1343767642974854,1.1368201971054077,0.04948008432984352
1782776146238872600,7.66587255859375,1.1160508394241333,1.017701506614685,-0.021380282938480377
1782776146248830200,7.675830322265625,1.0995573997497559,0.9480628371238708,-0.06902777403593063
1782776146258861600,7.685861572265625,1.064738154411316,0.9865473508834839,-0.06108652427792549
1782776146268850000,7.695849853515625,1.0403034687042236,1.0848966836929321,-0.03481931984424591
1782776146278881500,7.705881591796875,1.054964303970337,1.2455542087554932,0.021380282938480377
1782776146288839000,7.7158388671875,1.1032226085662842,1.431868076324463,0.09285151958465576
1782776146298870500,7.72587060546875,1.168585181236267,1.5723671913146973,0.14844025671482086
1782776146308858400,7.7358583984375,1.2522737979888916,1.6413949728012085,0.18020524084568024
1782776146318859500,7.745859619140625,1.3426817655563354,1.665218710899353,0.1875356286764145
1782776146328847000,7.75584716796875,1.4404202699661255,1.6499470472335815,0.16982053220272064
1782776146338878000,7.7658779296875,1.5320500135421753,1.6340645551681519,0.14233160018920898
1782776146348836400,7.77583642578125,1.6059647798538208,1.6145168542861938,0.10262536257505417
1782776146358867000,7.785866943359375,1.6615535020828247,1.5656476020812988,0.039706241339445114
1782776146368855800,7.795855712890625,1.701259732246399,1.480737328529358,-0.04581489413976669
1782776146378856200,7.805856201171875,1.7275269031524658,1.3561208248138428,-0.1417207419872284
1782776146388844800,7.8158447265625,1.7104226350784302,1.1624765396118164,-0.25045475363731384
1782776146398876200,7.825876220703125,1.6487252712249756,0.9010262489318848,-0.3628539443016052
1782776146408833800,7.835833740234375,1.5680910348892212,0.5516113042831421,-0.47708576917648315
1782776146418865400,7.845865478515625,1.4892895221710205,0.13377949595451355,-0.5791002511978149
1782776146428853200,7.855853271484375,1.4196507930755615,-0.2681698501110077,-0.6579018831253052
1782776146438854000,7.86585400390625,1.3506230115890503,-0.5717698931694031,-0.7122688889503479
1782776146448842200,7.87584228515625,1.2760975360870361,-0.7049384713172913,-0.7305948138237
1782776146458874000,7.8858740234375,1.207680583000183,-0.6774495840072632,-0.7250970602035522
1782776146468831500,7.89583154296875,1.1582005023956299,-0.4954117238521576,-0.6951646208763123
1782776146478863000,7.905863037109375,1.1301007270812988,-0.2168571650981903,-0.6542366743087769
1782776146488851000,7.915850830078125,1.1496484279632568,0.08307767659425735,-0.6035348773002625
1782776146498852400,7.925852294921875,1.2290608882904053,0.32009339332580566,-0.5546656250953674
1782776146508840200,7.935840087890625,1.348179578781128,0.45753806829452515,-0.513126790523529
1782776146518871800,7.945871826171875,1.4703526496887207,0.5002986192703247,-0.4691445231437683
1782776146528859400,7.955859375,1.5454890727996826,0.4593706727027893,-0.41111230850219727
1782776146538868200,7.9658681640625,1.577254056930542,0.3634648323059082,-0.32986724376678467
1782776146548768500,7.9757685546875,1.5754214525222778,0.26083946228027344,-0.23518311977386475
1782776146558800400,7.98580029296875,1.5613715648651123,0.18570303916931152,-0.14294247329235077
1782776146568757500,7.995757568359375,1.540602207183838,0.15882496535778046,-0.06291911751031876
1782776146578788900,8.005788818359376,1.5143349170684814,0.17837265133857727,-0.00366519158706069
1782776146588777000,8.01577685546875,1.4880677461624146,0.21807889640331268,0.033597588539123535
1782776146598777600,8.025777587890625,1.4697418212890625,0.2632829248905182,0.05375614017248154
1782776146608766200,8.03576611328125,1.454470157623291,0.2932153046131134,0.06230825558304787
1782776146618797300,8.04579736328125,1.4422528743743896,0.29565876722335815,0.054367005825042725
1782776146628755200,8.055755126953125,1.4294246435165405,0.2840523421764374,0.04642575979232788
1782776146638786600,8.06578662109375,1.416596531867981,0.2571742534637451,0.048258353024721146
1782776146648774700,8.075774658203125,1.4123204946517944,0.2125810980796814,0.08002334833145142
1782776146658775600,8.085775634765625,1.4104878902435303,0.18325957655906677,0.13377949595451355
1782776146668763600,8.095763671875,1.4080443382263184,0.17959438264369965,0.21868975460529327
1782776146678795000,8.105794921875,1.3799445629119873,0.2125810980796814,0.24556782841682434
1782776146688752600,8.115752685546875,1.3548991680145264,0.25961771607398987,0.24556782841682434
1782776146698784000,8.125783935546876,1.3329079151153564,0.3023782968521118,0.23335053026676178
1782776146708772000,8.135772216796875,1.2956452369689941,0.3219259977340698,0.21441370248794556
1782776146718773000,8.14577294921875,1.246165156364441,0.30543261766433716,0.19058994948863983
1782776146728761300,8.15576123046875,1.1930198669433594,0.2528982162475586,0.1716531366109848
1782776146738792400,8.16579248046875,1.1478158235549927,0.2070833146572113,0.1618792861700058
1782776146748750300,8.175750244140625,1.1203268766403198,0.17592918872833252,0.1618792861700058
1782776146758781700,8.18578173828125,1.1087204217910767,0.12522737681865692,0.16493362188339233
1782776146768769500,8.19576953125,1.1062769889831543,0.04153883829712868,0.16310101747512817
1782776146778801200,8.20580126953125,1.0946705341339111,-0.060475658625364304,0.15943582355976105
1782776146788758800,8.2157587890625,1.0653489828109741,-0.17776179313659668,0.152105450630188
1782776146798790100,8.2257900390625,1.018923282623291,-0.2822197377681732,0.1459967941045761
1782776146808778500,8.235778564453126,0.9566149711608887,-0.3237585723400116,0.14905111491680145
1782776146818777900,8.24577783203125,0.8881980776786804,-0.303600013256073,0.14966198801994324
1782776146828766700,8.2557666015625,0.8191702961921692,-0.2675589919090271,0.13500121235847473
1782776146838798300,8.26579833984375,0.750142514705658,-0.22968533635139465,0.09834930300712585
1782776146848755700,8.275755615234376,0.6908885836601257,-0.1966986060142517,0.05192354694008827
1782776146858787000,8.285787109375,0.6346889734268188,-0.16004669666290283,0.006719517521560192
1782776146868775200,8.295775146484376,0.5827654600143433,-0.10995574295520782,-0.024434609338641167
1782776146878776000,8.305776123046876,0.5510004758834839,-0.06780604273080826,-0.04398229718208313
1782776146888764200,8.31576416015625,0.53328537940979,-0.027488935738801956,-0.07147123664617538
1782776146898795800,8.325795654296876,0.5271766781806946,0.024434609338641167,-0.11178833991289139
1782776146908753400,8.33575341796875,0.5345070958137512,0.006719517521560192,-0.16798794269561768
1782776146918785000,8.345784912109375,0.5265658497810364,-0.09407325088977814,-0.2474004179239273
1782776146928773400,8.3557734375,0.4899139404296875,-0.24129177629947662,-0.33292156457901
1782776146938774300,8.365774169921876,0.4245513379573822,-0.3781255781650543,-0.39156460762023926
1782776146948762400,8.375762451171875,0.33475416898727417,-0.43676865100860596,-0.41111230850219727
1782776146958793700,8.385793701171876,0.23029619455337524,-0.4147774875164032,-0.39767327904701233
1782776146968751400,8.39575146484375,0.14844025671482086,-0.3323107063770294,-0.3628539443016052
1782776146978782200,8.4057822265625,0.11789698898792267,-0.17837265133857727,-0.3072652220726013
1782776146988771000,8.41577099609375,0.12339477986097336,0.015882495790719986,-0.2376265823841095
1782776146998772000,8.42577197265625,0.17776179313659668,0.1820378452539444,-0.18631389737129211
1782776147008760000,8.435760009765625,0.25534167885780334,0.28588494658470154,-0.16432274878025055
1782776147018791200,8.445791259765626,0.3439171314239502,0.31520646810531616,-0.15027284622192383
1782776147028779500,8.455779541015625,0.42088615894317627,0.28649580478668213,-0.12767083942890167
1782776147038435300,8.465435302734376,0.47769662737846375,0.2223549485206604,-0.07635815441608429
1782776147048768500,8.4757685546875,0.5009095072746277,0.14355333149433136,-0.0012217304902151227
1782776147058799900,8.4857998046875,0.49785518646240234,0.06291911751031876,0.09040805697441101
1782776147068757500,8.495757568359375,0.48197266459465027,0.009773843921720982,0.19853121042251587
1782776147078788000,8.5057880859375,0.46181413531303406,0.00427605677396059,0.3017674386501312
1782776147088777000,8.51577685546875,0.44654250144958496,0.06719517707824707,0.3854559659957886
1782776147098777000,8.525777099609375,0.4294382631778717,0.15515977144241333,0.4648684561252594
1782776147108766000,8.535765869140626,0.4056145250797272,0.28099802136421204,0.4789183437824249
1782776147118796500,8.545796630859375,0.3634648323059082,0.38728857040405273,0.4697553813457489
1782776147128755200,8.555755126953125,0.3335324227809906,0.4612032473087311,0.4660901725292206
1782776147138785500,8.56578564453125,0.3219259977340698,0.5051855444908142,0.4740314185619354
1782776147148774700,8.575774658203125,0.3243694305419922,0.5180137157440186,0.45265114307403564
1782776147158774500,8.5857744140625,0.3378084897994995,0.48380526900291443,0.38667771220207214
1782776147168763600,8.595763671875,0.3604104816913605,0.40622538328170776,0.294437050819397
1782776147178794000,8.6057939453125,0.3787364661693573,0.33108896017074585,0.20525072515010834
1782776147188752600,8.615752685546875,0.40256020426750183,0.29016098380088806,0.1612684279680252
1782776147198783500,8.625783447265626,0.41722095012664795,0.34025195240974426,0.21563543379306793
1782776147208772000,8.635772216796875,0.3536909818649292,0.4239404797554016,0.41599923372268677
1782776147218772200,8.645772216796875,0.31031954288482666,0.13255776464939117,0.4660901725292206
1782776147228761300,8.65576123046875,0.38240164518356323,-0.06780604273080826,0.4056145250797272
1782776147238820900,8.66582080078125,0.5106833577156067,-0.00366519158706069,0.33292156457901
1782776147248750000,8.67575,0.5974262356758118,0.10812314599752426,0.3084869384765625
1782776147258781000,8.685781005859376,0.618195652961731,0.21074850857257843,0.3585779070854187
1782776147268769800,8.695769775390625,0.5845980644226074,0.3078760802745819,0.46670106053352356
