time,seconds_elapsed,z,y,x
1782776391239260400,0.177260498046875,-0.7850179672241211,-0.10433125495910645,0.22975628077983856
1782776391249148200,0.187148193359375,-0.8450546264648438,-0.16784429550170898,0.08096739649772644
1782776391259157800,0.19715771484375,-0.8875637054443359,-0.20727109909057617,-0.06169775128364563
1782776391269167600,0.207167724609375,-0.9304227828979492,-0.30423569679260254,-0.13660773634910583
1782776391279177200,0.21717724609375,-0.9518871307373047,-0.3216395378112793,-0.19003069400787354
1782776391289156600,0.227156494140625,-1.0108833312988281,-0.24251222610473633,-0.177016019821167
1782776391299166200,0.237166259765625,-1.0691633224487305,-0.22692489624023438,-0.11168620735406876
1782776391309176000,0.247176025390625,-0.9791316986083984,-0.18630242347717285,0.002878904342651367
1782776391319155500,0.257155517578125,-0.8510236740112305,-0.22321605682373047,0.037471652030944824
1782776391329165300,0.267165283203125,-0.7038297653198242,-0.23516201972961426,0.11161532998085022
1782776391339175000,0.2771748046875,-0.4869575500488281,-0.20129179954528809,0.09164601564407349
1782776391349154000,0.287154052734375,-0.26221656799316406,-0.1560351848602295,0.14230334758758545
1782776391359164000,0.297163818359375,-0.050721168518066406,-0.08591413497924805,0.2231418490409851
1782776391369173500,0.307173583984375,-0.16294384002685547,-0.03317713737487793,0.3498268723487854
1782776391379153000,0.31715283203125,-0.2782478332519531,-0.05479145050048828,0.3070363402366638
1782776391389162800,0.327162841796875,-0.33067798614501953,-0.0929718017578125,0.35253071784973145
1782776391399172400,0.33717236328125,-0.19647502899169922,-0.10314393043518066,0.3525012731552124
1782776391409151700,0.34715185546875,0.028188705444335938,-0.050890207290649414,0.2952944040298462
1782776391419161600,0.35716162109375,0.21177291870117188,0.07760047912597656,0.27253979444503784
1782776391429171200,0.367171142578125,0.23966407775878906,0.22489643096923828,0.25817304849624634
1782776391439150300,0.377150390625,0.1853189468383789,0.40789151191711426,0.20059502124786377
1782776391449160200,0.38716015625,0.0026655197143554688,0.7011041641235352,0.11359745264053345
1782776391459169800,0.397169677734375,-0.2549152374267578,0.8416099548339844,0.06410747766494751
1782776391469149200,0.407149169921875,-0.4081087112426758,0.7608888149261475,0.07951295375823975
1782776391479159000,0.417158935546875,-0.4063596725463867,0.6488478183746338,0.1961115598678589
1782776391489168600,0.427168701171875,-0.01692676544189453,0.3919954299926758,0.3476601839065552
1782776391499148000,0.43714794921875,0.4385490417480469,0.258760929107666,0.584725022315979
1782776391509158000,0.447157958984375,0.9349203109741211,0.10658693313598633,0.7733123302459717
1782776391519167500,0.45716748046875,1.3101940155029297,-0.05627250671386719,0.7445399761199951
1782776391529177300,0.46717724609375,1.7005863189697266,-0.2641303539276123,0.5767316818237305
1782776391539156500,0.477156494140625,1.9922351837158203,-0.3828928470611572,0.5400876998901367
1782776391549166300,0.487166259765625,1.942713737487793,-0.5649094581604004,0.3757830858230591
1782776391559176200,0.49717626953125,1.8366069793701172,-0.7739884853363037,0.1850876808166504
1782776391569155300,0.5071552734375,1.7283153533935547,-0.8893864154815674,0.02701890468597412
1782776391579165200,0.517165283203125,1.6486968994140625,-0.9895782470703125,-0.09008562564849854
1782776391589174800,0.5271748046875,1.607656478881836,-1.126692771911621,-0.244232177734375
1782776391599154200,0.537154296875,1.6133031845092773,-1.2053086757659912,-0.19541621208190918
1782776391609164000,0.5471640625,1.6207313537597656,-1.2688264846801758,-0.06805908679962158
1782776391619173600,0.557173583984375,1.5944299697875977,-1.3139448165893555,0.03368234634399414
1782776391629153000,0.567153076171875,1.558187484741211,-1.3504316806793213,-0.01611769199371338
1782776391639163000,0.577162841796875,1.4467077255249023,-1.4021403789520264,0.031761884689331055
1782776391649172500,0.58717236328125,1.247396469116211,-1.4642834663391113,0.07462406158447266
1782776391659151600,0.597151611328125,0.9167509078979492,-1.4747521877288818,0.11450397968292236
1782776391668726300,0.606726318359375,0.5640659332275391,-1.434535264968872,0.08775544166564941
1782776391679171000,0.617171142578125,0.19913768768310547,-1.3693196773529053,0.04979825019836426
1782776391689150500,0.627150390625,-0.2496471405029297,-1.3233428001403809,-0.011802315711975098
1782776391699160300,0.637160400390625,-0.7181215286254883,-1.2637462615966797,-0.12091362476348877
1782776391709170200,0.647170166015625,-1.2288050651550293,-1.1845030784606934,-0.21162819862365723
1782776391719149300,0.6571494140625,-1.6361074447631836,-1.1308643817901611,-0.3171762228012085
1782776391729159200,0.6671591796875,-1.993962287902832,-1.0944797992706299,-0.41762447357177734
1782776391739169000,0.6771689453125,-2.293954849243164,-1.0454342365264893,-0.42921948432922363
1782776391749148200,0.687148193359375,-2.471078395843506,-0.947296142578125,-0.40691494941711426
1782776391759157800,0.69715771484375,-2.4330153465270996,-0.8732552528381348,-0.30607175827026367
1782776391769167600,0.707167724609375,-2.2218799591064453,-0.7938175201416016,-0.11270606517791748
1782776391779177200,0.71717724609375,-1.7547407150268555,-0.726539134979248,0.10004675388336182
1782776391789156600,0.727156494140625,-1.0971031188964844,-0.6893486976623535,0.2800319194793701
1782776391799166200,0.737166259765625,-0.4042530059814453,-0.6648375988006592,0.4195706844329834
1782776391809176000,0.747176025390625,0.048770904541015625,-0.6739077568054199,0.43028151988983154
1782776391819155500,0.757155517578125,0.5103425979614258,-0.6252877712249756,0.291229248046875
1782776391828997400,0.766997314453125,0.85028076171875,-0.5531442165374756,0.11517477035522461
1782776391839175000,0.7771748046875,1.0018434524536133,-0.4260387420654297,-0.05031704902648926
1782776391849154000,0.787154052734375,1.1374311447143555,-0.34058547019958496,-0.1428980827331543
1782776391859164000,0.797163818359375,1.0744438171386719,-0.21039342880249023,-0.1991870403289795
1782776391869173500,0.807173583984375,0.9426002502441406,-0.04006028175354004,-0.11826455593109131
1782776391879153000,0.81715283203125,0.6495723724365234,0.1968090534210205,0.0594174861907959
1782776391889162800,0.827162841796875,0.37213993072509766,0.39080214500427246,0.24589717388153076
1782776391899172400,0.83717236328125,0.08566951751708984,0.5173203945159912,0.4779422879219055
1782776391909151700,0.84715185546875,-0.17453765869140625,0.6850697994232178,0.7205819487571716
1782776391919161600,0.85716162109375,-0.36846160888671875,0.8213391304016113,0.8571135401725769
1782776391929171200,0.867171142578125,-0.5324440002441406,0.9295132160186768,0.8999696969985962
1782776391939150300,0.877150390625,-0.650080680847168,1.0178570747375488,0.9447121024131775
1782776391949160200,0.88716015625,-0.7958078384399414,1.0197985172271729,0.9730508327484131
1782776391959169800,0.897169677734375,-1.0203742980957031,0.9936971664428711,0.8410883545875549
1782776391969149200,0.907149169921875,-1.2002086639404297,0.8937275409698486,0.5947394371032715
1782776391979159000,0.917158935546875,-1.3250484466552734,0.7550539970397949,0.32596391439437866
1782776391989168600,0.927168701171875,-1.429311752319336,0.6278228759765625,0.12683576345443726
1782776391999148000,0.93714794921875,-1.4396514892578125,0.5289180278778076,-0.053433775901794434
1782776392009158000,0.947157958984375,-1.242011547088623,0.2897069454193115,-0.33866846561431885
1782776392019167500,0.95716748046875,-0.9359254837036133,0.04021000862121582,-0.504249095916748
1782776392029177300,0.96717724609375,-0.5398359298706055,-0.1715097427368164,-0.566633939743042
1782776392039156500,0.977156494140625,-0.139556884765625,-0.3344604969024658,-0.6069364547729492
1782776392049166300,0.987166259765625,0.2529258728027344,-0.49693870544433594,-0.6671980619430542
1782776392059176200,0.99717626953125,0.5342559814453125,-0.6306815147399902,-0.7268995046615601
1782776392069155300,1.0071552734375,0.7981481552124023,-0.7130482196807861,-0.8124572038650513
1782776392079165200,1.017165283203125,1.064133644104004,-0.809450626373291,-0.9791535139083862
1782776392089174800,1.0271748046875,1.2101163864135742,-0.7119832038879395,-1.071977138519287
1782776392099154200,1.037154296875,1.301926612854004,-0.5244359970092773,-1.4639387130737305
1782776392109164000,1.0471640625,1.1874971389770508,-0.2586798667907715,-1.8675312995910645
1782776392119173600,1.057173583984375,0.6375064849853516,-0.022664546966552734,-1.6831921339035034
1782776392129153000,1.067153076171875,0.06750297546386719,0.12707877159118652,-0.7321582436561584
1782776392139163000,1.077162841796875,-0.16837024688720703,0.19781923294067383,0.5138625502586365
1782776392149172500,1.08717236328125,-0.09481620788574219,0.13300490379333496,1.6489920616149902
1782776392159151600,1.097151611328125,0.44117069244384766,-0.0006821155548095703,2.3277244567871094
1782776392169161500,1.107161376953125,1.2776861190795898,-0.16799473762512207,2.559190511703491
1782776392179171000,1.117171142578125,2.110600471496582,-0.42591381072998047,2.4318556785583496
1782776392189150500,1.127150390625,2.8023195266723633,-0.7753982543945312,1.9673961400985718
1782776392199160300,1.137160400390625,3.369182586669922,-1.1048989295959473,1.2633109092712402
1782776392209170200,1.147170166015625,3.606926918029785,-1.3979029655456543,0.5060432553291321
1782776392219149300,1.1571494140625,3.7063827514648438,-1.6744071245193481,-0.08607420325279236
1782776392229159200,1.1671591796875,3.484255790710449,-1.9960353374481201,-0.6379717588424683
1782776392239169000,1.1771689453125,2.8921728134155273,-2.1385579109191895,-1.0120278596878052
1782776392249148200,1.187148193359375,1.8314695358276367,-2.0517024993896484,-1.1065616607666016
1782776392259157800,1.19715771484375,0.7442684173583984,-1.7551617622375488,-1.0455350875854492
1782776392269167600,1.207167724609375,-0.14668655395507812,-1.5346390008926392,-1.1181045770645142
1782776392279177200,1.21717724609375,-0.8686008453369141,-1.4079447984695435,-1.1166998147964478
1782776392289156600,1.227156494140625,-1.4895639419555664,-1.3553099632263184,-1.0434908866882324
1782776392299166200,1.237166259765625,-2.0304298400878906,-1.3200421333312988,-0.8965557813644409
1782776392309176000,1.247176025390625,-2.4447240829467773,-1.3495302200317383,-0.6925218105316162
1782776392319155500,1.257155517578125,-2.7191109657287598,-1.45711088180542,-0.3555682897567749
1782776392329165300,1.267165283203125,-2.7309908866882324,-1.513242244720459,0.2958103120326996
1782776392339175000,1.2771748046875,-1.9904789924621582,-1.3650648593902588,1.040204644203186
1782776392349154800,1.28715478515625,-0.6866235733032227,-1.136533260345459,1.9439460039138794
1782776392359164000,1.297163818359375,0.782383918762207,-0.9256832599639893,2.937326431274414
1782776392369173500,1.307173583984375,2.3441476821899414,-0.8017408847808838,3.7340195178985596
1782776392379153000,1.31715283203125,3.766352653503418,-0.8140397071838379,3.901191473007202
1782776392389162800,1.327162841796875,4.531586647033691,-1.0191798210144043,3.25968337059021
1782776392399172400,1.33717236328125,4.457622528076172,-1.304034948348999,2.2579405307769775
1782776392409151700,1.34715185546875,3.488612174987793,-1.5610485076904297,1.262976884841919
1782776392419161600,1.35716162109375,2.1259403228759766,-1.801532506942749,0.3821605443954468
1782776392429171200,1.367171142578125,0.9756565093994141,-1.9852313995361328,-0.40732380747795105
1782776392439150300,1.377150390625,-0.19020843505859375,-2.0546557903289795,-0.9856814742088318
1782776392449160200,1.38716015625,-1.1657090187072754,-2.052577495574951,-1.1749763488769531
1782776392459169800,1.397169677734375,-2.056015968322754,-1.9388341903686523,-1.1201307773590088
1782776392469149200,1.407149169921875,-2.743828296661377,-1.7454502582550049,-0.9479610919952393
1782776392479159000,1.417158935546875,-3.3688435554504395,-1.5342204570770264,-0.7012048959732056
1782776392489168600,1.427168701171875,-3.8598194122314453,-1.3158061504364014,-0.4898502230644226
1782776392499148000,1.43714794921875,-4.280783653259277,-1.0982451438903809,-0.18922258913516998
1782776392509158000,1.447157958984375,-4.594662189483643,-0.8815770149230957,0.037092432379722595
1782776392519167500,1.45716748046875,-4.731319427490234,-0.7007803916931152,0.18617621064186096
1782776392529177300,1.46717724609375,-4.692437171936035,-0.5309834480285645,0.32847750186920166
1782776392539156500,1.477156494140625,-4.35029935836792,-0.4360177516937256,0.45494651794433594
1782776392549166300,1.487166259765625,-3.6948494911193848,-0.45383429527282715,0.44440221786499023
1782776392559176200,1.49717626953125,-2.847259044647217,-0.5727801322937012,0.395512193441391
1782776392569155300,1.5071552734375,-2.000490188598633,-0.6414871215820312,0.5410903096199036
1782776392579165200,1.517165283203125,-1.1795530319213867,-0.6078152656555176,0.6430482864379883
1782776392589174800,1.5271748046875,-0.45996952056884766,-0.5315330028533936,0.6440715193748474
1782776392599154200,1.537154296875,0.1505441665649414,-0.4315025806427002,0.7369749546051025
1782776392609164000,1.5471640625,0.7227315902709961,-0.30359363555908203,0.8907625079154968
1782776392619173600,1.557173583984375,1.236435890197754,-0.15558743476867676,1.0867605209350586
1782776392629153000,1.567153076171875,1.656651496887207,-0.044438838958740234,1.320718765258789
1782776392639163000,1.577162841796875,1.9769887924194336,-0.028833866119384766,1.5199766159057617
1782776392649172500,1.58717236328125,2.214273452758789,-0.04326367378234863,1.6776224374771118
1782776392659151600,1.597151611328125,2.332852363586426,-0.08748245239257812,1.761923909187317
1782776392669161200,1.6071611328125,2.346599578857422,-0.14683747291564941,1.8172791004180908
1782776392679171000,1.617171142578125,2.295254707336426,-0.2604866027832031,1.7490475177764893
1782776392689150500,1.627150390625,2.2424373626708984,-0.3166768550872803,1.3504095077514648
1782776392699160300,1.637160400390625,2.0315446853637695,-0.21868419647216797,0.6125837564468384
1782776392709170200,1.647170166015625,1.3934087753295898,-0.19827508926391602,0.06481528282165527
1782776392719149300,1.6571494140625,0.6438379287719727,-0.29620933532714844,0.04835200309753418
1782776392729159200,1.6671591796875,0.14557266235351562,-0.25911855697631836,0.37666845321655273
1782776392739169000,1.6771689453125,-0.15776538848876953,-0.10370326042175293,0.8889626264572144
1782776392749148200,1.687148193359375,-0.19692611694335938,0.1103966236114502,1.5813440084457397
1782776392759157800,1.69715771484375,0.14952373504638672,0.2290787696838379,2.327878952026367
1782776392769167600,1.707167724609375,0.6958198547363281,0.21527576446533203,2.645671844482422
1782776392779177200,1.71717724609375,1.2777729034423828,0.14400863647460938,2.603072166442871
1782776392789156600,1.727156494140625,1.801422119140625,0.0448758602142334,2.3139805793762207
1782776392799166200,1.737166259765625,2.1085195541381836,-0.07024765014648438,1.9057252407073975
1782776392809176000,1.747176025390625,2.2667579650878906,-0.1941368579864502,1.674040675163269
1782776392819155500,1.757155517578125,2.368480682373047,-0.2624502182006836,1.6645362377166748
1782776392829165300,1.767165283203125,2.460354804992676,-0.20186853408813477,2.020456314086914
1782776392839175000,1.7771748046875,2.5667905807495117,-0.2327563762664795,2.2842445373535156
1782776392849154000,1.787154052734375,2.7813425064086914,-0.35579848289489746,2.3628580570220947
1782776392859164000,1.797163818359375,2.93196964263916,-0.5438783168792725,2.2599549293518066
1782776392869173500,1.807173583984375,2.944737434387207,-0.8471548557281494,1.8801859617233276
1782776392879153000,1.81715283203125,2.6386947631835938,-1.1167528629302979,1.4728785753250122
1782776392889162800,1.827162841796875,2.101027488708496,-1.3418792486190796,1.0680124759674072
1782776392899172400,1.83717236328125,1.456660270690918,-1.5308666229248047,0.8234845399856567
1782776392909151700,1.84715185546875,0.7728233337402344,-1.6374691724777222,0.7299058437347412
1782776392919161600,1.85716162109375,0.1042470932006836,-1.7242852449417114,0.7067574262619019
1782776392929171200,1.867171142578125,-0.49416065216064453,-1.766022801399231,0.6789051294326782
1782776392939150300,1.877150390625,-1.1973652839660645,-1.782455563545227,0.7523531913757324
1782776392949160200,1.88716015625,-1.729949951171875,-1.7463161945343018,0.7649613618850708
1782776392959169800,1.897169677734375,-2.176520347595215,-1.749967336654663,0.7862192392349243
1782776392969149200,1.907149169921875,-2.6096901893615723,-1.7376753091812134,0.8328014612197876
1782776392979159000,1.917158935546875,-2.8734970092773438,-1.6750926971435547,0.8457168340682983
1782776392989168600,1.927168701171875,-3.1159415245056152,-1.547717809677124,0.9591457843780518
1782776392999148000,1.93714794921875,-3.307264804840088,-1.4161911010742188,1.0697050094604492
1782776393009158000,1.947157958984375,-3.5273489952087402,-1.2404704093933105,1.280326247215271
1782776393019167500,1.95716748046875,-3.5787391662597656,-1.0227811336517334,1.4189409017562866
1782776393029177300,1.96717724609375,-3.3288822174072266,-0.89601731300354,1.5899161100387573
1782776393039156500,1.977156494140625,-2.8431849479675293,-0.8918859958648682,1.7350295782089233
1782776393049166300,1.987166259765625,-2.157465934753418,-0.9605352878570557,1.7497326135635376
1782776393059176200,1.99717626953125,-1.4024252891540527,-1.0279428958892822,1.6022404432296753
1782776393069155300,2.0071552734375,-0.6799001693725586,-1.0733509063720703,1.3482165336608887
1782776393079165200,2.017165283203125,-0.12476825714111328,-1.057896375656128,1.0545629262924194
1782776393089174800,2.0271748046875,0.35251522064208984,-1.082275629043579,0.7440495491027832
1782776393099154200,2.037154296875,0.7703104019165039,-0.9635341167449951,0.6674058437347412
1782776393109164000,2.0471640625,1.019118309020996,-0.8247716426849365,0.5660783052444458
1782776393119173600,2.057173583984375,1.1478939056396484,-0.6673316955566406,0.5240455865859985
1782776393129153000,2.067153076171875,1.0853185653686523,-0.49601006507873535,0.5989843606948853
1782776393139163000,2.077162841796875,0.8083019256591797,-0.2945084571838379,0.724722146987915
1782776393149172500,2.08717236328125,0.4158477783203125,-0.1180717945098877,0.8055905103683472
1782776393159151600,2.097151611328125,0.05413818359375,0.045632123947143555,0.905741810798645
1782776393169161500,2.107161376953125,-0.4540262222290039,0.18070316314697266,0.9770392775535583
1782776393179171000,2.117171142578125,-0.9531564712524414,0.29022860527038574,0.9684412479400635
1782776393189150500,2.127150390625,-1.410515308380127,0.40272951126098633,1.0217700004577637
1782776393199160300,2.137160400390625,-1.836972713470459,0.4786515235900879,1.0562858581542969
1782776393209170200,2.147170166015625,-2.135725975036621,0.5355548858642578,1.062342643737793
1782776393219179800,2.1571796875,-2.3300552368164062,0.5681366920471191,1.0438752174377441
1782776393229159200,2.1671591796875,-2.4330592155456543,0.6077475547790527,0.9782832860946655
1782776393239169000,2.1771689453125,-2.5147786140441895,0.6393122673034668,0.939224362373352
1782776393249148200,2.187148193359375,-2.608475685119629,0.700552225112915,0.9096398949623108
1782776393259157800,2.19715771484375,-2.67868709564209,0.7616963386535645,0.9078435301780701
1782776393269167600,2.207167724609375,-2.6801576614379883,0.7801082134246826,0.887125551700592
1782776393279177200,2.21717724609375,-2.5461645126342773,0.7473728656768799,0.7385528087615967
1782776393289156600,2.227156494140625,-2.288602828979492,0.6349127292633057,0.4995373487472534
1782776393299166500,2.23716650390625,-1.9498896598815918,0.5015792846679688,0.26446038484573364
1782776393309176000,2.247176025390625,-1.4983930587768555,0.3680603504180908,0.0639447271823883
1782776393319155500,2.257155517578125,-0.9715356826782227,0.2538754940032959,-0.025653988122940063
1782776393329165300,2.267165283203125,-0.4262552261352539,0.18145012855529785,-0.06144210696220398
1782776393339175000,2.2771748046875,0.19556236267089844,0.15129899978637695,-0.03579875826835632
1782776393349154000,2.287154052734375,0.7579717636108398,0.13057661056518555,-0.0013756752014160156
1782776393359164000,2.297163818359375,1.144287109375,0.08863639831542969,-0.01656484603881836
1782776393369173500,2.307173583984375,1.5642671585083008,-0.046955108642578125,-0.4509533941745758
1782776393379153000,2.31715283203125,1.772191047668457,0.168229341506958,-0.9115403890609741
1782776393389162500,2.32716259765625,1.766831398010254,0.42308926582336426,-1.0996556282043457
1782776393399172400,2.33717236328125,1.7294435501098633,0.5576431751251221,-0.5397186279296875
1782776393409151700,2.34715185546875,1.8224010467529297,0.6358323097229004,0.4557803273200989
1782776393419161300,2.357161376953125,2.001530647277832,0.6674220561981201,1.323685884475708
1782776393429171200,2.367171142578125,2.2532453536987305,0.5412712097167969,1.893469214439392
1782776393439150600,2.377150634765625,2.6102685928344727,0.16826486587524414,2.2113842964172363
1782776393449160200,2.38716015625,2.974581718444824,-0.2987675666809082,2.1132304668426514
1782776393459170000,2.397170166015625,3.1413192749023438,-0.7070508003234863,1.6235473155975342
1782776393469149200,2.407149169921875,3.231633186340332,-0.8619906902313232,0.6330461502075195
1782776393479159000,2.417158935546875,2.944729804992676,-1.0989830493927002,0.012631818652153015
1782776393489169000,2.4271689453125,2.6302356719970703,-1.507218360900879,-0.45909619331359863
1782776393499148000,2.43714794921875,2.438809394836426,-1.5734137296676636,-0.7828574776649475
1782776393509158000,2.447157958984375,2.078640937805176,-1.5660983324050903,-0.8105344176292419
1782776393519167700,2.457167724609375,1.4386186599731445,-1.5395337343215942,-0.4287456274032593
1782776393529177300,2.46717724609375,0.5969696044921875,-1.4355356693267822,-0.06492503732442856
1782776393539156500,2.477156494140625,-0.23241519927978516,-1.2963844537734985,0.10748451948165894
1782776393549166300,2.487166259765625,-0.9276247024536133,-1.1927645206451416,0.12736979126930237
1782776393559176200,2.49717626953125,-1.4749746322631836,-1.1225090026855469,0.06864596903324127
1782776393569155300,2.5071552734375,-1.9135875701904297,-1.1338748931884766,0.01976752281188965
1782776393579165200,2.517165283203125,-2.320850372314453,-1.1200740337371826,-0.09065508842468262
1782776393589174800,2.5271748046875,-2.6840639114379883,-1.1657657623291016,-0.341286838054657
1782776393599154200,2.537154296875,-2.9215445518493652,-1.2297539710998535,-0.5194708704948425
1782776393609164000,2.5471640625,-3.177034378051758,-1.4166443347930908,-0.6242680549621582
1782776393619173600,2.557173583984375,-3.411105155944824,-1.6379845142364502,-0.5576881170272827
1782776393629153000,2.567153076171875,-3.4485254287719727,-1.8278371095657349,-0.29148513078689575
1782776393639163000,2.577162841796875,-2.8584747314453125,-1.772576093673706,0.21010419726371765
1782776393649172500,2.58717236328125,-1.6242475509643555,-1.5832585096359253,1.0448843240737915
1782776393659151600,2.597151611328125,-0.2037677764892578,-1.4442028999328613,2.0685129165649414
1782776393669161500,2.607161376953125,1.4220657348632812,-1.4184727668762207,2.7573485374450684
1782776393679171000,2.617171142578125,3.0605030059814453,-1.4985779523849487,2.99003005027771
1782776393689150500,2.627150390625,4.154865264892578,-1.5987857580184937,2.6855344772338867
1782776393699160300,2.637160400390625,4.459807395935059,-1.841291069984436,2.0156774520874023
1782776393709170200,2.647170166015625,4.058274269104004,-2.0367445945739746,1.062196135520935
1782776393719271400,2.657271484375,3.1617536544799805,-2.1898021697998047,0.24067145586013794
1782776393729159200,2.6671591796875,1.9399662017822266,-2.267965316772461,-0.3590821623802185
1782776393739168800,2.677168701171875,0.8886651992797852,-2.240149736404419,-0.7424410581588745
1782776393749148200,2.687148193359375,-0.06452751159667969,-2.1464123725891113,-0.853293776512146
1782776393759157800,2.69715771484375,-0.9532947540283203,-1.982750654220581,-0.6689363718032837
1782776393769167600,2.707167724609375,-1.7541098594665527,-1.735367774963379,-0.3749585747718811
1782776393779177200,2.71717724609375,-2.441722869873047,-1.4628595113754272,0.013061143457889557
1782776393789156600,2.727156494140625,-3.0028815269470215,-1.1641314029693604,0.39378902316093445
1782776393799166200,2.737166259765625,-3.4273581504821777,-0.9440758228302002,0.724022388458252
1782776393809176000,2.747176025390625,-3.74515438079834,-0.7822766304016113,1.027918815612793
1782776393819155500,2.757155517578125,-3.883091449737549,-0.65437912940979,1.1915295124053955
1782776393829165300,2.767165283203125,-3.8051977157592773,-0.5992217063903809,1.2343969345092773
1782776393839175000,2.7771748046875,-3.4978132247924805,-0.5189886093139648,1.210425853729248
1782776393849154000,2.787154052734375,-2.913248062133789,-0.5134048461914062,1.09870183467865
1782776393859164000,2.797163818359375,-2.166032314300537,-0.5568447113037109,1.0234405994415283
1782776393869173500,2.807173583984375,-1.4180378913879395,-0.5796120166778564,1.012204647064209
1782776393879153000,2.81715283203125,-0.6842746734619141,-0.5768308639526367,0.9948871731758118
1782776393889162800,2.827162841796875,0.024744033813476562,-0.4997439384460449,0.9209353923797607
1782776393899172400,2.83717236328125,0.6745996475219727,-0.4221622943878174,0.9050467014312744
1782776393909151700,2.84715185546875,1.1586713790893555,-0.3479323387145996,0.955926239490509
1782776393919161600,2.85716162109375,1.4827899932861328,-0.252730131149292,1.0503523349761963
1782776393929171200,2.867171142578125,1.5991554260253906,-0.09789156913757324,1.1442300081253052
1782776393939150600,2.877150634765625,1.4962873458862305,0.0982205867767334,1.3271477222442627
1782776393949160200,2.88716015625,1.3008394241333008,0.254148006439209,1.4655108451843262
1782776393959170000,2.897170166015625,1.1008501052856445,0.37653303146362305,1.5790846347808838
1782776393969149200,2.907149169921875,0.9723396301269531,0.47736215591430664,1.6273748874664307
1782776393979159000,2.917158935546875,0.9577217102050781,0.537567138671875,1.6959762573242188
1782776393989169000,2.9271689453125,0.9990825653076172,0.501671314239502,1.7260816097259521
1782776393999148000,2.93714794921875,1.0889596939086914,0.468487024307251,1.7187325954437256
1782776394009158000,2.947157958984375,1.1960678100585938,0.49801015853881836,1.6056801080703735
1782776394019167700,2.957167724609375,1.1696271896362305,0.7234656810760498,1.2066402435302734
1782776394029177300,2.96717724609375,0.9474382400512695,0.8777637481689453,0.8501729369163513
1782776394039156700,2.97715673828125,0.4813261032104492,0.790489912033081,0.7219026684761047
1782776394049166300,2.987166259765625,-0.03204917907714844,0.6798973083496094,0.9491170048713684
1782776394059176200,2.99717626953125,-0.463104248046875,0.7785735130310059,1.5646693706512451
1782776394069155300,3.0071552734375,-0.5775251388549805,0.9076282978057861,2.2129504680633545
1782776394079165200,3.017165283203125,-0.043549537658691406,0.9249324798583984,3.0460264682769775
1782776394089174800,3.0271748046875,1.028045654296875,0.5310182571411133,3.5261006355285645
1782776394099154200,3.037154296875,2.130866050720215,-0.005422115325927734,3.8428938388824463
1782776394109164000,3.0471640625,3.117995262145996,-0.5426192283630371,3.7909739017486572
1782776394119173600,3.057173583984375,3.964613914489746,-1.0636740922927856,3.310263156890869
1782776394129153000,3.067153076171875,4.416213035583496,-1.5887181758880615,2.3495616912841797
1782776394139163000,3.077162841796875,4.451449394226074,-1.9660742282867432,1.2854819297790527
1782776394149172500,3.08717236328125,4.035350799560547,-2.210890054702759,0.4658130407333374
1782776394159151600,3.097151611328125,3.4626874923706055,-2.3345465660095215,-0.08745801448822021
1782776394169161500,3.107161376953125,2.724106788635254,-2.3556265830993652,-0.541773796081543
1782776394179171000,3.117171142578125,1.8269376754760742,-2.3097875118255615,-0.7931987047195435
1782776394189150500,3.127150390625,0.8780746459960938,-2.2184886932373047,-0.7543494701385498
1782776394199160300,3.137160400390625,-0.013576507568359375,-2.119874954223633,-0.336653470993042
1782776394209170200,3.147170166015625,-0.8450069427490234,-1.9932184219360352,0.28192758560180664
1782776394219149300,3.1571494140625,-1.4248857498168945,-1.7646567821502686,0.898009181022644
1782776394229159200,3.1671591796875,-1.8831205368041992,-1.5180107355117798,1.5259339809417725
1782776394239169000,3.1771689453125,-2.2191596031188965,-1.3892899751663208,2.1731820106506348
1782776394249148200,3.187148193359375,-2.4587583541870117,-1.3284900188446045,2.617959499359131
1782776394259157800,3.19715771484375,-2.5638856887817383,-1.352854609489441,3.0446009635925293
1782776394269167600,3.207167724609375,-2.52755069732666,-1.451409101486206,3.319622039794922
1782776394279177200,3.21717724609375,-2.3564529418945312,-1.5880458354949951,3.4478273391723633
1782776394289156600,3.227156494140625,-2.131256580352783,-1.7940374612808228,3.370114326477051
1782776394299166500,3.23716650390625,-1.9037070274353027,-2.0103840827941895,3.0779337882995605
1782776394309176000,3.247176025390625,-1.6549463272094727,-2.237842559814453,2.604072093963623
1782776394319155500,3.257155517578125,-1.3465557098388672,-2.392638921737671,2.1579227447509766
1782776394329165000,3.2671650390625,-1.0160045623779297,-2.4971747398376465,1.836913824081421
1782776394339175000,3.2771748046875,-0.698084831237793,-2.5555295944213867,1.5283300876617432
1782776394349154000,3.287154052734375,-0.3506345748901367,-2.536569595336914,1.2411308288574219
1782776394359164000,3.297163818359375,-0.024384498596191406,-2.453169345855713,1.004348874092102
1782776394369173500,3.307173583984375,0.30130481719970703,-2.356074333190918,0.790935754776001
1782776394379153000,3.31715283203125,0.5060157775878906,-2.2108137607574463,0.6912400722503662
1782776394389162500,3.32716259765625,0.5740823745727539,-1.9921846389770508,0.7121539115905762
1782776394399172400,3.33717236328125,0.3986673355102539,-1.742167592048645,0.8044785261154175
1782776394409151700,3.34715185546875,0.13330554962158203,-1.4890891313552856,0.9385331869125366
1782776394419161600,3.35716162109375,-0.21717166900634766,-1.2221332788467407,1.0225669145584106
1782776394429171200,3.367171142578125,-0.5768194198608398,-1.0378907918930054,1.0072710514068604
1782776394439150300,3.377150390625,-0.8387823104858398,-0.8406970500946045,0.8531633615493774
1782776394449160200,3.38716015625,-1.1283750534057617,-0.6306290626525879,0.7022857666015625
1782776394459169800,3.397169677734375,-1.261941909790039,-0.436490535736084,0.5880836248397827
1782776394469149200,3.407149169921875,-1.2904996871948242,-0.2124626636505127,0.651059627532959
1782776394479159000,3.417158935546875,-1.199972152709961,0.02900981903076172,0.7426984310150146
1782776394489169000,3.4271689453125,-0.9165925979614258,0.2842550277709961,0.89491868019104
1782776394499148000,3.43714794921875,-0.6817207336425781,0.6049809455871582,1.187828779220581
1782776394509158000,3.447157958984375,-0.5232009887695312,0.8805506229400635,1.48744535446167
1782776394519167700,3.457167724609375,-0.47372913360595703,1.1819963455200195,1.8165521621704102
1782776394529177300,3.46717724609375,-0.6020727157592773,1.3966708183288574,2.075467109680176
1782776394539156700,3.47715673828125,-0.7521781921386719,1.5155692100524902,2.227020740509033
1782776394549166300,3.487166259765625,-0.9697647094726562,1.522305965423584,2.1909303665161133
1782776394559116300,3.4971162109375,-1.1644229888916016,1.4445936679840088,1.9686431884765625
1782776394569246700,3.507246826171875,-1.175612449645996,0.9567666053771973,0.8677151203155518
1782776394579165200,3.517165283203125,-1.2079858779907227,0.6022937297821045,0.18826723098754883
1782776394589174800,3.5271748046875,-1.2996745109558105,0.4067084789276123,-0.08070564270019531
1782776394599154200,3.537154296875,-1.1395158767700195,0.17915940284729004,-0.43366408348083496
1782776394609104400,3.5471044921875,-0.6539211273193359,-0.056340932846069336,-0.8626828193664551
1782776394619175200,3.557175048828125,-0.10882949829101562,-0.2958958148956299,-1.113572359085083
1782776394630077700,3.56807763671875,0.5313777923583984,-0.4871969223022461,-1.1822423934936523
1782776394649172500,3.58717236328125,1.0142250061035156,-0.6977035999298096,-0.9608635902404785
1782776394659151600,3.597151611328125,1.3502979278564453,-0.776878833770752,-1.0811762809753418
1782776394669161500,3.607161376953125,1.6973190307617188,-0.7839241027832031,-1.4997841119766235
1782776394679111400,3.617111328125,1.8908891677856445,-0.7323851585388184,-2.1666014194488525
1782776394689241900,3.627241943359375,1.7179136276245117,-0.679598331451416,-2.6046142578125
1782776394699160300,3.637160400390625,1.2328357696533203,-0.844341516494751,-2.461045265197754
1782776394709170200,3.647170166015625,0.4587135314941406,-1.1805262565612793,-1.7853941917419434
1782776394719149300,3.6571494140625,-0.21291542053222656,-1.527435541152954,-0.9968611598014832
1782776394729159200,3.6671591796875,-0.3913726806640625,-1.76737642288208,-0.32828760147094727
1782776394739169000,3.6771689453125,0.20482349395751953,-1.848859190940857,0.16122257709503174
1782776394749148200,3.687148193359375,1.0983476638793945,-1.79198157787323,0.6671278476715088
1782776394759157800,3.69715771484375,2.237860679626465,-1.9265143871307373,0.5161983966827393
1782776394769167400,3.70716748046875,2.9050703048706055,-2.1556615829467773,0.057161808013916016
1782776394779177200,3.71717724609375,3.1374940872192383,-2.518141031265259,-0.7386857867240906
1782776394789156600,3.727156494140625,2.9156789779663086,-2.8854293823242188,-1.594265103340149
1782776394799166500,3.73716650390625,2.2207231521606445,-3.1819913387298584,-2.3043875694274902
1782776394809176000,3.747176025390625,1.256338119506836,-3.3371083736419678,-2.6013407707214355
1782776394819155500,3.757155517578125,0.20680713653564453,-3.287013530731201,-2.548060894012451
1782776394829165300,3.767165283203125,-0.7137203216552734,-3.0977163314819336,-2.317986011505127
1782776394839175000,3.7771748046875,-1.5217657089233398,-2.899132251739502,-2.1276772022247314
1782776394849154000,3.787154052734375,-2.2132582664489746,-2.7390618324279785,-2.002322196960449
1782776394859164000,3.797163818359375,-2.832561492919922,-2.570451259613037,-1.9655649662017822
1782776394870146000,3.80814599609375,-3.5030131340026855,-2.3521337509155273,-1.9253172874450684
1782776394889223700,3.8272236328125,-4.501798629760742,-2.183586597442627,-1.471766471862793
1782776394899172400,3.83717236328125,-4.9747161865234375,-2.175039052963257,-0.885761559009552
1782776394909151700,3.84715185546875,-4.929501056671143,-1.9444279670715332,-0.10458114743232727
1782776394919102000,3.85710205078125,-3.8766098022460938,-1.5162873268127441,0.9612774848937988
1782776394929232400,3.867232421875,-1.7864885330200195,-1.2346787452697754,2.208732843399048
1782776394939150300,3.877150390625,0.5561809539794922,-1.3046085834503174,3.48362135887146
1782776394950194400,3.8881943359375,3.139822006225586,-1.6913580894470215,4.249763011932373
1782776394969089500,3.907089599609375,5.977540969848633,-2.362375259399414,2.80963134765625
1782776394979220000,3.917219970703125,6.120343208312988,-2.78678035736084,1.2509291172027588
1782776394989847800,3.927847900390625,5.773125648498535,-3.169642686843872,-0.22389233112335205
1782776395009218800,3.94721875,4.442684173583984,-3.360853910446167,-1.6349225044250488
1782776395019107800,3.95710791015625,3.488849639892578,-3.0789101123809814,-1.3911798000335693
1782776395030526200,3.968526123046875,2.3471946716308594,-2.583536386489868,-0.6990010738372803
1782776395049166300,3.987166259765625,0.45038509368896484,-1.9509483575820923,0.4593479037284851
1782776395059176200,3.99717626953125,-0.5975246429443359,-1.8031071424484253,1.0035185813903809
1782776395069155300,4.0071552734375,-1.597165584564209,-1.6805455684661865,1.399735927581787
1782776395079165200,4.017165283203125,-2.5293045043945312,-1.5809881687164307,1.6492140293121338
1782776395089115100,4.027115234375,-3.1957178115844727,-1.4885612726211548,1.7427418231964111
1782776395099245600,4.03724560546875,-3.4726552963256836,-1.5043734312057495,1.638850450515747
1782776395109164000,4.0471640625,-3.378683567047119,-1.6359879970550537,1.3634510040283203
1782776395119173600,4.057173583984375,-2.9226441383361816,-1.8411270380020142,0.9358017444610596
1782776395129153000,4.067153076171875,-2.1500673294067383,-2.0245323181152344,0.5399774312973022
1782776395139163000,4.077162841796875,-1.1871910095214844,-2.1427061557769775,0.3202846646308899
1782776395149112600,4.087112548828125,-0.1856851577758789,-2.154256820678711,0.24546942114830017
1782776395159243300,4.0972431640625,0.8930273056030273,-2.071054220199585,0.24248269200325012
1782776395169101800,4.107101806640625,1.8266887664794922,-1.9865696430206299,0.39664047956466675
1782776395179232300,4.117232177734375,2.561530113220215,-1.8705545663833618,0.7931048274040222
1782776395189150500,4.127150390625,2.8600025177001953,-1.7282488346099854,1.3122832775115967
1782776395199160300,4.137160400390625,2.9799442291259766,-1.6288987398147583,1.800837516784668
1782776395209170000,4.147169921875,3.1567211151123047,-1.3828948736190796,2.0525777339935303
1782776395219149300,4.1571494140625,3.077005386352539,-1.2872636318206787,2.3860840797424316
1782776395229159200,4.1671591796875,3.073537826538086,-1.3446440696716309,2.684687376022339
1782776395239168800,4.177168701171875,3.0777101516723633,-1.5089811086654663,3.021009683609009
1782776395249148200,4.187148193359375,3.1456003189086914,-1.5951355695724487,3.2412919998168945
1782776395259098000,4.19709814453125,2.99135684967041,-1.7262378931045532,3.293165683746338
1782776395271596500,4.209596435546875,2.443950653076172,-1.8151134252548218,3.108213424682617
1782776395289156600,4.227156494140625,1.532033920288086,-1.9438176155090332,2.839468479156494
1782776395299166500,4.23716650390625,1.0938196182250977,-2.1503982543945312,2.89487886428833
1782776395309176000,4.247176025390625,0.7714128494262695,-2.4859161376953125,2.9991793632507324
1782776395319155500,4.257155517578125,0.6311149597167969,-2.7509517669677734,2.950899362564087
1782776395329165300,4.267165283203125,0.6973114013671875,-3.019275665283203,2.675930976867676
1782776395339175000,4.2771748046875,0.8904056549072266,-3.2999801635742188,2.4124460220336914
1782776395349154000,4.287154052734375,0.9994373321533203,-3.575688600540161,2.1511006355285645
1782776395359163600,4.29716357421875,0.9158706665039062,-3.8524999618530273,1.900420069694519
1782776395369173500,4.307173583984375,0.7042675018310547,-4.1042022705078125,1.7110768556594849
1782776395379153000,4.31715283203125,0.3821277618408203,-4.247278690338135,1.5390506982803345
1782776395389162800,4.327162841796875,0.08781147003173828,-4.237010955810547,1.3913122415542603
1782776395399172400,4.33717236328125,-0.270111083984375,-4.245883941650391,1.2852716445922852
1782776395409151700,4.34715185546875,-0.4361867904663086,-4.309974193572998,1.0915166139602661
1782776395419161600,4.35716162109375,-0.5300564765930176,-4.468063831329346,0.8895711898803711
1782776395429171200,4.367171142578125,-0.5788693428039551,-4.649664402008057,0.7385953664779663
1782776395439150300,4.377150390625,-0.48467540740966797,-4.790750503540039,0.6331826448440552
1782776395449160200,4.38716015625,-0.2623567581176758,-4.853296279907227,0.5089008808135986
1782776395459170000,4.397170166015625,0.042168617248535156,-4.804847717285156,0.33422696590423584
1782776395469149200,4.407149169921875,0.27629947662353516,-4.767907619476318,0.27593445777893066
1782776395479159000,4.417158935546875,0.5176296234130859,-4.648390293121338,0.26526474952697754
1782776395489168600,4.427168701171875,0.6182956695556641,-4.500051498413086,0.3248986005783081
1782776395499148000,4.43714794921875,0.701756477355957,-4.33016300201416,0.3309040069580078
1782776395509158000,4.447157958984375,0.7147645950317383,-4.131821155548096,0.35716283321380615
1782776395519167500,4.45716748046875,0.727055549621582,-3.9137861728668213,0.29764223098754883
1782776395529177300,4.46717724609375,0.7489604949951172,-3.6644935607910156,0.2626321315765381
1782776395539156700,4.47715673828125,0.7718753814697266,-3.4074044227600098,0.23733162879943848
1782776395549166300,4.487166259765625,0.8653316497802734,-3.164151668548584,0.36749446392059326
1782776395559176200,4.49717626953125,0.8073244094848633,-2.8865222930908203,0.5820541381835938
1782776395569155300,4.5071552734375,0.7471294403076172,-2.6521739959716797,0.5574415922164917
1782776395579165000,4.5171650390625,0.6802597045898438,-2.417038917541504,0.39449357986450195
1782776395589115100,4.527115234375,0.5921230316162109,-2.254810094833374,0.18579387664794922
1782776395599245800,4.537245849609375,0.5695991516113281,-2.044093132019043,0.08610689640045166
1782776395609164000,4.5471640625,0.5843877792358398,-1.8214718103408813,0.05019497871398926
1782776395619173600,4.557173583984375,0.6040506362915039,-1.5988564491271973,0.03458201885223389
1782776395629153000,4.567153076171875,0.6286354064941406,-1.3989239931106567,0.1307739019393921
1782776395639163000,4.577162841796875,0.6320390701293945,-1.1873222589492798,0.355959415435791
1782776395649172500,4.58717236328125,0.5515727996826172,-1.0260145664215088,0.6034903526306152
1782776395659151600,4.597151611328125,0.3847236633300781,-0.8694367408752441,0.8255417346954346
1782776395669161500,4.607161376953125,0.23360729217529297,-0.7557005882263184,0.9453271627426147
1782776395679171000,4.617171142578125,0.1879415512084961,-0.7142703533172607,1.0799825191497803
1782776395689150500,4.627150390625,0.2965583801269531,-0.7050807476043701,1.0961602926254272
1782776395699160300,4.637160400390625,0.5722036361694336,-0.7099907398223877,1.1109563112258911
1782776395709170000,4.647169921875,0.9136962890625,-0.7356290817260742,1.1387056112289429
1782776395719149300,4.6571494140625,1.191497802734375,-0.6968998908996582,1.0867689847946167
1782776395729159200,4.6671591796875,1.357588768005371,-0.5459499359130859,0.8636631965637207
1782776395739168800,4.677168701171875,1.3967819213867188,-0.4772763252258301,0.8026801347732544
1782776395749148200,4.687148193359375,1.3179264068603516,-0.4570798873901367,0.7881230115890503
1782776395759157800,4.69715771484375,1.1482515335083008,-0.43936872482299805,0.6833081245422363
1782776395769167400,4.70716748046875,0.7203655242919922,-0.4654359817504883,0.5105128288269043
1782776395779177200,4.71717724609375,0.2307901382446289,-0.4373025894165039,0.29908955097198486
1782776395789156600,4.727156494140625,-0.2529020309448242,-0.36423659324645996,0.1576550006866455
1782776395799166200,4.737166259765625,-0.7248620986938477,-0.2304379940032959,0.21851801872253418
1782776395809176000,4.747176025390625,-1.0981121063232422,-0.10244107246398926,0.283345103263855
1782776395819155500,4.757155517578125,-1.350527286529541,0.04032444953918457,0.3748202323913574
1782776395829165300,4.767165283203125,-1.491661548614502,0.1664743423461914,0.5240247249603271
1782776395839175000,4.7771748046875,-1.576822280883789,0.2890613079071045,0.7296949625015259
1782776395849154000,4.787154052734375,-1.6661124229431152,0.4517545700073242,0.8838272094726562
1782776395859164000,4.797163818359375,-1.6137804985046387,0.5644569396972656,0.9329636096954346
1782776395869173500,4.807173583984375,-1.427748203277588,0.6881554126739502,1.0399473905563354
1782776395879153000,4.81715283203125,-1.2711286544799805,0.7468008995056152,1.0810325145721436
1782776395889162800,4.827162841796875,-1.2706031799316406,0.8636174201965332,1.1537628173828125
1782776395899172400,4.83717236328125,-1.3295788764953613,0.7825281620025635,0.850622296333313
1782776395909151700,4.84715185546875,-1.3124675750732422,0.7114942073822021,0.6000770330429077
1782776395919161600,4.85716162109375,-1.2345800399780273,0.6943924427032471,0.37178945541381836
1782776395929171200,4.867171142578125,-0.9603433609008789,0.6862125396728516,0.2679011821746826
1782776395939150300,4.877150390625,-0.6297111511230469,0.7424452304840088,0.2843196392059326
1782776395949160200,4.88716015625,-0.2586860656738281,0.7195711135864258,0.3127189874649048
1782776395959170000,4.897170166015625,0.13223934173583984,0.7540209293365479,0.5315576791763306
1782776395969149200,4.907149169921875,0.4784832000732422,0.710747241973877,0.7864280939102173
1782776395979159000,4.917158935546875,0.7317333221435547,0.6462745666503906,0.9264746904373169
1782776395989168600,4.927168701171875,0.8937416076660156,0.512601375579834,1.0233246088027954
1782776395999148000,4.93714794921875,0.9241714477539062,0.3083031177520752,0.9540914297103882
1782776396009158000,4.947157958984375,1.036081314086914,-0.016973257064819336,0.7051987648010254
1782776396019167500,4.95716748046875,1.1486539840698242,-0.4206397533416748,0.41781187057495117
1782776396029177300,4.96717724609375,1.1771907806396484,-0.8147356510162354,0.006752729415893555
1782776396039156700,4.97715673828125,1.0307722091674805,-0.9905624389648438,-0.3126073479652405
1782776396049166300,4.987166259765625,0.6897029876708984,-1.0779883861541748,-0.4459270238876343
1782776396059176200,4.99717626953125,0.08170890808105469,-1.0461530685424805,-0.4033440351486206
1782776396069155300,5.0071552734375,-0.5234575271606445,-1.0032014846801758,-0.132049560546875
1782776396079165200,5.017165283203125,-1.0941252708435059,-1.0265474319458008,0.37337613105773926
1782776396089174800,5.0271748046875,-1.4342827796936035,-1.165755271911621,0.711993932723999
1782776396099154200,5.037154296875,-1.5037755966186523,-1.314284086227417,0.7695314884185791
1782776396109164000,5.0471640625,-1.207197666168213,-1.5544447898864746,0.580032467842102
1782776396119173600,5.057173583984375,-0.82086181640625,-1.7965832948684692,0.30816876888275146
1782776396129153000,5.067153076171875,-0.5381317138671875,-2.064685821533203,-0.0976797342300415
1782776396139163000,5.077162841796875,-0.381622314453125,-2.1880738735198975,-0.6371805667877197
1782776396149172500,5.08717236328125,-0.31150341033935547,-2.29315185546875,-1.2296415567398071
1782776396159151600,5.097151611328125,-0.37332725524902344,-2.3951845169067383,-1.913870096206665
1782776396169161500,5.107161376953125,-0.6503839492797852,-2.380624532699585,-2.457294225692749
1782776396179171000,5.117171142578125,-1.1491031646728516,-2.2175753116607666,-2.8270511627197266
1782776396189150500,5.127150390625,-1.6994571685791016,-1.9794509410858154,-2.874835252761841
1782776396199160300,5.137160400390625,-2.1588501930236816,-1.614384651184082,-2.662322521209717
1782776396209170000,5.147169921875,-2.476179599761963,-1.2230594158172607,-2.364574432373047
1782776396219149300,5.1571494140625,-2.6127443313598633,-0.9298014640808105,-2.1808605194091797
1782776396229159200,5.1671591796875,-2.6231188774108887,-0.7333073616027832,-2.168290615081787
1782776396239168800,5.177168701171875,-2.6235218048095703,-0.47324562072753906,-2.0921616554260254
1782776396249148000,5.18714794921875,-2.49476957321167,-0.2969686985015869,-1.916032075881958
1782776396259157800,5.19715771484375,-2.181868553161621,-0.22017574310302734,-1.673763394355774
1782776396270234000,5.208234130859375,-1.7779831886291504,-0.24688720703125,-1.5147738456726074
1782776396289156600,5.227156494140625,-0.9803276062011719,-0.10394668579101562,-1.150122046470642
1782776396299166200,5.237166259765625,-0.30698204040527344,-0.07269001007080078,-0.773825466632843
1782776396309176000,5.247176025390625,0.44177913665771484,-0.1818532943725586,-0.47114306688308716
1782776396319155500,5.257155517578125,1.1644439697265625,-0.33955931663513184,-0.31260645389556885
1782776396329165300,5.267165283203125,1.892852783203125,-0.598038911819458,-0.2956228256225586
1782776396339175000,5.2771748046875,2.6539602279663086,-0.9046647548675537,-0.49111032485961914
1782776396349154000,5.287154052734375,3.4071855545043945,-1.0885794162750244,-0.941320538520813
1782776396359164000,5.297163818359375,3.8340044021606445,-1.2475225925445557,-1.4318162202835083
1782776396369173500,5.307173583984375,3.89479923248291,-1.318350911140442,-1.9115915298461914
1782776396379153000,5.31715283203125,3.686526298522949,-1.3760507106781006,-2.481778144836426
1782776396389162800,5.327162841796875,3.2397871017456055,-1.374233603477478,-3.0010104179382324
1782776396399172400,5.33717236328125,2.44979190826416,-1.2242283821105957,-3.1781201362609863
1782776396409151700,5.34715185546875,1.442087173461914,-1.0083142518997192,-3.1710526943206787
1782776396419161600,5.35716162109375,0.5388565063476562,-0.7880452871322632,-3.1365480422973633
1782776396429171200,5.367171142578125,-0.1208181381225586,-0.5888936519622803,-3.0734782218933105
1782776396439150300,5.377150390625,-0.6799468994140625,-0.42558789253234863,-2.9576549530029297
1782776396449160200,5.38716015625,-1.1122980117797852,-0.31772851943969727,-2.7393722534179688
1782776396459170000,5.397170166015625,-1.3401260375976562,-0.2697319984436035,-2.619826316833496
1782776396469149200,5.407149169921875,-1.4018182754516602,-0.23536038398742676,-2.5049619674682617
1782776396479159000,5.417158935546875,-1.4179778099060059,-0.17168951034545898,-2.3767035007476807
1782776396489168600,5.427168701171875,-1.484572410583496,-0.15992069244384766,-2.187567710876465
1782776396499148000,5.43714794921875,-1.5419921875,-0.13982748985290527,-1.976035714149475
1782776396509158000,5.447157958984375,-1.4806885719299316,-0.159653902053833,-1.8122764825820923
1782776396519167500,5.45716748046875,-1.1700468063354492,-0.2190258502960205,-1.6753156185150146
1782776396529177300,5.46717724609375,-0.8718662261962891,-0.3311781883239746,-1.5420377254486084
1782776396539156700,5.47715673828125,-0.6414270401000977,-0.3942239284515381,-1.4658689498901367
1782776396549166300,5.487166259765625,-0.32570934295654297,-0.40856170654296875,-1.4752647876739502
1782776396559176200,5.49717626953125,0.07958602905273438,-0.3809185028076172,-1.3683173656463623
1782776396569155300,5.5071552734375,0.3353090286254883,-0.41765832901000977,-1.2405321598052979
1782776396579165200,5.517165283203125,0.5332059860229492,-0.5042212009429932,-1.1483008861541748
1782776396589174800,5.5271748046875,0.6865673065185547,-0.4313286542892456,-0.4642413258552551
1782776396599154200,5.537154296875,0.7560625076293945,-0.2985396385192871,0.18731626868247986
1782776396609164000,5.5471640625,0.8860387802124023,-0.1454460620880127,0.5273358821868896
1782776396619173600,5.557173583984375,1.0350837707519531,-0.09651327133178711,0.6932398080825806
1782776396629153000,5.567153076171875,1.3011102676391602,-0.09991860389709473,0.8446194529533386
1782776396639163000,5.577162841796875,1.6557369232177734,-0.10394716262817383,0.9060034155845642
1782776396649172500,5.58717236328125,2.0330677032470703,-0.17218220233917236,0.9364222884178162
1782776396659151600,5.597151611328125,2.4016857147216797,-0.25036120414733887,0.908946692943573
1782776396669161500,5.607161376953125,2.678396224975586,-0.23820960521697998,0.7315786480903625
1782776396679171000,5.617171142578125,2.8852415084838867,-0.23366451263427734,0.45780909061431885
1782776396689150500,5.627150390625,2.8429317474365234,-0.09163379669189453,0.26743024587631226
1782776396699100700,5.6371005859375,2.714334487915039,0.0030257701873779297,0.2574594020843506
1782776396710181400,5.648181396484375,2.4489173889160156,0.18812155723571777,0.49830397963523865
1782776396729159200,5.6671591796875,2.0673818588256836,0.6544075012207031,1.6899540424346924
1782776396739169000,5.6771689453125,2.043272018432617,0.7278759479522705,2.4817543029785156
1782776396749148200,5.687148193359375,2.1062774658203125,0.6359424591064453,3.1010687351226807
1782776396759157800,5.69715771484375,2.3906288146972656,0.39160609245300293,3.3450284004211426
1782776396769167600,5.707167724609375,2.8446578979492188,0.018382549285888672,3.286674976348877
1782776396779177200,5.71717724609375,3.095248222351074,-0.33142995834350586,3.081216812133789
1782776396789156600,5.727156494140625,3.1406450271606445,-0.5582535266876221,2.7981667518615723
1782776396799166200,5.737166259765625,2.879884719848633,-0.6461124420166016,2.6161890029907227
1782776396809176000,5.747176025390625,2.1423654556274414,-0.7336333990097046,2.5348281860351562
1782776396819155500,5.757155517578125,1.1581745147705078,-0.8425658941268921,2.3478522300720215
1782776396829165300,5.767165283203125,0.15274906158447266,-0.9356311559677124,1.8810287714004517
1782776396839175000,5.7771748046875,-0.7575340270996094,-1.1716749668121338,1.0806161165237427
1782776396849154000,5.787154052734375,-1.5075836181640625,-1.4317657947540283,0.30363452434539795
1782776396859164000,5.797163818359375,-2.2927231788635254,-1.642675757408142,-0.25338268280029297
1782776396869173500,5.807173583984375,-3.1280946731567383,-1.8239909410476685,-0.6867948174476624
1782776396879153000,5.81715283203125,-3.747530937194824,-1.8626903295516968,-1.0930019617080688
1782776396889162800,5.827162841796875,-4.067314624786377,-1.7920076847076416,-1.4326335191726685
1782776396899112700,5.83711279296875,-4.255486488342285,-1.6544127464294434,-1.6453731060028076
1782776396909243100,5.8472431640625,-4.315028190612793,-1.522573709487915,-1.70566987991333
1782776396919161300,5.857161376953125,-4.323066711425781,-1.3504612445831299,-1.6290210485458374
1782776396929171200,5.867171142578125,-4.292511463165283,-1.1170578002929688,-1.4144747257232666
1782776396939150300,5.877150390625,-4.249810218811035,-0.8613109588623047,-1.0095717906951904
1782776396949160200,5.88716015625,-4.092763900756836,-0.5959739685058594,-0.37971216440200806
1782776396959170000,5.897170166015625,-3.6599292755126953,-0.34432387351989746,0.3344229459762573
1782776396969149200,5.907149169921875,-2.926586627960205,-0.2846405506134033,0.8645516037940979
1782776396979159000,5.917158935546875,-1.939180850982666,-0.3910348415374756,1.3317933082580566
1782776396989109000,5.92710888671875,-0.9846439361572266,-0.4684720039367676,1.6084010601043701
1782776396999239700,5.93723974609375,-0.004433631896972656,-0.5297794342041016,1.7684476375579834
1782776397009158000,5.947157958984375,0.9875593185424805,-0.6718478202819824,1.5874290466308594
1782776397019167500,5.95716748046875,1.9676027297973633,-0.8281071186065674,1.1336281299591064
1782776397029117700,5.96711767578125,2.726069450378418,-1.059082269668579,0.5113050937652588
1782776397039248100,5.977248046875,3.1440200805664062,-1.2238633632659912,-0.12086403369903564
1782776397049166300,5.987166259765625,3.2444534301757812,-1.2321490049362183,-0.5994461178779602
1782776397059176200,5.99717626953125,3.0706005096435547,-1.0998826026916504,-0.8568210601806641
1782776397069155300,6.0071552734375,2.4165773391723633,-0.8592344522476196,-0.6274421215057373
1782776397079165000,6.0171650390625,1.433833122253418,-0.5360910892486572,-0.0862588882446289
1782776397089174800,6.0271748046875,0.3803539276123047,-0.2118520736694336,0.46568429470062256
1782776397099154200,6.037154296875,-0.5584421157836914,0.003919124603271484,0.8492345213890076
1782776397109164000,6.0471640625,-1.4129672050476074,0.11721587181091309,1.179818868637085
1782776397119173600,6.057173583984375,-2.0749921798706055,0.18223977088928223,1.282207727432251
1782776397129153000,6.067153076171875,-2.4456381797790527,0.27420926094055176,1.137062668800354
1782776397139162600,6.07716259765625,-2.619668960571289,0.2975172996520996,0.9668907523155212
1782776397149172500,6.08717236328125,-2.704990863800049,0.2719230651855469,0.8107242584228516
1782776397159151600,6.097151611328125,-2.763911724090576,0.2834789752960205,0.6481326222419739
1782776397169161200,6.1071611328125,-2.707268714904785,0.35205507278442383,0.5920683145523071
1782776397179171000,6.117171142578125,-2.637637138366699,0.3687465190887451,0.566913902759552
1782776397189150500,6.127150390625,-2.549880027770996,0.36588072776794434,0.6246899366378784
1782776397199160300,6.137160400390625,-2.551578998565674,0.4149596691131592,0.644437313079834
1782776397209170200,6.147170166015625,-2.501040458679199,0.47102904319763184,0.5983070731163025
1782776397219149300,6.1571494140625,-2.305171012878418,0.549236536026001,0.5160459876060486
1782776397229159200,6.1671591796875,-1.9238371849060059,0.5938241481781006,0.4814491868019104
1782776397239169000,6.1771689453125,-1.4290599822998047,0.586240291595459,0.44214826822280884
1782776397249148200,6.187148193359375,-1.0577020645141602,0.5355267524719238,0.394023597240448
1782776397259157800,6.19715771484375,-0.7757511138916016,0.4999351501464844,0.3223976492881775
1782776397269167400,6.20716748046875,-0.45410633087158203,0.4826164245605469,0.22067442536354065
1782776397279177200,6.21717724609375,-0.0015916824340820312,0.4400064945220947,0.17949016392230988
1782776397289156600,6.227156494140625,0.5008621215820312,0.41611766815185547,0.06890635937452316
1782776397299166500,6.23716650390625,1.2655296325683594,0.5264663696289062,-0.34151867032051086
1782776397309176000,6.247176025390625,1.912679672241211,0.8181540966033936,-1.0862642526626587
1782776397319155500,6.257155517578125,2.2994909286499023,1.1659834384918213,-1.3724805116653442
1782776397329165000,6.2671650390625,2.2786502838134766,1.4410185813903809,-0.2031974196434021
1782776397339175000,6.2771748046875,2.182642936706543,1.5221803188323975,1.7700541019439697
1782776397349154000,6.287154052734375,2.305169105529785,1.4220993518829346,3.1677756309509277
1782776397359164000,6.297163818359375,2.6496286392211914,1.0673353672027588,3.646907329559326
1782776397379153000,6.31715283203125,3.12137508392334,-0.25948095321655273,2.197544574737549
1782776397389162800,6.327162841796875,3.0964765548706055,-0.8360220193862915,0.8716317415237427
1782776397399172400,6.33717236328125,2.923755645751953,-1.397587537765503,-0.43350863456726074
1782776397409151700,6.34715185546875,2.6613454818725586,-1.7891457080841064,-1.4095172882080078
1782776397419161600,6.35716162109375,2.48452091217041,-2.039456844329834,-2.1458024978637695
1782776397429171200,6.367171142578125,2.378997802734375,-2.168515205383301,-2.5698626041412354
1782776397439150300,6.377150390625,2.060275077819824,-2.0949342250823975,-2.5130951404571533
1782776397449160200,6.38716015625,1.30645751953125,-1.7795418500900269,-1.9227263927459717
1782776397459170000,6.397170166015625,0.5298128128051758,-1.3151133060455322,-1.25510573387146
1782776397469149200,6.407149169921875,-0.061756134033203125,-1.0026350021362305,-0.8476158380508423
1782776397479159000,6.417158935546875,-0.6556720733642578,-0.9047631025314331,-0.7909222841262817
1782776397489168600,6.427168701171875,-1.1039514541625977,-0.8004906177520752,-0.95042884349823
1782776397499148000,6.43714794921875,-1.4815216064453125,-0.7938045263290405,-1.2141785621643066
1782776397509158000,6.447157958984375,-1.8408536911010742,-0.8761894702911377,-1.5952727794647217
1782776397519167500,6.45716748046875,-2.1660685539245605,-1.0231279134750366,-1.7544506788253784
1782776397529177300,6.46717724609375,-2.5390682220458984,-1.2952361106872559,-1.643474817276001
1782776397539156700,6.47715673828125,-2.7793426513671875,-1.5867352485656738,-1.3225898742675781
1782776397549166300,6.487166259765625,-2.484560489654541,-1.7827270030975342,-0.9034733772277832
1782776397559176200,6.49717626953125,-1.6877202987670898,-1.834472894668579,-0.3050863742828369
1782776397569155300,6.5071552734375,-0.3870697021484375,-1.6818149089813232,0.44410979747772217
1782776397579165200,6.517165283203125,0.970423698425293,-1.5786856412887573,1.1240723133087158
1782776397589174800,6.5271748046875,2.2285852432250977,-1.6042141914367676,1.467785358428955
1782776397599154200,6.537154296875,3.3352346420288086,-1.6284184455871582,1.443610668182373
1782776397609164000,6.5471640625,4.155829429626465,-1.748748779296875,1.0328840017318726
1782776397619173600,6.557173583984375,4.214512825012207,-1.9506938457489014,0.3059876561164856
1782776397629153000,6.567153076171875,3.851259231567383,-2.1260807514190674,-0.4541385769844055
1782776397639163000,6.577162841796875,2.925297737121582,-2.2290022373199463,-0.9899615049362183
1782776397649172500,6.58717236328125,1.6979608535766602,-2.098717212677002,-1.0907080173492432
1782776397659151600,6.597151611328125,0.5663642883300781,-1.7904773950576782,-1.0313661098480225
1782776397669161500,6.607161376953125,-0.4129657745361328,-1.5168731212615967,-0.8095056414604187
1782776397679171000,6.617171142578125,-1.3942975997924805,-1.3420519828796387,-0.4048948287963867
1782776397689150500,6.627150390625,-2.2278547286987305,-1.1269967555999756,0.023956000804901123
1782776397699160300,6.637160400390625,-2.8028478622436523,-0.9003230333328247,0.26472359895706177
1782776397709170000,6.647169921875,-3.1350927352905273,-0.7282878160476685,0.4278530776500702
1782776397719149300,6.6571494140625,-3.2282180786132812,-0.5663325786590576,0.5764365196228027
1782776397729159200,6.6671591796875,-3.032705307006836,-0.49160540103912354,0.6305179595947266
1782776397739168800,6.677168701171875,-2.577770709991455,-0.4983710050582886,0.5627996921539307
1782776397749148200,6.687148193359375,-2.0138421058654785,-0.5145484209060669,0.43778374791145325
1782776397759157800,6.69715771484375,-1.4092779159545898,-0.5515626668930054,0.32324057817459106
1782776397769167400,6.70716748046875,-0.9064559936523438,-0.5807007551193237,0.25850367546081543
1782776397779177200,6.71717724609375,-0.5952396392822266,-0.6036219596862793,0.17552754282951355
1782776397789156600,6.727156494140625,-0.42688751220703125,-0.6207072734832764,0.16315218806266785
1782776397799166200,6.737166259765625,-0.38910770416259766,-0.6160359382629395,0.10354763269424438
1782776397809176000,6.747176025390625,-0.36472415924072266,-0.5963313579559326,0.11074936389923096
1782776397819155500,6.757155517578125,-0.29909420013427734,-0.5452791452407837,0.12088474631309509
1782776397829165300,6.767165283203125,-0.29772377014160156,-0.5074578523635864,0.21900266408920288
1782776397839175000,6.7771748046875,-0.40848827362060547,-0.40134692192077637,0.3867254853248596
1782776397849154000,6.787154052734375,-0.47435760498046875,-0.21897530555725098,0.5446125268936157
1782776397859164000,6.797163818359375,-0.4637317657470703,-0.07594513893127441,0.7190635800361633
1782776397869173500,6.807173583984375,-0.28836631774902344,0.0006613731384277344,0.8602032661437988
1782776397879153000,6.81715283203125,-0.036834716796875,0.013291358947753906,0.9436123967170715
1782776397889162800,6.827162841796875,0.22200489044189453,-0.009065628051757812,0.9770311117172241
1782776397899172400,6.83717236328125,0.4484672546386719,-0.012378215789794922,0.9756571650505066
1782776397909151700,6.84715185546875,0.6435012817382812,-0.023932218551635742,0.9708795547485352
1782776397919161300,6.857161376953125,0.7549705505371094,0.07502102851867676,0.637631893157959
1782776397929171200,6.867171142578125,0.47124671936035156,0.22486376762390137,0.1285213828086853
1782776397939150600,6.877150634765625,-0.12220954895019531,0.13916802406311035,0.019066154956817627
1782776397949160200,6.88716015625,-0.7313518524169922,0.06383848190307617,0.16626650094985962
1782776397959170000,6.897170166015625,-1.0283498764038086,0.11948871612548828,0.6521523594856262
1782776397969149200,6.907149169921875,-0.8317794799804688,0.08135628700256348,1.5552587509155273
1782776397979159000,6.917158935546875,0.11806201934814453,-0.08005142211914062,2.264784574508667
1782776397989168600,6.927168701171875,1.3570423126220703,-0.5059462785720825,2.471132755279541
1782776397999148000,6.93714794921875,2.4215126037597656,-0.9721996784210205,2.3341827392578125
1782776398009158000,6.947157958984375,3.233449935913086,-1.2851579189300537,1.7616891860961914
1782776398019167700,6.957167724609375,3.7865161895751953,-1.5273301601409912,0.91963130235672
1782776398029177300,6.96717724609375,3.906582832336426,-1.7808916568756104,0.03753405809402466
1782776398039156700,6.97715673828125,3.2576522827148438,-1.9762855768203735,-0.7351846098899841
1782776398049166300,6.987166259765625,2.1635828018188477,-1.9949017763137817,-1.089239478111267
1782776398059176200,6.99717626953125,1.0559148788452148,-1.8467025756835938,-1.1963715553283691
1782776398069155300,7.0071552734375,0.11928367614746094,-1.5949749946594238,-1.126232624053955
1782776398079165200,7.017165283203125,-0.6367788314819336,-1.368910551071167,-0.8107602596282959
1782776398089174800,7.0271748046875,-1.361069679260254,-1.0883979797363281,-0.38865965604782104
1782776398099154200,7.037154296875,-1.9010987281799316,-0.7364107370376587,-0.09834462404251099
1782776398109164000,7.0471640625,-2.183643341064453,-0.46813297271728516,0.1565074324607849
1782776398119173600,7.057173583984375,-2.1125965118408203,-0.25146496295928955,0.4752509593963623
1782776398129153000,7.067153076171875,-1.8305878639221191,-0.0988004207611084,0.923168957233429
1782776398139163000,7.077162841796875,-1.493844985961914,0.00430607795715332,1.412014365196228
1782776398149172500,7.08717236328125,-1.183868408203125,0.016992568969726562,1.916618824005127
1782776398159151600,7.097151611328125,-0.7714557647705078,0.02159881591796875,2.41799259185791
1782776398169161500,7.107161376953125,-0.14399337768554688,-0.00414729118347168,2.7736964225769043
1782776398179171000,7.117171142578125,0.5234241485595703,-0.10431480407714844,2.9134092330932617
1782776398189150500,7.127150390625,1.1010169982910156,-0.26220929622650146,2.856997013092041
1782776398199160300,7.137160400390625,1.4755115509033203,-0.41883254051208496,2.6544315814971924
1782776398209170200,7.147170166015625,1.6897497177124023,-0.5506085157394409,2.222407817840576
1782776398219149300,7.1571494140625,1.8127288818359375,-0.6817874908447266,1.712911605834961
1782776398229159200,7.1671591796875,1.8162603378295898,-0.8437423706054688,1.1585125923156738
1782776398239169000,7.1771689453125,1.6798458099365234,-1.054030179977417,0.6250423192977905
1782776398249148200,7.187148193359375,1.2563056945800781,-1.1395447254180908,0.05439680814743042
1782776398259157800,7.19715771484375,0.568603515625,-1.2100402116775513,-0.33670708537101746
1782776398269167400,7.20716748046875,-0.21476078033447266,-1.1555829048156738,-0.6554059982299805
1782776398279177200,7.21717724609375,-0.2166004180908203,-0.9812189340591431,-0.6321970820426941
1782776398289156600,7.227156494140625,-1.4762954711914062,-0.6784181594848633,-0.3481888473033905
1782776398299166500,7.23716650390625,-2.275567054748535,-0.5475842952728271,-0.2423180341720581
1782776398309176000,7.247176025390625,-2.6271414756774902,-0.38440871238708496,0.008634984493255615
1782776398319155500,7.257155517578125,-2.9886393547058105,-0.3570377826690674,0.3576023578643799
1782776398329165300,7.267165283203125,-3.0537033081054688,-0.1962287425994873,0.5001261830329895
1782776398339175000,7.2771748046875,-2.5901384353637695,0.08886909484863281,0.4409869909286499
1782776398349154000,7.287154052734375,-1.736699104309082,0.2677931785583496,0.285025954246521
1782776398359164000,7.297163818359375,-1.0758981704711914,-0.07196307182312012,0.6152200102806091
