time,seconds_elapsed,z,y,x
1782776370149187600,0.1581875,3.593400001525879,-0.9120750427246094,-1.013266921043396
1782776370159167000,0.1681669921875,3.6729211807250977,-1.0303133726119995,-1.485783338546753
1782776370169176800,0.1781767578125,3.3267459869384766,-1.095611572265625,-1.6266801357269287
1782776370179186400,0.1881865234375,2.4248037338256836,-1.1480199098587036,-1.3172115087509155
1782776370189165600,0.19816552734375,1.1215124130249023,-1.0260834693908691,-0.9859381318092346
1782776370199175400,0.208175537109375,0.03122711181640625,-0.8853234052658081,-0.7952249050140381
1782776370209185000,0.21818505859375,-0.9406499862670898,-0.8146753311157227,-0.7260682582855225
1782776370219164400,0.228164306640625,-1.7451939582824707,-0.7610765695571899,-0.7354043126106262
1782776370229174300,0.23817431640625,-2.402925491333008,-0.7139291763305664,-0.8504905700683594
1782776370239184100,0.24818408203125,-2.901092529296875,-0.6025631427764893,-0.937741756439209
1782776370249163300,0.258163330078125,-3.188570499420166,-0.555891752243042,-1.1319082975387573
1782776370259173000,0.268173095703125,-3.2095489501953125,-0.5303380489349365,-1.2660173177719116
1782776370269182700,0.2781826171875,-3.2235045433044434,-0.6747653484344482,-1.3908865451812744
1782776370279192600,0.288192626953125,-2.9581146240234375,-0.8275017738342285,-1.290433645248413
1782776370289171700,0.298171630859375,-2.401719570159912,-0.9088376760482788,-1.0162087678909302
1782776370299181600,0.308181640625,-1.4582843780517578,-0.9267505407333374,-0.5547423958778381
1782776370309191400,0.31819140625,-0.6681585311889648,-0.8593325614929199,-0.12626972794532776
1782776370319170600,0.328170654296875,0.10610198974609375,-0.8869179487228394,-0.023650288581848145
1782776370329180400,0.338180419921875,0.6952342987060547,-0.9644888639450073,-0.1522909700870514
1782776370339190000,0.34818994140625,1.1095542907714844,-1.0504107475280762,-0.4117950201034546
1782776370349169400,0.35816943359375,1.2702617645263672,-1.0992547273635864,-0.6945832371711731
1782776370359179300,0.36817919921875,1.2231254577636719,-1.159625768661499,-0.9531503915786743
1782776370369188900,0.37818896484375,0.9551658630371094,-1.2056622505187988,-1.217551350593567
1782776370379168300,0.388168212890625,0.5457191467285156,-1.2145235538482666,-1.3647972345352173
1782776370389178000,0.39817822265625,0.07685184478759766,-1.1154134273529053,-1.4289793968200684
1782776370399187700,0.408187744140625,-0.41721248626708984,-0.973621129989624,-1.4916917085647583
1782776370409166800,0.418166748046875,-0.7589921951293945,-0.834372878074646,-1.4654560089111328
1782776370419176700,0.4281767578125,-1.0201969146728516,-0.689899206161499,-1.3313751220703125
1782776370429186300,0.438186279296875,-1.1912670135498047,-0.5707612037658691,-1.1310722827911377
1782776370439165700,0.448165771484375,-1.2844266891479492,-0.41849422454833984,-0.9709784984588623
1782776370449175600,0.458175537109375,-1.2880258560180664,-0.31824660301208496,-0.8508148193359375
1782776370459185200,0.46818505859375,-1.2718009948730469,-0.21883797645568848,-0.7886508703231812
1782776370469164500,0.47816455078125,-1.2670936584472656,-0.13405299186706543,-0.7351996898651123
1782776370479174400,0.48817431640625,-1.2764701843261719,-0.07538986206054688,-0.6389594078063965
1782776370489184300,0.498184326171875,-1.1995248794555664,0.01759171485900879,-0.5954546928405762
1782776370499163400,0.508163330078125,-1.0078973770141602,0.1150665283203125,-0.498911589384079
1782776370509173000,0.518173095703125,-0.69683837890625,0.21011638641357422,-0.38527393341064453
1782776370519182600,0.5281826171875,-0.3427400588989258,0.36193156242370605,-0.19209545850753784
1782776370529192400,0.5381923828125,0.13146305084228516,0.45424842834472656,-0.03675204515457153
1782776370539171800,0.548171875,0.615997314453125,0.5335476398468018,0.13960134983062744
1782776370549181400,0.558181396484375,0.9222660064697266,0.5787041187286377,0.23019623756408691
1782776370559191300,0.56819140625,1.132126808166504,0.5951230525970459,0.31774455308914185
1782776370569170700,0.578170654296875,1.166834831237793,0.619441032409668,0.28295087814331055
1782776370579180500,0.5881806640625,1.0216598510742188,0.6173748970031738,0.1708073616027832
1782776370589190100,0.598190185546875,0.7544651031494141,0.6331841945648193,0.0626935362815857
1782776370599169300,0.608169189453125,0.39845848083496094,0.6222732067108154,0.06955516338348389
1782776370609179100,0.61817919921875,-0.048969268798828125,0.6384949684143066,0.06847631931304932
1782776370619188700,0.628188720703125,-0.40876102447509766,0.6573941707611084,0.14061307907104492
1782776370629168000,0.638168212890625,-0.6674118041992188,0.6947276592254639,0.2519407272338867
1782776370639178000,0.648177978515625,-0.8085765838623047,0.7335739135742188,0.34467387199401855
1782776370649187600,0.6581875,-0.8610105514526367,0.7678039073944092,0.5237709283828735
1782776370659167000,0.6681669921875,-0.8324012756347656,0.7319321632385254,0.6548875570297241
1782776370669176800,0.6781767578125,-0.7258672714233398,0.6492722034454346,0.7266446352005005
1782776370679186400,0.6881865234375,-0.5161409378051758,0.48834848403930664,0.6645408868789673
1782776370689165600,0.69816552734375,-0.0863962173461914,0.3477044105529785,0.5423280000686646
1782776370699175400,0.708175537109375,0.2542085647583008,0.24367237091064453,0.3840998411178589
1782776370709185000,0.71818505859375,0.5041360855102539,0.275604248046875,0.034337520599365234
1782776370719164400,0.728164306640625,0.5105819702148438,0.6293094158172607,-0.33232665061950684
1782776370729174300,0.73817431640625,0.2529315948486328,0.6884772777557373,-0.31452715396881104
1782776370739183900,0.748183837890625,-0.099639892578125,0.6768317222595215,0.15970420837402344
1782776370749163300,0.758163330078125,-0.27051448822021484,0.7922532558441162,0.6862508058547974
1782776370759173000,0.768173095703125,-0.07726764678955078,1.0756704807281494,1.144203543663025
1782776370769182700,0.7781826171875,0.4258089065551758,1.2988154888153076,1.6735750436782837
1782776370779192600,0.788192626953125,0.9637289047241211,1.195223093032837,2.0459201335906982
1782776370789171700,0.798171630859375,1.427419662475586,0.9557168483734131,2.1378121376037598
1782776370799181600,0.808181640625,1.7621593475341797,0.718693733215332,2.0044517517089844
1782776370809191400,0.81819140625,1.8425025939941406,0.5378203392028809,1.7409909963607788
1782776370819170600,0.828170654296875,1.6576957702636719,0.36839795112609863,1.4911879301071167
1782776370829180400,0.838180419921875,1.4229965209960938,0.20711159706115723,1.0887576341629028
1782776370839190000,0.84818994140625,1.1700820922851562,0.06813287734985352,0.731791615486145
1782776370849169400,0.85816943359375,1.0437088012695312,-0.10922074317932129,0.4044579267501831
1782776370859179300,0.86817919921875,0.9853782653808594,-0.30475306510925293,-0.03595602512359619
1782776370869188900,0.87818896484375,0.8695030212402344,-0.5780727863311768,-0.5077693462371826
1782776370879168300,0.888168212890625,0.6087560653686523,-0.7715849876403809,-0.9231036901473999
1782776370889178000,0.89817822265625,0.19000530242919922,-0.8757390975952148,-1.187415361404419
1782776370899187700,0.908187744140625,-0.26351165771484375,-0.8769681453704834,-1.2421319484710693
1782776370909166800,0.918166748046875,-0.609375,-0.7918441295623779,-1.1217737197875977
1782776370919176700,0.9281767578125,-0.8589744567871094,-0.639660120010376,-0.7927248477935791
1782776370929186300,0.938186279296875,-0.9662399291992188,-0.48169541358947754,-0.32664549350738525
1782776370939165700,0.948165771484375,-1.0062408447265625,-0.339465856552124,0.1303945779800415
1782776370949175600,0.958175537109375,-1.084062099456787,-0.22440767288208008,0.4904695749282837
1782776370959185400,0.968185302734375,-1.1136274337768555,-0.12847280502319336,0.7621017694473267
1782776370969164500,0.97816455078125,-1.1018643379211426,-0.08679032325744629,0.932325005531311
1782776370979174400,0.98817431640625,-1.0155539512634277,-0.1171731948852539,0.9196228981018066
1782776370989184000,0.99818408203125,-0.8445258140563965,-0.3036658763885498,0.6769417524337769
1782776370999163100,1.0081630859375,-0.6886053085327148,-0.5324597358703613,0.24928772449493408
1782776371009173000,1.018173095703125,-0.588958740234375,-0.756441593170166,-0.2236422300338745
1782776371019182600,1.0281826171875,-0.5734043121337891,-0.9852039813995361,-0.7243140935897827
1782776371029192400,1.0381923828125,-0.6232938766479492,-1.2364273071289062,-1.2709052562713623
1782776371039171800,1.048171875,-0.7508220672607422,-1.4424424171447754,-1.802073359489441
1782776371049181400,1.058181396484375,-0.8924875259399414,-1.520655632019043,-2.080625295639038
1782776371059191300,1.06819140625,-1.0943703651428223,-1.4636106491088867,-2.18762469291687
1782776371069170700,1.078170654296875,-1.3194355964660645,-1.368344783782959,-2.1431968212127686
1782776371079180500,1.0881806640625,-1.5358467102050781,-1.2614479064941406,-2.0109925270080566
1782776371089190100,1.098190185546875,-1.6741585731506348,-1.0874290466308594,-1.756792664527893
1782776371099169300,1.108169189453125,-1.7534680366516113,-0.8747341632843018,-1.4587165117263794
1782776371109179100,1.11817919921875,-1.757432460784912,-0.6777865886688232,-1.180917739868164
1782776371119188700,1.128188720703125,-1.7778887748718262,-0.46173930168151855,-0.9241472482681274
1782776371129168100,1.138168212890625,-1.7083396911621094,-0.2699549198150635,-0.5570296049118042
1782776371139178000,1.148177978515625,-1.7060999870300293,-0.04721236228942871,-0.2028719186782837
1782776371149187600,1.1581875,-1.606992244720459,0.1192936897277832,-0.053157925605773926
1782776371159167000,1.1681669921875,-1.4508380889892578,0.262615442276001,0.05393099784851074
1782776371169176800,1.1781767578125,-1.315321445465088,0.31226634979248047,0.05406951904296875
1782776371179186400,1.1881865234375,-1.2603583335876465,0.27498936653137207,0.02044224739074707
1782776371189165600,1.19816552734375,-1.097193717956543,0.29012441635131836,-0.11031734943389893
1782776371199175400,1.208175537109375,-0.8761672973632812,0.33181309700012207,-0.2713519334793091
1782776371209185000,1.21818505859375,-0.6307334899902344,0.35001611709594727,-0.33344340324401855
1782776371219164400,1.228164306640625,-0.3766355514526367,0.35239219665527344,-0.3472881317138672
1782776371229174300,1.23817431640625,-0.13909435272216797,0.26272034645080566,-0.47418212890625
1782776371239184000,1.248183837890625,0.2006359100341797,0.2768223285675049,-0.631351888179779
1782776371249163300,1.258163330078125,0.5906171798706055,0.37133121490478516,-0.646173357963562
1782776371259173000,1.268173095703125,0.8461627960205078,0.42512941360473633,-0.5703023672103882
1782776371269182700,1.2781826171875,0.9225625991821289,0.45097780227661133,-0.4700698256492615
1782776371279192600,1.288192626953125,0.885228157043457,0.4856419563293457,-0.352413535118103
1782776371289172000,1.298171875,0.9234762191772461,0.47618913650512695,-0.41276872158050537
1782776371299181600,1.308181640625,1.0828142166137695,0.486037015914917,-0.5044207572937012
1782776371309191400,1.31819140625,1.3314590454101562,0.42850780487060547,-0.611740231513977
1782776371319170600,1.328170654296875,1.4940319061279297,0.5052785873413086,-0.7683832049369812
1782776371329180400,1.338180419921875,1.408665657043457,0.7769167423248291,-1.137641429901123
1782776371339190000,1.34818994140625,1.0013160705566406,1.035200834274292,-1.4615447521209717
1782776371349169400,1.35816943359375,0.5655145645141602,1.1959564685821533,-1.4632090330123901
1782776371359179300,1.36817919921875,0.30784034729003906,1.263540506362915,-0.8814929723739624
1782776371369188900,1.37818896484375,0.4704294204711914,1.3792145252227783,0.27395594120025635
1782776371379168300,1.388168212890625,0.9604377746582031,1.4420335292816162,1.5613445043563843
1782776371389178000,1.39817822265625,1.9053020477294922,1.3887338638305664,2.4162421226501465
1782776371399187700,1.408187744140625,3.123785972595215,1.2141051292419434,2.756072998046875
1782776371409166800,1.418166748046875,3.9350881576538086,0.7896823883056641,2.781637191772461
1782776371419176700,1.4281767578125,3.755831718444824,0.3243684768676758,2.758272647857666
1782776371429186300,1.438186279296875,3.6812562942504883,-0.1124415397644043,1.6450384855270386
1782776371439165700,1.448165771484375,3.240966796875,-0.5835509300231934,0.35508501529693604
1782776371449175600,1.458175537109375,2.529705047607422,-1.1971813440322876,-0.7062177658081055
1782776371459185200,1.46818505859375,1.5069713592529297,-1.5940288305282593,-1.4677785634994507
1782776371469164500,1.47816455078125,0.4628582000732422,-1.6946561336517334,-1.7279870510101318
1782776371479174400,1.48817431640625,-0.4906473159790039,-1.6072691679000854,-1.6636199951171875
1782776371489184000,1.49818408203125,-1.160440444946289,-1.3409522771835327,-1.4156259298324585
1782776371499163100,1.5081630859375,-1.6695070266723633,-1.0995551347732544,-1.1733591556549072
1782776371509173000,1.518173095703125,-2.007904529571533,-0.8666613101959229,-0.9551721215248108
1782776371519182600,1.5281826171875,-2.141185760498047,-0.6451470851898193,-0.7096682786941528
1782776371529192400,1.5381923828125,-2.1745924949645996,-0.45096802711486816,-0.4947790801525116
1782776371539171800,1.548171875,-2.127073287963867,-0.4009678363800049,-0.4014033079147339
1782776371549181400,1.558181396484375,-2.0559401512145996,-0.47995805740356445,-0.4662710726261139
1782776371559191300,1.56819140625,-1.9378795623779297,-0.6432969570159912,-0.7245070338249207
1782776371569170700,1.578170654296875,-1.8619928359985352,-0.8224456310272217,-0.8425734043121338
1782776371579180300,1.58818017578125,-1.7764782905578613,-1.0120484828948975,-0.6938785314559937
1782776371589190100,1.598190185546875,-1.5146970748901367,-1.0169601440429688,-0.30344897508621216
1782776371599169300,1.608169189453125,-0.900761604309082,-0.8179528713226318,0.1846468150615692
1782776371609179000,1.618178955078125,-0.15105724334716797,-0.6289188861846924,0.6860398054122925
1782776371619188700,1.628188720703125,0.6384735107421875,-0.4363527297973633,1.2429735660552979
1782776371628696600,1.637696533203125,1.4250726699829102,-0.3081843852996826,1.6675338745117188
1782776371638706400,1.64770654296875,1.9255523681640625,-0.324434757232666,1.6588574647903442
1782776371648716000,1.657716064453125,2.146670341491699,-0.4264395236968994,1.4594690799713135
1782776371658695400,1.6676953125,1.772017478942871,-0.6690738201141357,1.0214810371398926
1782776371668705300,1.677705322265625,1.034907341003418,-0.9422430992126465,0.3439214825630188
1782776371678715000,1.68771484375,0.21029949188232422,-1.151662826538086,-0.28682971000671387
1782776371688694300,1.6976943359375,-0.6940584182739258,-1.2601127624511719,-0.7207240462303162
1782776371698704100,1.7077041015625,-1.4514427185058594,-1.3018476963043213,-1.0243711471557617
1782776371708713700,1.717713623046875,-2.0187416076660156,-1.2858147621154785,-1.1213003396987915
1782776371718692900,1.72769287109375,-2.407181739807129,-1.1992337703704834,-1.0381221771240234
1782776371728702700,1.73770263671875,-2.7045111656188965,-1.091048240661621,-0.8346880674362183
1782776371738712300,1.74771240234375,-2.912121295928955,-0.9319524765014648,-0.6254758238792419
1782776371748691700,1.757691650390625,-2.969461441040039,-0.764040470123291,-0.4544615149497986
1782776371758701600,1.76770166015625,-2.9193201065063477,-0.5853338241577148,-0.288920134305954
1782776371768711200,1.777711181640625,-2.6993813514709473,-0.4606349468231201,-0.15850555896759033
1782776371778721000,1.787720947265625,-2.484297275543213,-0.426558256149292,-0.049582064151763916
1782776371788700400,1.797700439453125,-2.171069622039795,-0.4190852642059326,-0.08855563402175903
1782776371798710000,1.8077099609375,-1.809560775756836,-0.4179115295410156,-0.16896498203277588
1782776371808720000,1.817719970703125,-1.4162168502807617,-0.3711733818054199,-0.13711905479431152
1782776371818699300,1.82769921875,-1.0887842178344727,-0.3642768859863281,-0.04074454307556152
1782776371828708900,1.837708984375,-0.8868932723999023,-0.3908967971801758,0.03528237342834473
1782776371838718700,1.84771875,-0.7580671310424805,-0.32674241065979004,0.08450311422348022
1782776371848697900,1.85769775390625,-0.592738151550293,-0.2568399906158447,0.139617919921875
1782776371858707500,1.86770751953125,-0.30039119720458984,-0.09842753410339355,0.2866218686103821
1782776371868717300,1.87771728515625,0.06839752197265625,0.11664414405822754,0.47257184982299805
1782776371878696700,1.88769677734375,0.47551536560058594,0.22109460830688477,0.6759096384048462
1782776371888706300,1.897706298828125,0.7998771667480469,0.22435736656188965,0.7966256141662598
1782776371898716200,1.907716064453125,1.0791244506835938,0.16118597984313965,0.824985146522522
1782776371908695600,1.917695556640625,1.3520822525024414,0.03801250457763672,0.7471187114715576
1782776371918705200,1.927705078125,1.6353950500488281,-0.05039048194885254,0.5972734689712524
1782776371928715000,1.937715087890625,1.9530401229858398,-0.12396073341369629,0.4915095567703247
1782776371938694100,1.947694091796875,2.0703353881835938,-0.10685038566589355,0.4698309898376465
1782776371948704000,1.9577041015625,1.8938426971435547,-0.026866436004638672,0.08323907852172852
1782776371958713600,1.967713623046875,1.5213098526000977,0.21818089485168457,-0.37402623891830444
1782776371968693000,1.97769287109375,0.9353675842285156,0.43794751167297363,-0.5051116943359375
1782776371978702800,1.987702880859375,0.2087564468383789,0.604964017868042,-0.2112208604812622
1782776371988712400,1.99771240234375,-0.2603874206542969,0.7793102264404297,0.6303931474685669
1782776371998691800,2.00769189453125,-0.31210803985595703,1.0497322082519531,1.6294463872909546
1782776372008701700,2.01770166015625,0.2732686996459961,1.364732265472412,2.494094133377075
1782776372018711300,2.027711181640625,1.2942495346069336,1.4686572551727295,2.814239025115967
1782776372028721200,2.03772119140625,2.477328300476074,1.2706332206726074,2.7710680961608887
1782776372038700300,2.0477001953125,3.435788154602051,0.7858262062072754,2.3437647819519043
1782776372048710000,2.0577099609375,4.106100082397461,0.16312122344970703,1.6842429637908936
1782776372058719700,2.0677197265625,4.1855573654174805,-0.4022188186645508,0.687512993812561
1782776372068699100,2.07769921875,3.7265167236328125,-0.8852438926696777,-0.20228075981140137
1782776372078709000,2.087708984375,2.913463592529297,-1.1696813106536865,-0.8932478427886963
1782776372088718600,2.097718505859375,2.0684728622436523,-1.1109470129013062,-1.2676960229873657
1782776372098698000,2.107697998046875,1.6078615188598633,-0.9157929420471191,-1.1866990327835083
1782776372108707800,2.117707763671875,1.3037166595458984,-0.7753911018371582,-0.7290187478065491
1782776372118717400,2.127717529296875,1.055048942565918,-0.6493406295776367,-0.0599895715713501
1782776372128696600,2.137696533203125,0.779266357421875,-0.5582237243652344,0.5055155754089355
1782776372138706200,2.1477060546875,0.4362764358520508,-0.4554600715637207,0.8956444263458252
1782776372148716000,2.157716064453125,-0.004779815673828125,-0.3795735836029053,1.0391066074371338
1782776372158695400,2.1676953125,-0.4528799057006836,-0.3811800479888916,1.0824804306030273
1782776372168705000,2.177705078125,-0.8938121795654297,-0.5031929016113281,1.1299618482589722
1782776372178715000,2.18771484375,-1.2921009063720703,-0.6895294189453125,1.1854565143585205
1782776372188694300,2.1976943359375,-1.6865220069885254,-0.9036016464233398,1.2274020910263062
1782776372198704000,2.2077041015625,-1.9747648239135742,-1.0257396697998047,1.275146722793579
1782776372208713700,2.217713623046875,-2.205167293548584,-1.103886365890503,1.3183999061584473
1782776372218692900,2.22769287109375,-2.3074827194213867,-1.043046474456787,1.464842677116394
1782776372228702700,2.23770263671875,-2.2161026000976562,-0.8632447719573975,1.693698525428772
1782776372238712300,2.24771240234375,-2.074014663696289,-0.7038941383361816,1.9008325338363647
1782776372248691700,2.257691650390625,-1.8513565063476562,-0.5932490825653076,2.03194522857666
1782776372258701600,2.26770166015625,-1.5207223892211914,-0.5177750587463379,2.085815906524658
1782776372268711200,2.277711181640625,-1.2089781761169434,-0.4567430019378662,2.0272650718688965
1782776372278721000,2.287720947265625,-0.9831085205078125,-0.4666881561279297,1.8847477436065674
1782776372288700400,2.297700439453125,-0.7827491760253906,-0.4761998653411865,1.6702417135238647
1782776372298710000,2.3077099609375,-0.6236791610717773,-0.4191586971282959,1.3822747468948364
1782776372308719900,2.317719970703125,-0.5456581115722656,-0.36285400390625,1.1907386779785156
1782776372318699300,2.32769921875,-0.46700096130371094,-0.30612754821777344,1.117005705833435
1782776372328708900,2.337708984375,-0.3961048126220703,-0.18341898918151855,1.1432310342788696
1782776372338718700,2.34771875,-0.29827213287353516,-0.014923095703125,1.2412734031677246
1782776372348697900,2.35769775390625,-0.23983383178710938,0.14090657234191895,1.385565161705017
1782776372358707700,2.367707763671875,-0.16812419891357422,0.2931044101715088,1.5871219635009766
1782776372368717300,2.37771728515625,-0.1239938735961914,0.43150830268859863,1.802740216255188
1782776372378696700,2.38769677734375,-0.12992382049560547,0.5134153366088867,2.0199990272521973
1782776372388706600,2.39770654296875,-0.24677467346191406,0.479320764541626,2.1379642486572266
1782776372398716200,2.407716064453125,-0.5280933380126953,0.4230177402496338,2.1265487670898438
1782776372408695600,2.417695556640625,-0.8716745376586914,0.3671894073486328,1.956052303314209
1782776372418705400,2.427705322265625,-1.2136015892028809,0.28038835525512695,1.6980177164077759
1782776372428715000,2.437715087890625,-1.5382232666015625,0.18657279014587402,1.432234287261963
1782776372438694100,2.447694091796875,-1.8021349906921387,0.10379981994628906,1.1950701475143433
1782776372448704000,2.4577041015625,-2.027921199798584,0.022415637969970703,0.9486851692199707
1782776372458700300,2.4677001953125,-2.209019184112549,-0.05110311508178711,0.7145012617111206
1782776372468693000,2.47769287109375,-2.288114547729492,-0.09419512748718262,0.46296489238739014
1782776372478702800,2.487702880859375,-2.190202236175537,-0.1212611198425293,0.20296227931976318
1782776372488712400,2.49771240234375,-2.100126266479492,-0.16049933433532715,0.015530824661254883
1782776372498691800,2.50769189453125,-2.0023369789123535,-0.14674854278564453,-0.08927583694458008
1782776372508701700,2.51770166015625,-1.9199419021606445,-0.09885835647583008,-0.18310976028442383
1782776372518711600,2.527711669921875,-1.7566137313842773,-0.0779564380645752,-0.3642498254776001
1782776372528721200,2.53772119140625,-1.3826055526733398,-0.07729053497314453,-0.5456228256225586
1782776372538700300,2.5477001953125,-0.8617525100708008,-0.05908632278442383,-0.6591278910636902
1782776372548710000,2.5577099609375,-0.3012056350708008,-0.05563473701477051,-0.7037508487701416
1782776372558719700,2.5677197265625,0.18014144897460938,-0.052440643310546875,-0.6894239783287048
1782776372568699100,2.57769921875,0.49962329864501953,-0.06261658668518066,-0.7614815831184387
1782776372578708700,2.587708740234375,0.6741151809692383,-0.06620621681213379,-0.9410786628723145
1782776372588718600,2.597718505859375,0.7847738265991211,-0.03949260711669922,-1.2667319774627686
1782776372598698000,2.607697998046875,0.8187894821166992,0.109893798828125,-1.5755712985992432
1782776372608707600,2.61770751953125,0.7727451324462891,0.39866113662719727,-1.7296440601348877
1782776372618717400,2.627717529296875,0.4519224166870117,0.4887969493865967,-1.5963313579559326
1782776372628696600,2.637696533203125,0.02599620819091797,0.5251832008361816,-1.0708755254745483
1782776372638706400,2.64770654296875,-0.1361827850341797,0.7017250061035156,-0.04002237319946289
1782776372648716000,2.657716064453125,0.3401908874511719,1.0019078254699707,1.14798903465271
1782776372658695400,2.6676953125,1.5406560897827148,1.2388112545013428,2.248091697692871
1782776372668705300,2.677705322265625,3.076809883117676,1.2795460224151611,3.062096357345581
1782776372678715000,2.68771484375,4.4055938720703125,1.0595974922180176,3.439554214477539
1782776372688694300,2.6976943359375,5.214599609375,0.5999417304992676,3.245150327682495
1782776372698704100,2.7077041015625,5.358111381530762,0.05604863166809082,2.399806499481201
1782776372708713700,2.717713623046875,4.773487091064453,-0.5434415340423584,1.3023505210876465
1782776372718692900,2.72769287109375,3.3641176223754883,-1.234208583831787,0.1670466661453247
1782776372728702700,2.73770263671875,1.9575090408325195,-1.6576201915740967,-0.7205267548561096
1782776372738712600,2.747712646484375,0.8692083358764648,-1.7697937488555908,-1.4322662353515625
1782776372748691700,2.757691650390625,0.0692138671875,-1.7077546119689941,-1.694772481918335
1782776372758701600,2.76770166015625,-0.5106840133666992,-1.6019757986068726,-1.4465174674987793
1782776372768711200,2.777711181640625,-0.963221549987793,-1.4893121719360352,-0.8948855996131897
1782776372778721000,2.787720947265625,-1.4026904106140137,-1.3550167083740234,-0.48099833726882935
1782776372788700400,2.797700439453125,-1.8203926086425781,-1.2228715419769287,-0.341012179851532
1782776372798710000,2.8077099609375,-2.219383716583252,-1.0219974517822266,-0.3259258270263672
1782776372808720000,2.817719970703125,-2.4454903602600098,-0.8145372867584229,-0.29096344113349915
1782776372818699300,2.82769921875,-2.6553425788879395,-0.7696454524993896,-0.1665138602256775
1782776372828708900,2.837708984375,-2.7931160926818848,-0.7512454986572266,0.08441364765167236
1782776372838718700,2.84771875,-2.8356924057006836,-0.6755988597869873,0.45076119899749756
1782776372848697900,2.85769775390625,-2.506253242492676,-0.4083137512207031,0.7919521331787109
1782776372858707500,2.86770751953125,-1.5788087844848633,-0.0233762264251709,1.1835893392562866
1782776372868717300,2.87771728515625,-0.37518882751464844,0.2513718605041504,1.780742883682251
1782776372878696700,2.88769677734375,1.099517822265625,0.3363521099090576,2.3330602645874023
1782776372888706300,2.897706298828125,2.6443729400634766,0.23794245719909668,2.736172914505005
1782776372898716200,2.907716064453125,3.9226694107055664,-0.07033324241638184,2.609916925430298
1782776372908695600,2.917695556640625,4.51800537109375,-0.5426986217498779,2.0730886459350586
1782776372918705200,2.927705078125,4.479270935058594,-1.0226011276245117,1.2526664733886719
1782776372928715000,2.937715087890625,3.788506507873535,-1.4434633255004883,0.21873092651367188
1782776372938694100,2.947694091796875,2.641019821166992,-1.708664894104004,-0.4423710107803345
1782776372948704000,2.9577041015625,1.3382587432861328,-1.8559577465057373,-0.7922385334968567
1782776372958713600,2.967713623046875,0.20626544952392578,-1.8284633159637451,-1.0459957122802734
1782776372968693000,2.97769287109375,-0.6412878036499023,-1.639756202697754,-1.0618292093276978
1782776372978702800,2.987702880859375,-1.2580437660217285,-1.5065884590148926,-0.8492814302444458
1782776372988712400,2.99771240234375,-1.7624244689941406,-1.3964874744415283,-0.44581013917922974
1782776372998691800,3.00769189453125,-2.143756866455078,-1.3302032947540283,-0.16473835706710815
1782776373008701700,3.01770166015625,-2.359917163848877,-1.2146525382995605,0.0038222670555114746
1782776373018711300,3.027711181640625,-2.527703285217285,-1.0807719230651855,0.13456940650939941
1782776373028721200,3.03772119140625,-2.5025763511657715,-0.9735610485076904,0.248981773853302
1782776373038700300,3.0477001953125,-2.550447940826416,-0.9888613224029541,0.26354676485061646
1782776373048710000,3.0577099609375,-2.656979560852051,-1.00254225730896,0.2939874529838562
1782776373058719700,3.0677197265625,-2.7027664184570312,-1.0048658847808838,0.2128487229347229
1782776373068699100,3.07769921875,-2.54964017868042,-1.0112454891204834,0.11369693279266357
1782776373078709000,3.087708984375,-2.3351144790649414,-1.0718412399291992,0.10159564018249512
1782776373088718600,3.097718505859375,-2.0956578254699707,-1.1973776817321777,0.11312007904052734
1782776373098698000,3.107697998046875,-1.7405924797058105,-1.2342519760131836,0.1762406826019287
1782776373108707800,3.117707763671875,-1.3251571655273438,-1.2038936614990234,0.24018234014511108
1782776373118717400,3.127717529296875,-0.7414083480834961,-1.1236495971679688,0.27770745754241943
1782776373128696600,3.137696533203125,-0.29532718658447266,-1.0690088272094727,0.33160650730133057
1782776373138706200,3.1477060546875,-0.024056434631347656,-1.0858259201049805,0.4467526078224182
1782776373148716000,3.157716064453125,0.06972503662109375,-1.061446189880371,0.551447331905365
1782776373158695400,3.1676953125,0.213897705078125,-0.9266655445098877,0.7536830306053162
1782776373168705000,3.177705078125,0.6929559707641602,-0.6523532867431641,1.270601511001587
1782776373178715000,3.18771484375,1.5734367370605469,-0.28301024436950684,2.0687403678894043
1782776373188694300,3.1976943359375,2.532571792602539,-0.15526056289672852,2.851679563522339
1782776373198704000,3.2077041015625,3.3924379348754883,-0.15652942657470703,3.422713041305542
1782776373208713700,3.217713623046875,4.15406608581543,-0.27832913398742676,3.798692464828491
1782776373218692900,3.22769287109375,4.513555526733398,-0.5428810119628906,3.864511489868164
1782776373228702700,3.23770263671875,4.412789344787598,-0.8929107189178467,3.6181468963623047
1782776373238712600,3.247712646484375,3.6993303298950195,-1.3555400371551514,3.2904086112976074
1782776373248691700,3.257691650390625,2.3809423446655273,-1.6663527488708496,2.8536388874053955
1782776373258701600,3.26770166015625,1.2121686935424805,-1.7984766960144043,2.5092625617980957
1782776373268711200,3.277711181640625,0.20220279693603516,-1.8409290313720703,2.3685007095336914
1782776373278721000,3.287720947265625,-0.6043920516967773,-1.9061570167541504,2.350430965423584
1782776373288700400,3.297700439453125,-1.2508807182312012,-1.999354362487793,2.4350485801696777
1782776373298710000,3.3077099609375,-1.8042926788330078,-2.1985280513763428,2.601532459259033
1782776373308719900,3.317719970703125,-2.2141265869140625,-2.4968442916870117,2.800931453704834
1782776373318699300,3.32769921875,-2.43397855758667,-2.80989408493042,3.017416477203369
1782776373328708900,3.337708984375,-2.5702710151672363,-2.8959097862243652,3.437816619873047
1782776373338718700,3.34771875,-2.3619771003723145,-2.7469608783721924,3.91969633102417
1782776373348697900,3.35769775390625,-1.757713794708252,-2.4844794273376465,4.481747627258301
1782776373358707700,3.367707763671875,-1.1232118606567383,-2.503878116607666,4.760054588317871
1782776373368717300,3.37771728515625,-0.5706977844238281,-2.7681736946105957,4.872677326202393
1782776373378696700,3.38769677734375,-0.20071029663085938,-3.252225875854492,4.6929144859313965
1782776373388706600,3.39770654296875,-0.08476924896240234,-3.801502227783203,4.371476650238037
1782776373398716200,3.407716064453125,0.053295135498046875,-4.238234043121338,3.876375913619995
1782776373408695600,3.417695556640625,0.29213905334472656,-4.545522689819336,3.3296542167663574
1782776373418705400,3.427705322265625,0.5298328399658203,-4.779113292694092,2.708799362182617
1782776373428715000,3.437715087890625,0.8476266860961914,-4.989907264709473,2.153373956680298
1782776373438694400,3.4476943359375,1.2524147033691406,-5.134322166442871,1.7476558685302734
1782776373448704000,3.4577041015625,1.6431760787963867,-5.242013931274414,1.4403531551361084
1782776373458713600,3.467713623046875,2.1958131790161133,-5.329780101776123,1.1994900703430176
1782776373468693000,3.47769287109375,2.712860107421875,-5.259878158569336,1.0264781713485718
1782776373478702800,3.487702880859375,3.242166519165039,-5.172215938568115,0.8256269693374634
1782776373488712400,3.49771240234375,3.6107635498046875,-5.038384437561035,0.6937394142150879
1782776373498691800,3.50769189453125,3.7535057067871094,-4.913113594055176,0.522486686706543
1782776373508701700,3.51770166015625,3.6120729446411133,-4.760441303253174,0.3437328338623047
1782776373518711300,3.527711181640625,3.238292694091797,-4.619772911071777,0.10546183586120605
1782776373528721200,3.53772119140625,2.744114875793457,-4.437310218811035,-0.08072900772094727
1782776373538700300,3.5477001953125,2.296168327331543,-4.262325763702393,-0.25266599655151367
1782776373549739300,3.5587392578125,1.9175338745117188,-4.101853370666504,-0.397341251373291
1782776373568699100,3.57769921875,1.8102731704711914,-3.843945026397705,-0.5985589027404785
1782776373578709000,3.587708984375,2.1775503158569336,-3.7368252277374268,-0.6540131568908691
1782776373588718600,3.597718505859375,2.502560615539551,-3.6765830516815186,-0.7357888221740723
1782776373598698000,3.607697998046875,2.7270994186401367,-3.6055757999420166,-0.8367691040039062
1782776373608707800,3.617707763671875,2.9036121368408203,-3.4925684928894043,-1.004354476928711
1782776373618717400,3.627717529296875,3.0515365600585938,-3.3125433921813965,-1.1617985963821411
1782776373628696600,3.637696533203125,3.0683822631835938,-3.1118664741516113,-1.1447027921676636
1782776373638706200,3.6477060546875,3.0254602432250977,-2.989802837371826,-1.154259443283081
1782776373648716000,3.657716064453125,2.834596633911133,-2.813493251800537,-1.1500046253204346
1782776373658695400,3.6676953125,2.547654151916504,-2.644446849822998,-1.0731632709503174
1782776373668705000,3.677705078125,2.188426971435547,-2.422189235687256,-1.0030944347381592
1782776373678715000,3.68771484375,1.7926883697509766,-2.2514917850494385,-0.9352288246154785
1782776373688694300,3.6976943359375,1.3339662551879883,-2.1031341552734375,-0.9031033515930176
1782776373698704100,3.7077041015625,0.8890705108642578,-2.005843162536621,-0.8448574542999268
1782776373708713700,3.717713623046875,0.44576549530029297,-1.8727940320968628,-0.8295307159423828
1782776373718692900,3.72769287109375,0.04629802703857422,-1.7489187717437744,-0.8525593280792236
1782776373728702700,3.73770263671875,-0.14490413665771484,-1.585351586341858,-0.8453125953674316
1782776373738712600,3.747712646484375,-0.2652864456176758,-1.4301526546478271,-0.8280880451202393
1782776373748691700,3.757691650390625,-0.34380531311035156,-1.326311469078064,-0.7544422149658203
1782776373758701600,3.76770166015625,-0.4609661102294922,-1.2311509847640991,-0.6262922286987305
1782776373768711200,3.777711181640625,-0.5830574035644531,-1.079566478729248,-0.5353341102600098
1782776373778721000,3.787720947265625,-0.7502670288085938,-0.9632236957550049,-0.5232958793640137
1782776373788700400,3.797700439453125,-0.8358440399169922,-0.8550446033477783,-0.4853396415710449
1782776373798710000,3.8077099609375,-0.9116630554199219,-0.8135566711425781,-0.45896196365356445
1782776373808720000,3.817719970703125,-1.0325345993041992,-0.5268230438232422,-0.3332803249359131
1782776373818699300,3.82769921875,-1.0394773483276367,-0.4028172492980957,-0.154005765914917
1782776373828708900,3.837708984375,-0.9528350830078125,-0.27752137184143066,0.00981283187866211
1782776373838718700,3.84771875,-0.7614679336547852,-0.0301973819732666,0.2492368221282959
1782776373848697900,3.85769775390625,-0.5810461044311523,0.15987730026245117,0.5060694217681885
1782776373858707700,3.867707763671875,-0.43521690368652344,0.26459646224975586,0.6652274131774902
1782776373868717300,3.87771728515625,-0.24842357635498047,0.3126649856567383,0.7079370021820068
1782776373878696700,3.88769677734375,-0.028577804565429688,0.29575634002685547,0.5986623764038086
1782776373888706600,3.89770654296875,0.15766525268554688,0.20157647132873535,0.3487255573272705
1782776373898716200,3.907716064453125,0.4048147201538086,0.17258620262145996,0.11896777153015137
1782776373908695600,3.917695556640625,0.6483736038208008,0.1230919361114502,-0.035292625427246094
1782776373918705400,3.927705322265625,0.9167156219482422,0.10563802719116211,-0.08771586418151855
1782776373928715000,3.937715087890625,1.0474309921264648,0.10861349105834961,-0.030176162719726562
1782776373938694100,3.947694091796875,1.0760993957519531,0.14891767501831055,0.06312823295593262
1782776373948704000,3.9577041015625,0.9147119522094727,0.19656062126159668,0.1627061367034912
1782776373958713600,3.967713623046875,0.6644887924194336,0.2114548683166504,0.24875378608703613
1782776373968693000,3.97769287109375,0.3808755874633789,0.2525198459625244,0.43589353561401367
1782776373978702800,3.987702880859375,-0.08926582336425781,0.2942531108856201,0.7397878170013428
1782776373988712400,3.99771240234375,-0.5439882278442383,0.3470277786254883,0.9999630451202393
1782776373998691800,4.00769189453125,-0.9931583404541016,0.389324426651001,1.098672866821289
1782776374008701700,4.01770166015625,-1.4279413223266602,0.30232882499694824,1.0612242221832275
1782776374018711300,4.027711181640625,-1.7113804817199707,0.21025896072387695,0.9445629119873047
1782776374028721200,4.03772119140625,-1.8550500869750977,0.05516648292541504,0.7842068672180176
1782776374038700300,4.0477001953125,-1.6879072189331055,-0.08236432075500488,0.5577187538146973
1782776374048710000,4.0577099609375,-1.431187629699707,-0.17901873588562012,0.5195177793502808
1782776374058719700,4.0677197265625,-1.0734190940856934,-0.29747867584228516,0.418010950088501
1782776374068699100,4.07769921875,-0.5736179351806641,-0.3464081287384033,0.32421839237213135
1782776374078708700,4.087708740234375,-0.3760337829589844,-0.45865797996520996,0.19350719451904297
1782776374088718600,4.097718505859375,-0.35248374938964844,-0.562394380569458,0.047167301177978516
1782776374098698000,4.107697998046875,-0.47777271270751953,-0.6531810760498047,-0.12050676345825195
1782776374108707600,4.11770751953125,-0.6503009796142578,-0.681645393371582,-0.2959667444229126
1782776374118717400,4.127717529296875,-0.7548103332519531,-0.7399513721466064,-0.44947540760040283
1782776374128696600,4.137696533203125,-0.9497518539428711,-0.7010045051574707,-0.643146276473999
1782776374138706400,4.14770654296875,-0.9033689498901367,-0.6679792404174805,-0.7686141729354858
1782776374148716000,4.157716064453125,-0.7711296081542969,-0.7258172035217285,-0.8713064789772034
1782776374158695400,4.1676953125,-0.5750942230224609,-0.7860391139984131,-1.0203876495361328
1782776374168705300,4.177705322265625,-0.3769817352294922,-0.8017349243164062,-1.2443134784698486
1782776374178715000,4.18771484375,-0.3544273376464844,-0.771683931350708,-1.382954716682434
1782776374188694300,4.1976943359375,-0.49108314514160156,-0.6710836887359619,-1.4648869037628174
1782776374198704000,4.2077041015625,-0.7244358062744141,-0.5273630619049072,-1.446305751800537
1782776374208713700,4.217713623046875,-0.910038948059082,-0.3481614589691162,-1.2609606981277466
1782776374218692900,4.22769287109375,-1.092292308807373,-0.24088358879089355,-1.0443980693817139
1782776374228702700,4.23770263671875,-0.8854780197143555,-0.0581049919128418,-0.7311135530471802
1782776374238712600,4.247712646484375,-0.46468544006347656,0.05997657775878906,-0.46225130558013916
1782776374248691700,4.257691650390625,0.06248664855957031,0.029163122177124023,-0.5055242776870728
1782776374258701600,4.26770166015625,0.4155740737915039,-0.1644430160522461,-0.8575519323348999
1782776374268711200,4.277711181640625,0.5548391342163086,-0.39258909225463867,-1.2338258028030396
1782776374278721000,4.287720947265625,0.4546327590942383,-0.5943012237548828,-1.6624021530151367
1782776374288700400,4.297700439453125,0.06858444213867188,-0.7540078163146973,-2.0321502685546875
1782776374298710000,4.3077099609375,-0.6750354766845703,-0.8254811763763428,-2.4270646572113037
1782776374308719900,4.317719970703125,-1.284602165222168,-0.7225713729858398,-2.666198968887329
1782776374318699300,4.32769921875,-1.707934856414795,-0.5780742168426514,-2.8131637573242188
1782776374328708900,4.337708984375,-1.959993839263916,-0.4463369846343994,-2.855618953704834
1782776374338718700,4.34771875,-2.070666790008545,-0.33632540702819824,-2.927800416946411
1782776374348697900,4.35769775390625,-1.9332857131958008,-0.09497237205505371,-2.701594352722168
1782776374358707500,4.36770751953125,-1.7723355293273926,0.22479581832885742,-2.4675145149230957
1782776374368717300,4.37771728515625,-1.5921759605407715,0.44202756881713867,-2.3191170692443848
1782776374378696700,4.38769677734375,-1.1864886283874512,0.7847611904144287,-1.9753937721252441
1782776374388706300,4.397706298828125,-0.7166166305541992,1.032210111618042,-1.752877950668335
1782776374398716200,4.407716064453125,0.040017127990722656,1.372770071029663,-1.5273191928863525
1782776374408695600,4.417695556640625,0.7888574600219727,1.5636773109436035,-1.2604360580444336
1782776374418705200,4.427705078125,1.6725406646728516,1.8169524669647217,-0.9629218578338623
1782776374428715000,4.437715087890625,2.652345657348633,1.9139752388000488,-0.6963983774185181
1782776374438694100,4.447694091796875,3.555570602416992,1.906073808670044,-0.4680894613265991
1782776374448704000,4.4577041015625,4.252243995666504,1.8194704055786133,-0.3305628299713135
1782776374458713600,4.467713623046875,4.587956428527832,1.6676015853881836,-0.3103688955307007
1782776374468693000,4.47769287109375,4.587635040283203,1.527068853378296,-0.4090428352355957
1782776374478702800,4.487702880859375,4.238307952880859,1.3718111515045166,-0.6089729070663452
1782776374488712400,4.49771240234375,3.7070837020874023,1.2712945938110352,-0.9064061641693115
1782776374498691800,4.50769189453125,2.9851531982421875,1.1516456604003906,-1.271203637123108
1782776374508701700,4.51770166015625,2.028304100036621,0.9673910140991211,-1.6863459348678589
1782776374518711300,4.527711181640625,1.1133642196655273,0.8157470226287842,-2.000363349914551
1782776374528721200,4.53772119140625,0.26328563690185547,0.7823147773742676,-2.169806480407715
1782776374538700300,4.5477001953125,-0.4869852066040039,0.8210141658782959,-2.2859690189361572
1782776374549306000,4.55830615234375,-1.1438426971435547,0.8556950092315674,-2.324298620223999
1782776374568699100,4.57769921875,-1.825307846069336,0.9136195182800293,-2.33720326423645
1782776374578709000,4.587708984375,-1.9325776100158691,1.012044906616211,-2.1847081184387207
1782776374588718600,4.597718505859375,-1.9160270690917969,1.096304178237915,-1.9526512622833252
1782776374598698000,4.607697998046875,-1.83375883102417,1.1893155574798584,-1.6426359415054321
1782776374608707800,4.617707763671875,-1.5331683158874512,1.3576397895812988,-1.3709081411361694
1782776374618717400,4.627717529296875,-1.2686948776245117,1.44602370262146,-1.1154781579971313
1782776374628696600,4.637696533203125,-0.9546651840209961,1.530897617340088,-0.9349863529205322
1782776374638706200,4.6477060546875,-0.7020149230957031,1.5148069858551025,-0.8134247064590454
1782776374648716000,4.657716064453125,-0.5395975112915039,1.4740564823150635,-0.713338315486908
1782776374658695400,4.6676953125,-0.44134044647216797,1.415992021560669,-0.6427198648452759
1782776374668705000,4.677705078125,-0.36199378967285156,1.3408243656158447,-0.6074348092079163
1782776374678715000,4.68771484375,-0.24671649932861328,1.2636768817901611,-0.5478041172027588
1782776374688694300,4.6976943359375,-0.1198434829711914,1.133122205734253,-0.5214881896972656
1782776374698704100,4.7077041015625,0.03435516357421875,0.9783730506896973,-0.504362940788269
1782776374708713700,4.717713623046875,0.12476921081542969,0.7822971343994141,-0.5260260701179504
1782776374718692900,4.72769287109375,0.036444664001464844,0.5822765827178955,-0.6008458137512207
1782776374728702700,4.73770263671875,-0.14647674560546875,0.36205005645751953,-0.7694860100746155
1782776374738712600,4.747712646484375,-0.3924722671508789,0.1777794361114502,-0.9497848153114319
1782776374748691700,4.757691650390625,-0.6654462814331055,-0.04216313362121582,-1.2222135066986084
1782776374758701600,4.76770166015625,-0.8385372161865234,-0.1882026195526123,-1.416805386543274
1782776374768711200,4.777711181640625,-0.8939018249511719,-0.4692542552947998,-1.1826621294021606
1782776374778721000,4.787720947265625,-0.9578924179077148,-0.5847866535186768,-1.0617616176605225
1782776374788700400,4.797700439453125,-1.0882482528686523,-0.6947708129882812,-1.046168327331543
1782776374798710000,4.8077099609375,-1.2602267265319824,-0.7483084201812744,-1.0608110427856445
1782776374808720000,4.817719970703125,-1.4057073593139648,-0.7349686622619629,-1.0908442735671997
1782776374818699300,4.82769921875,-1.5164361000061035,-0.7075958251953125,-1.0915769338607788
1782776374828649000,4.83764892578125,-1.495246410369873,-0.6938745975494385,-1.103775978088379
1782776374838779600,4.847779541015625,-1.362290382385254,-0.6420180797576904,-1.0396554470062256
1782776374848638200,4.85763818359375,-1.2037715911865234,-0.6190047264099121,-0.9669055938720703
1782776374858709000,4.867708984375,-1.0313072204589844,-0.6113317012786865,-0.9209818840026855
1782776374870236700,4.879236572265625,-0.842071533203125,-0.5600771903991699,-0.850281834602356
1782776374888647000,4.89764697265625,-0.4340219497680664,-0.35231590270996094,-0.5227640867233276
1782776374898777300,4.90777734375,-0.1983642578125,-0.25072598457336426,-0.30567091703414917
1782776374908635600,4.9176357421875,0.042365074157714844,-0.18200254440307617,-0.12513957917690277
1782776374918766300,4.927766357421875,0.3335094451904297,-0.06664443016052246,0.1477108597755432
1782776374928715000,4.937715087890625,0.6418523788452148,0.09537410736083984,0.4326123893260956
1782776374938694100,4.947694091796875,0.7446250915527344,0.32530713081359863,0.4541838765144348
1782776374948704000,4.9577041015625,0.46684837341308594,0.4838898181915283,0.37884628772735596
1782776374958654000,4.967654052734375,0.02063465118408203,0.4019200801849365,0.4513183832168579
1782776374968784600,4.97778466796875,-0.3322134017944336,0.23871588706970215,0.6225284337997437
1782776374978702800,4.987702880859375,-0.2127552032470703,0.16071009635925293,0.8669743537902832
1782776374988712400,4.99771240234375,0.2945394515991211,0.15941905975341797,1.1468651294708252
1782776374998691800,5.00769189453125,0.979100227355957,0.09223628044128418,1.3305236101150513
1782776375008701700,5.01770166015625,1.662123680114746,-0.130141019821167,1.2894117832183838
1782776375018711300,5.027711181640625,2.1372013092041016,-0.3917865753173828,0.866469144821167
1782776375028721200,5.03772119140625,2.2454633712768555,-0.698249101638794,0.24779284000396729
1782776375038700300,5.0477001953125,2.045760154724121,-0.9305758476257324,-0.551181435585022
1782776375048710000,5.0577099609375,1.751927375793457,-1.0787811279296875,-1.1883814334869385
1782776375058719700,5.0677197265625,1.4797115325927734,-1.1559240818023682,-1.6024703979492188
1782776375068699100,5.07769921875,1.2392578125,-1.1212190389633179,-1.7303850650787354
1782776375078709000,5.087708984375,1.0741252899169922,-1.00392746925354,-1.6090587377548218
1782776375088718600,5.097718505859375,1.0486974716186523,-0.8199703693389893,-1.2919046878814697
1782776375098698000,5.107697998046875,0.8921070098876953,-0.7504096031188965,-0.8004480600357056
1782776375109569800,5.11856982421875,0.6753950119018555,-0.6768746376037598,-0.3706185817718506
1782776375128637000,5.137636962890625,0.08206367492675781,-0.5104837417602539,-0.3069647550582886
1782776375138767400,5.147767333984375,-0.33500099182128906,-0.47800588607788086,-0.18175113201141357
1782776375148716000,5.157716064453125,-0.5257081985473633,-0.3455522060394287,0.13428592681884766
1782776375158695400,5.1676953125,-0.5578451156616211,-0.3136911392211914,0.10843515396118164
1782776375168705000,5.177705078125,-0.2847623825073242,-0.01985645294189453,0.3368781805038452
1782776375178715000,5.18771484375,0.07091712951660156,0.11132454872131348,0.4399312734603882
1782776375188694300,5.1976943359375,0.23139381408691406,0.1803879737854004,0.30070245265960693
1782776375198704000,5.2077041015625,0.1675243377685547,0.27711963653564453,0.3872039318084717
1782776375208713700,5.217713623046875,0.10729598999023438,0.3389594554901123,0.29992783069610596
1782776375218693000,5.227693115234375,0.1683788299560547,0.4189281463623047,0.18625807762145996
1782776375228702700,5.23770263671875,0.4131193161010742,0.5125412940979004,0.19058716297149658
1782776375238652700,5.247652587890625,0.8409786224365234,0.5566046237945557,0.24251782894134521
1782776375248783000,5.257783203125,1.3355140686035156,0.5409386157989502,0.2508484125137329
1782776375258701600,5.26770166015625,1.8832826614379883,0.5565416812896729,0.29466474056243896
1782776375268711200,5.277711181640625,2.470560073852539,0.5072364807128906,0.27127814292907715
1782776375278721000,5.287720947265625,2.939525604248047,0.4343273639678955,0.06002461910247803
1782776375288700400,5.297700439453125,3.3555288314819336,0.3073467016220093,-0.2881169319152832
1782776375298710000,5.3077099609375,3.6020116806030273,0.21150457859039307,-0.47704046964645386
1782776375308719900,5.317719970703125,3.7010602951049805,0.09218668937683105,-0.43550926446914673
1782776375318699300,5.32769921875,3.5005321502685547,0.14338183403015137,-0.25406014919281006
1782776375328708900,5.337708984375,3.0033321380615234,0.27934837341308594,0.03618335723876953
1782776375338718700,5.34771875,2.3921985626220703,0.4461333751678467,0.33373069763183594
1782776375348697900,5.35769775390625,1.6914749145507812,0.6025103330612183,0.5216198563575745
1782776375358707500,5.36770751953125,1.081014633178711,0.5935823917388916,0.5713087320327759
1782776375368717300,5.37771728515625,0.39801692962646484,0.583138108253479,0.6897240281105042
1782776375378696700,5.38769677734375,-0.28624439239501953,0.4613673686981201,0.7525892853736877
1782776375388706300,5.397706298828125,-0.9839105606079102,0.4048442840576172,0.8018985986709595
1782776375398716200,5.407716064453125,-1.745901107788086,0.4245084524154663,0.8743964433670044
1782776375408695600,5.417695556640625,-2.5007987022399902,0.5115847587585449,1.0602211952209473
1782776375418705400,5.427705322265625,-3.3212428092956543,0.6068136692047119,1.2613519430160522
1782776375428715000,5.437715087890625,-3.8848190307617188,0.5543649196624756,1.3267388343811035
1782776375438694100,5.447694091796875,-3.977449417114258,0.4720761775970459,1.0929572582244873
1782776375448704000,5.4577041015625,-3.9470973014831543,0.5844161510467529,0.7194145917892456
1782776375458713600,5.467713623046875,-3.6411805152893066,0.6192913055419922,0.7667093276977539
1782776375468693000,5.47769287109375,-3.5077672004699707,0.5436527729034424,1.1261062622070312
1782776375478702800,5.487702880859375,-3.3216500282287598,0.5382485389709473,1.3317264318466187
1782776375488712400,5.49771240234375,-2.910301685333252,0.5497279167175293,1.193885326385498
1782776375498691800,5.50769189453125,-2.5630264282226562,0.6151020526885986,0.9662096500396729
1782776375508701700,5.51770166015625,-2.3055782318115234,0.616959810256958,0.7920675277709961
1782776375518711300,5.527711181640625,-2.151789665222168,0.5581071376800537,0.5924688577651978
1782776375528721200,5.53772119140625,-2.0292391777038574,0.4989609718322754,0.331155389547348
1782776375538700300,5.5477001953125,-1.8657770156860352,0.4602210521697998,0.1317312866449356
1782776375548710000,5.5577099609375,-1.6925840377807617,0.4586606025695801,0.06882452964782715
1782776375558719700,5.5677197265625,-1.371170997619629,0.4400463104248047,0.19879809021949768
1782776375568699100,5.57769921875,-0.9428186416625977,0.47547006607055664,0.08386004716157913
1782776375578709000,5.587708984375,-0.46328067779541016,0.5573804378509521,-0.3061670958995819
1782776375588718600,5.597718505859375,-0.04774665832519531,0.694040060043335,-0.8308026790618896
1782776375598698000,5.607697998046875,0.34505271911621094,0.7469058036804199,-1.1220617294311523
1782776375608707600,5.61770751953125,0.6391143798828125,0.7181599140167236,-0.9370901584625244
1782776375618717400,5.627717529296875,0.8850536346435547,0.62274169921875,-0.3335859179496765
1782776375628696600,5.637696533203125,1.1905202865600586,0.46251940727233887,0.480385959148407
1782776375638706200,5.6477060546875,1.587066650390625,0.25240659713745117,1.257188081741333
1782776375648716000,5.657716064453125,1.9251136779785156,-0.00002765655517578125,1.522810935974121
1782776375658695400,5.6676953125,2.236116409301758,-0.17275309562683105,1.5472593307495117
1782776375668705000,5.677705078125,2.3239965438842773,-0.36079227924346924,1.4017870426177979
1782776375678715000,5.68771484375,2.170520782470703,-0.5312618017196655,1.0594351291656494
1782776375688694300,5.6976943359375,1.8598442077636719,-0.7163281440734863,0.645868182182312
1782776375698704100,5.7077041015625,1.49285888671875,-0.9245681762695312,0.14273440837860107
1782776375708713700,5.717713623046875,1.1654052734375,-1.1257057189941406,-0.36745864152908325
1782776375718693000,5.727693115234375,0.8658647537231445,-1.183543086051941,-0.644686222076416
1782776375728702700,5.73770263671875,0.6831283569335938,-1.045295000076294,-0.7160279750823975
1782776375738712600,5.747712646484375,0.6294193267822266,-0.8756474256515503,-0.6403055191040039
1782776375748692000,5.75769189453125,0.3554086685180664,-0.7307569980621338,-0.6151065826416016
1782776375758701600,5.76770166015625,-0.3637733459472656,-0.6966512203216553,-0.7372741103172302
1782776375768711200,5.777711181640625,-1.2377443313598633,-0.6286153793334961,-0.7937483191490173
1782776375778721000,5.787720947265625,-1.8684358596801758,-0.5265657901763916,-0.8547951579093933
1782776375788700400,5.797700439453125,-2.315218448638916,-0.5687181949615479,-0.9860318899154663
1782776375798710000,5.8077099609375,-2.474544048309326,-0.8047966957092285,-0.903992235660553
1782776375808720000,5.817719970703125,-2.2614078521728516,-1.0264918804168701,-0.860689103603363
1782776375818699300,5.82769921875,-1.8750357627868652,-1.2572612762451172,-0.8686251640319824
1782776375828709000,5.837709228515625,-1.3507318496704102,-1.4290109872817993,-0.7613809704780579
1782776375838718700,5.84771875,-0.8476800918579102,-1.5803930759429932,-0.4345419406890869
1782776375848697900,5.85769775390625,-0.35992431640625,-1.6307780742645264,0.044785499572753906
1782776375858707700,5.867707763671875,0.10624885559082031,-1.5932676792144775,0.33077770471572876
1782776375868717300,5.87771728515625,0.3832130432128906,-1.5670815706253052,0.41885459423065186
1782776375878696700,5.88769677734375,0.40759849548339844,-1.5335620641708374,0.3070807158946991
1782776375888706600,5.89770654296875,0.20147991180419922,-1.4587774276733398,0.25425827503204346
1782776375898716200,5.907716064453125,-0.1775503158569336,-1.4128260612487793,0.14411795139312744
1782776375908695600,5.917695556640625,-0.5428657531738281,-1.3329591751098633,-0.049165427684783936
1782776375918705200,5.927705078125,-0.9069309234619141,-1.2861685752868652,-0.25827842950820923
1782776375928715000,5.937715087890625,-1.263021469116211,-1.2371385097503662,-0.3577224016189575
1782776375938694100,5.947694091796875,-1.4702386856079102,-1.1078569889068604,-0.27208757400512695
1782776375948704000,5.9577041015625,-1.5504913330078125,-0.9161696434020996,-0.1705525517463684
1782776375958713600,5.967713623046875,-1.5735673904418945,-0.7132774591445923,-0.04936295747756958
1782776375968693000,5.97769287109375,-1.697343349456787,-0.5598107576370239,0.19909390807151794
1782776375978702800,5.987702880859375,-1.888054370880127,-0.41651785373687744,0.2963857650756836
1782776375988712400,5.99771240234375,-1.8801097869873047,-0.36938154697418213,0.1854064166545868
1782776375998691800,6.00769189453125,-1.7842445373535156,-0.39954352378845215,0.12400594353675842
1782776376008701700,6.01770166015625,-1.6556329727172852,-0.4513359069824219,0.11930251121520996
1782776376018711600,6.027711669921875,-1.5060253143310547,-0.45823442935943604,0.08908602595329285
1782776376028721200,6.03772119140625,-1.4070444107055664,-0.43024003505706787,0.03036719560623169
1782776376038700300,6.0477001953125,-1.3967885971069336,-0.3726853132247925,-0.05285489559173584
1782776376048710000,6.0577099609375,-1.3458595275878906,-0.3408471345901489,-0.010810375213623047
1782776376058719700,6.0677197265625,-1.115427017211914,-0.28425824642181396,0.010642677545547485
1782776376068699100,6.07769921875,-0.7967405319213867,-0.2478398084640503,0.09668910503387451
1782776376078708700,6.087708740234375,-0.37516307830810547,-0.2161574363708496,0.21111783385276794
1782776376088718600,6.097718505859375,-0.2067422866821289,-0.152215838432312,0.4957451820373535
1782776376098698000,6.107697998046875,-0.06485652923583984,-0.02290666103363037,0.5602419376373291
1782776376108707800,6.117707763671875,0.14859294891357422,0.08283007144927979,0.5706623196601868
1782776376118717400,6.127717529296875,0.33794498443603516,0.17872416973114014,0.664905309677124
1782776376128696600,6.137696533203125,0.4782876968383789,0.2025306224822998,0.7980556488037109
1782776376138706400,6.14770654296875,0.5518684387207031,0.2452617883682251,0.8417965173721313
1782776376148716000,6.157716064453125,0.726008415222168,0.28202927112579346,0.8041861057281494
1782776376158695400,6.1676953125,0.9813737869262695,0.2730370759963989,0.735142707824707
1782776376168705300,6.177705322265625,1.3994522094726562,0.2751429080963135,0.7860717177391052
1782776376178715000,6.18771484375,1.6048126220703125,0.2619973421096802,0.943456768989563
1782776376188694300,6.1976943359375,1.6769790649414062,0.3315606117248535,1.1839134693145752
1782776376198704000,6.2077041015625,1.417515754699707,0.3218449354171753,1.270612359046936
1782776376208713700,6.217713623046875,1.1687421798706055,0.38396120071411133,0.9218028783798218
1782776376218693000,6.227693115234375,0.8556642532348633,0.6389174461364746,0.1471586376428604
1782776376228702700,6.23770263671875,0.2912559509277344,0.7384185791015625,-0.09606333076953888
1782776376238652700,6.247652587890625,-0.01043701171875,0.6714475154876709,0.1428358256816864
1782776376248783000,6.257783203125,0.008622169494628906,0.6013009548187256,0.5521912574768066
1782776376258701600,6.26770166015625,0.5036993026733398,0.5858349800109863,1.2763875722885132
1782776376268711200,6.277711181640625,1.313755989074707,0.5334675312042236,2.1241750717163086
1782776376278661400,6.287661376953125,2.1685800552368164,0.3157687187194824,2.73811936378479
1782776376288791800,6.297791748046875,2.8602333068847656,-0.1127631664276123,2.9191598892211914
1782776376298710000,6.3077099609375,3.1661624908447266,-0.5186103582382202,2.678774356842041
1782776376308719900,6.317719970703125,3.287285804748535,-0.9085904359817505,2.0988292694091797
1782776376318699300,6.32769921875,3.1369056701660156,-1.3128788471221924,1.4525588750839233
1782776376328709000,6.337709228515625,2.8657217025756836,-1.68784761428833,0.6799649000167847
1782776376338718700,6.34771875,2.6368303298950195,-1.900410771369934,-0.1500236988067627
1782776376348697900,6.35769775390625,2.3719959259033203,-1.9325220584869385,-0.8618237972259521
1782776376358707700,6.367707763671875,1.8424177169799805,-1.875985860824585,-1.1671972274780273
1782776376368717300,6.37771728515625,1.0205459594726562,-1.6519067287445068,-1.095853328704834
1782776376378696700,6.38769677734375,0.23550987243652344,-1.3066225051879883,-1.063086748123169
1782776376388706600,6.39770654296875,-0.5264806747436523,-0.8872846364974976,-0.8120810985565186
1782776376398716200,6.407716064453125,-1.2198495864868164,-0.500590443611145,-0.2390860617160797
1782776376408695600,6.417695556640625,-1.6103925704956055,-0.12265157699584961,0.612410843372345
1782776376418705400,6.427705322265625,-1.7998361587524414,0.1909942626953125,1.4141860008239746
1782776376428715000,6.437715087890625,-1.6336593627929688,0.3278520107269287,1.988701343536377
1782776376438694100,6.447694091796875,-1.0803117752075195,0.326200008392334,2.514420986175537
1782776376448704000,6.4577041015625,-0.2680206298828125,0.19538140296936035,2.850222110748291
1782776376458713600,6.467713623046875,0.5243110656738281,-0.09843254089355469,2.8007893562316895
1782776376468693000,6.47769287109375,1.0803947448730469,-0.4462459087371826,2.3807287216186523
1782776376478702800,6.487702880859375,1.267918586730957,-0.8494495153427124,1.5340023040771484
1782776376488712400,6.49771240234375,0.9984283447265625,-1.2388312816619873,0.6012516617774963
1782776376498691800,6.50769189453125,0.36626338958740234,-1.5137403011322021,-0.1657291054725647
1782776376508701700,6.51770166015625,-0.45167064666748047,-1.6427316665649414,-0.7650699615478516
1782776376518711600,6.527711669921875,-1.102813720703125,-1.631192922592163,-1.1343226432800293
1782776376528721200,6.53772119140625,-1.7080802917480469,-1.4633862972259521,-1.2110378742218018
1782776376538700300,6.5477001953125,-2.233102321624756,-1.2002153396606445,-1.0561861991882324
1782776376548710000,6.5577099609375,-2.655993938446045,-0.8921593427658081,-0.7819257974624634
1782776376558719700,6.5677197265625,-2.950575351715088,-0.581352710723877,-0.3527825176715851
1782776376568699100,6.57769921875,-3.1699485778808594,-0.3047633171081543,0.11018821597099304
1782776376578708700,6.587708740234375,-3.2911934852600098,-0.027762174606323242,0.4755304157733917
1782776376588718600,6.597718505859375,-3.2865986824035645,0.16418886184692383,0.7157570123672485
1782776376598698000,6.607697998046875,-3.236697196960449,0.2829570770263672,0.8498332500457764
1782776376608707800,6.617707763671875,-3.1403541564941406,0.3221924304962158,0.9915561079978943
1782776376618717400,6.627717529296875,-2.9413652420043945,0.30188465118408203,1.0922428369522095
1782776376628696600,6.637696533203125,-2.6452908515930176,0.25490355491638184,1.1540257930755615
1782776376638706400,6.64770654296875,-2.274174690246582,0.2086029052734375,1.1805051565170288
1782776376648716000,6.657716064453125,-1.8998379707336426,0.12654471397399902,1.0607542991638184
1782776376658695400,6.6676953125,-1.5079941749572754,-0.001032114028930664,0.8446990847587585
1782776376668705300,6.677705322265625,-1.1341915130615234,-0.10845518112182617,0.6633293628692627
1782776376678715000,6.68771484375,-0.808746337890625,-0.16699957847595215,0.507156252861023
1782776376688694300,6.6976943359375,-0.4922904968261719,-0.17016005516052246,0.2846878468990326
1782776376698704100,6.7077041015625,-0.22658729553222656,-0.18636035919189453,0.0031471550464630127
1782776376708713700,6.717713623046875,-0.12780380249023438,-0.19980478286743164,-0.1819128394126892
1782776376718693000,6.727693115234375,-0.03912544250488281,-0.18796968460083008,-0.34230953454971313
1782776376728702700,6.73770263671875,0.059174537658691406,-0.10242509841918945,-0.35378775000572205
1782776376738712600,6.747712646484375,0.17675399780273438,-0.0009167194366455078,-0.3571941554546356
1782776376748691700,6.757691650390625,0.14103221893310547,0.08123588562011719,-0.35827940702438354
1782776376758701600,6.76770166015625,0.019044876098632812,0.20599055290222168,-0.29831579327583313
1782776376768711200,6.777711181640625,-0.1132211685180664,0.2891223430633545,-0.21138358116149902
1782776376778721000,6.787720947265625,-0.2326641082763672,0.31200575828552246,-0.11851049959659576
1782776376788700400,6.797700439453125,-0.20376968383789062,0.3473649024963379,-0.14099223911762238
1782776376798710000,6.8077099609375,0.10653018951416016,0.303020715713501,-0.16485637426376343
1782776376808720000,6.817719970703125,0.6066207885742188,0.2315051555633545,-0.2578898072242737
1782776376818699300,6.82769921875,1.1074304580688477,0.4364585876464844,-0.844551682472229
1782776376828708900,6.837708984375,1.3864669799804688,0.6751115322113037,-1.5764414072036743
1782776376838658800,6.847658935546875,1.2488975524902344,0.870551586151123,-1.8536008596420288
1782776376848789500,6.85778955078125,1.067051887512207,0.9994962215423584,-1.473315715789795
1782776376858707700,6.867707763671875,1.1306982040405273,1.0575122833251953,-0.48781436681747437
1782776376868717300,6.87771728515625,1.5467872619628906,1.2029895782470703,1.1196317672729492
1782776376878696700,6.88769677734375,2.3594961166381836,1.0313935279846191,2.4260056018829346
1782776376888706600,6.89770654296875,3.2442169189453125,0.6325094699859619,2.9057068824768066
1782776376898716200,6.907716064453125,3.9278430938720703,0.06801033020019531,2.579813003540039
1782776376908695600,6.917695556640625,4.238927841186523,-0.6154968738555908,1.828521966934204
1782776376918705400,6.927705322265625,3.9775171279907227,-1.2310446500778198,0.8966978192329407
1782776376928715000,6.937715087890625,3.156245231628418,-1.846303939819336,-0.16775867342948914
1782776376938694100,6.947694091796875,2.077486038208008,-2.3029565811157227,-1.0943934917449951
1782776376948704000,6.9577041015625,1.1119050979614258,-2.5791847705841064,-1.8741542100906372
1782776376958713600,6.967713623046875,0.20258140563964844,-2.5235676765441895,-2.2339019775390625
1782776376968693000,6.97769287109375,-0.5806493759155273,-2.291146993637085,-2.1109113693237305
1782776376978643200,6.987643310546875,-1.3880739212036133,-1.9303420782089233,-1.6210578680038452
1782776376989571600,6.998571533203125,-2.2196192741394043,-1.4908509254455566,-1.23958420753479
1782776377008701700,7.01770166015625,-3.2846245765686035,-1.2374862432479858,-0.8380873203277588
1782776377018711300,7.027711181640625,-3.573200225830078,-0.9680641889572144,-1.4069032669067383
1782776377028721200,7.03772119140625,-3.6265740394592285,-0.887108325958252,-1.9539580345153809
1782776377038700300,7.0477001953125,-2.6714534759521484,-1.0503604412078857,-1.908341407775879
1782776377048710000,7.0577099609375,-2.818289279937744,-1.2236350774765015,-1.585776686668396
1782776377058719700,7.0677197265625,-2.9197745323181152,-1.3756111860275269,-1.4362361431121826
1782776377068699100,7.07769921875,-2.8785715103149414,-1.7393555641174316,-1.241776466369629
1782776377078709000,7.087708984375,-2.2660231590270996,-1.99599027633667,-0.7617878913879395
1782776377088718600,7.097718505859375,-0.8969507217407227,-1.8786218166351318,0.0894535481929779
1782776377098698000,7.107697998046875,0.6661834716796875,-1.6267379522323608,1.0042608976364136
1782776377108707800,7.117707763671875,2.3253870010375977,-1.5915542840957642,1.4851237535476685
1782776377118717400,7.127717529296875,3.829129219055176,-1.9488916397094727,1.6858816146850586
1782776377128696600,7.137696533203125,4.554426193237305,-2.257540464401245,1.3311587572097778
