time,seconds_elapsed,z,y,x
1782776358758935800,0.171935791015625,-0.3500257730484009,-0.4795292317867279,0
1782776358769207600,0.18220751953125,-0.4050036668777466,-0.598647952079773,-0.14294247329235077
1782776358779238100,0.192238037109375,-0.475253164768219,-0.7134906053543091,-0.3243694305419922
1782776358789196800,0.20219677734375,-0.5674937963485718,-0.8454375267028809,-0.5302310585975647
1782776358799227100,0.21222705078125,-0.6792821288108826,-0.9663888216018677,-0.7244861721992493
1782776358809216300,0.22221630859375,-0.7898487448692322,-0.9926560521125793,-0.8649851679801941
1782776358819215000,0.232215087890625,-0.8710938692092896,-0.7953465580940247,-0.9156870245933533
1782776358829204700,0.242204833984375,-0.8692612648010254,-0.6102544069290161,-0.8680394887924194
1782776358839236400,0.252236328125,-0.8008443117141724,-0.41661009192466736,-0.7684684991836548
1782776358849193700,0.26219384765625,-0.685390830039978,-0.20830504596233368,-0.6053674817085266
1782776358859225600,0.2722255859375,-0.5876523852348328,0.004886921960860491,-0.38606682419776917
1782776358869213400,0.28221337890625,-0.5467243790626526,0.1722639948129654,-0.12950342893600464
1782776358879214600,0.292214599609375,-0.5510004758834839,0.2431243658065796,0.12034045159816742
1782776358889202200,0.3022021484375,-0.5613851547241211,0.2217440903186798,0.3286454975605011
1782776358899234000,0.312234130859375,-0.5363397002220154,0.12889257073402405,0.48380526900291443
1782776358909191400,0.32219140625,-0.45631635189056396,-0.00427605677396059,0.598647952079773
1782776358919222500,0.332222412109375,-0.34697145223617554,-0.14416420459747314,0.675006091594696
1782776358929211400,0.34221142578125,-0.24617868661880493,-0.29993483424186707,0.7079927921295166
1782776358939211300,0.352211181640625,-0.16065755486488342,-0.4795292317867279,0.7134906053543091
1782776358949200100,0.3622001953125,-0.09468411654233932,-0.6438519954681396,0.7043276429176331
1782776358959231000,0.37223095703125,-0.05864306539297104,-0.8136724829673767,0.685390830039978
1782776358969189400,0.382189453125,-0.0507018156349659,-1.004873275756836,0.6731734871864319
1782776358979220000,0.392219970703125,-0.09224065393209457,-1.2162326574325562,0.6383541822433472
1782776358989209000,0.402208984375,-0.18570303916931152,-1.3964380025863647,0.5638286471366882
1782776358999211000,0.4122109375,-0.34574973583221436,-1.4440854787826538,0.4508185386657715
1782776359009198000,0.422197998046875,-0.5479460954666138,-1.2968668937683105,0.31520646810531616
1782776359019228400,0.432228515625,-0.720820963382721,-0.9816604256629944,0.18448130786418915
1782776359029217500,0.442217529296875,-0.8045095205307007,-0.5919284224510193,0.08979719132184982
1782776359039217700,0.4522177734375,-0.7941248416900635,-0.22907446324825287,0.03420845419168472
1782776359049206300,0.462206298828125,-0.7122688889503479,0.006108652334660292,0.02076941914856434
1782776359059237600,0.472237548828125,-0.5693264007568359,0.10567969083786011,0.0659734457731247
1782776359069195500,0.482195556640625,-0.40072759985923767,0.09712757170200348,0.16982053220272064
1782776359079226600,0.4922265625,-0.24678955972194672,0.018325956538319588,0.3090978264808655
1782776359089215000,0.502215087890625,-0.13988813757896423,-0.07757988572120667,0.45265114307403564
1782776359099214800,0.51221484375,-0.08979719132184982,-0.14538592100143433,0.5797111392021179
1782776359109204200,0.522204345703125,-0.08124507963657379,-0.1765400618314743,0.6627888083457947
1782776359119236900,0.53223681640625,-0.10445795953273773,-0.18570303916931152,0.675616979598999
1782776359129193000,0.54219287109375,-0.1569923609495163,-0.1771509200334549,0.6041457056999207
1782776359139225900,0.552225830078125,-0.22052235901355743,-0.1362229436635971,0.4691445231437683
1782776359149212400,0.56221240234375,-0.28038713335990906,-0.07819075137376785,0.2993239760398865
1782776359159214800,0.57221484375,-0.3219259977340698,-0.02321287989616394,0.12400564551353455
1782776359169201700,0.58220166015625,-0.35063666105270386,0.01710422709584236,-0.033597588539123535
1782776359179232500,0.592232421875,-0.3689626157283783,0.03481931984424591,-0.1569923609495163
1782776359189190700,0.602190673828125,-0.3805690407752991,0.0354301854968071,-0.2376265823841095
1782776359199221200,0.61222119140625,-0.37201693654060364,0.06352998316287994,-0.26939156651496887
1782776359209210000,0.622210205078125,-0.3604104816913605,0.11789698898792267,-0.2681698501110077
1782776359219210200,0.632210205078125,-0.35735616087913513,0.16920967400074005,-0.25595253705978394
1782776359229199000,0.64219921875,-0.3634648323059082,0.22846360504627228,-0.24190263450145721
1782776359239261700,0.65226171875,-0.39767327904701233,0.36590829491615295,-0.23884831368923187
1782776359249188000,0.66218798828125,-0.4331034719944,0.503963828086853,-0.20891591906547546
1782776359259218700,0.67221875,-0.46547931432724,0.5668829679489136,-0.182648703455925
1782776359269207600,0.68220751953125,-0.48869219422340393,0.5473352670669556,-0.15760323405265808
1782776359279239000,0.692239013671875,-0.46181413531303406,0.5736024379730225,-0.11301007121801376
1782776359289196800,0.70219677734375,-0.3927863538265228,0.5925393104553223,-0.07757988572120667
1782776359299228000,0.712227783203125,-0.3194825351238251,0.5711590051651001,-0.07269296050071716
1782776359309216300,0.72221630859375,-0.2626720666885376,0.5192354321479797,-0.1062905490398407
1782776359319217000,0.732216796875,-0.21074850857257843,0.47219884395599365,-0.1569923609495163
1782776359329205200,0.742205322265625,-0.1514945775270462,0.4862487316131592,-0.192422553896904
1782776359339236600,0.752236572265625,-0.09896016865968704,0.5259549617767334,-0.20830504596233368
1782776359349194200,0.7621943359375,-0.05864306539297104,0.5290092825889587,-0.21380282938480377
1782776359359225600,0.7722255859375,-0.0354301854968071,0.4807509481906891,-0.18997909128665924
1782776359369213700,0.782213623046875,-0.012217304669320583,0.43676865100860596,-0.1618792861700058
1782776359379214600,0.792214599609375,-0.005497787147760391,0.4282165467739105,-0.1313360333442688
1782776359389203000,0.802202880859375,-0.01466076634824276,0.4703662395477295,-0.11301007121801376
1782776359399234000,0.812234130859375,-0.012828170321881771,0.5436700582504272,-0.10018189996480942
1782776359409192000,0.82219189453125,-0.00366519158706069,0.5613851547241211,-0.07269296050071716
1782776359419223000,0.83222314453125,0.029932396486401558,0.484416127204895,-0.05925392732024193
1782776359429211400,0.84221142578125,0.07208210229873657,0.3335324227809906,-0.06963863968849182
1782776359439212000,0.8522119140625,0.1215621829032898,0.1820378452539444,-0.09651670604944229
1782776359449200000,0.8622001953125,0.16920967400074005,0.09224065393209457,-0.12400564551353455
1782776359459231500,0.8722314453125,0.18081611394882202,0.08307767659425735,-0.14905111491680145
1782776359469189400,0.882189453125,0.15393804013729095,0.13072516024112701,-0.17592918872833252
1782776359479220500,0.892220458984375,0.13316862285137177,0.22113321721553802,-0.18570303916931152
1782776359489208800,0.902208740234375,0.1264491081237793,0.3500257730484009,-0.17104226350784302
1782776359499209500,0.91220947265625,0.11850785464048386,0.45326200127601624,-0.14294247329235077
1782776359509198000,0.922197998046875,0.11178833991289139,0.5112941861152649,-0.10384709388017654
1782776359519229200,0.932229248046875,0.13255776464939117,0.5619960427284241,-0.04642575979232788
1782776359529217500,0.942217529296875,0.1820378452539444,0.6065891981124878,0.025656340643763542
1782776359539218200,0.95221826171875,0.24923302233219147,0.5998696684837341,0.09896016865968704
1782776359549206500,0.96220654296875,0.3182607889175415,0.5375614166259766,0.16310101747512817
1782776359559237600,0.972237548828125,0.3933972120285034,0.3995058834552765,0.21135938167572021
1782776359569195500,0.982195556640625,0.47219884395599365,0.2015855312347412,0.25106561183929443
1782776359579226600,0.9922265625,0.5455026626586914,0.04581489413976669,0.28038713335990906
1782776359589215000,1.002215087890625,0.607810914516449,-0.12217304855585098,0.27061331272125244
1782776359599215900,1.0122158203125,0.6633996367454529,-0.3139847218990326,0.21930062770843506
1782776359609204000,1.022203857421875,0.7024950385093689,-0.48380526900291443,0.12889257073402405
1782776359619235600,1.032235595703125,0.7031059265136719,-0.618195652961731,0.01038470957428217
1782776359629193200,1.042193115234375,0.646906316280365,-0.6817256212234497,-0.11056660860776901
1782776359639223600,1.0522236328125,0.5497786998748779,-0.6334672570228577,-0.20525072515010834
1782776359649212400,1.06221240234375,0.4239404797554016,-0.4758640229701996,-0.2577851414680481
1782776359659212500,1.072212646484375,0.22907446324825287,-0.1014036312699318,-0.22418753802776337
1782776359669201700,1.08220166015625,0.1417207419872284,0.2028072625398636,-0.12767083942890167
1782776359679232800,1.092232666015625,0.10812314599752426,0.44165557622909546,0.018325956538319588
1782776359689190700,1.102190673828125,0.13255776464939117,0.5564982295036316,0.16493362188339233
1782776359699221800,1.1122216796875,0.182648703455925,0.5485569834709167,0.29993483424186707
1782776359709210400,1.12221044921875,0.24129177629947662,0.45875978469848633,0.4098905920982361
1782776359719211000,1.1322109375,0.30543261766433716,0.3182607889175415,0.4911356568336487
1782776359729199000,1.14219921875,0.3543018400669098,0.16371189057826996,0.543059229850769
1782776359739230200,1.152230224609375,0.37568211555480957,0.06169738993048668,0.5601634383201599
1782776359749188000,1.16218798828125,0.3683517575263977,0.00733038317412138,0.5283984541893005
1782776359759219200,1.17221923828125,0.3396410644054413,-0.02932153269648552,0.4440990388393402
1782776359769207600,1.18220751953125,0.2926044464111328,-0.06291911751031876,0.31093040108680725
1782776359779240400,1.192240478515625,0.22052235901355743,-0.08491026610136032,0.13805554807186127
1782776359789196800,1.20219677734375,0.13988813757896423,-0.1111774742603302,-0.036651913076639175
1782776359799229400,1.2122294921875,0.045204028487205505,-0.13744467496871948,-0.17837265133857727
1782776359809216300,1.22221630859375,-0.05497787147760391,-0.16554448008537292,-0.2767219543457031
1782776359819216000,1.2322158203125,-0.13377949595451355,-0.20463985204696655,-0.3225368559360504
1782776359829204700,1.242204833984375,-0.1973094791173935,-0.22968533635139465,-0.3323107063770294
1782776359839235800,1.25223583984375,-0.252287358045578,-0.24007004499435425,-0.3170390725135803
1782776359849193700,1.26219384765625,-0.28588494658470154,-0.24434609711170197,-0.2785545587539673
1782776359859224800,1.272224853515625,-0.3139847218990326,-0.24373523890972137,-0.23457226157188416
1782776359869213400,1.28221337890625,-0.34574973583221436,-0.26145032048225403,-0.20586158335208893
1782776359879214000,1.292214111328125,-0.3738495409488678,-0.3017674386501312,-0.192422553896904
1782776359889202200,1.3022021484375,-0.40072759985923767,-0.3323107063770294,-0.19364428520202637
1782776359899233800,1.31223388671875,-0.4331034719944,-0.35246923565864563,-0.2021963894367218
1782776359909191400,1.32219140625,-0.47769662737846375,-0.37262779474258423,-0.21441370248794556
1782776359919223000,1.33222314453125,-0.5259549617767334,-0.40622538328170776,-0.22968533635139465
1782776359929211400,1.34221142578125,-0.5717698931694031,-0.43799036741256714,-0.24068090319633484
1782776359939211500,1.35221142578125,-0.6188064813613892,-0.4612032473087311,-0.2565633952617645
1782776359949200400,1.362200439453125,-0.6707300543785095,-0.48808133602142334,-0.26572638750076294
1782776359959231200,1.372231201171875,-0.7269296646118164,-0.4893030524253845,-0.25534167885780334
1782776359969189400,1.382189453125,-0.7837401032447815,-0.47280970215797424,-0.22296582162380219
1782776359979220200,1.39222021484375,-0.836885392665863,-0.45142942667007446,-0.18814650177955627
1782776359989208800,1.402208740234375,-0.8778133392333984,-0.4050036668777466,-0.15760323405265808
1782776359999209700,1.412209716796875,-0.8967501521110535,-0.3084869384765625,-0.12828169763088226
1782776360009198000,1.422197998046875,-0.8936958312988281,-0.19792033731937408,-0.08796459436416626
1782776360019229400,1.4322294921875,-0.8827002644538879,-0.1966986060142517,-0.051312681287527084
1782776360029217500,1.442217529296875,-0.8796459436416626,-0.2981022298336029,-0.04337143152952194
1782776360039218200,1.45221826171875,-0.8686503767967224,-0.4789183437824249,-0.08246681094169617
1782776360049206300,1.462206298828125,-0.8594874143600464,-0.7385360598564148,-0.17531833052635193
1782776360059237000,1.472237060546875,-0.8741481900215149,-0.9828822016716003,-0.33047810196876526
1782776360069195500,1.482195556640625,-0.940121591091156,-1.1386528015136719,-0.5167919993400574
1782776360079226000,1.49222607421875,-1.0726794004440308,-1.122159481048584,-0.749531626701355
1782776360089215000,1.502215087890625,-1.147204875946045,-0.9529497623443604,-0.826500654220581
1782776360099215000,1.512215087890625,-1.1808024644851685,-0.7440338730812073,-0.8295549750328064
1782776360109204200,1.522204345703125,-1.160033106803894,-0.5552765130996704,-0.7727445363998413
1782776360119235300,1.5322353515625,-1.0965031385421753,-0.4453207552433014,-0.6731734871864319
1782776360129193000,1.54219287109375,-1.0054842233657837,-0.4294382631778717,-0.5589417219161987
1782776360139224600,1.552224609375,-0.9126327037811279,-0.4660901725292206,-0.4447098970413208
1782776360148896800,1.561896728515625,-0.8399397134780884,-0.513737678527832,-0.34025195240974426
1782776360159243300,1.5722431640625,-0.8124507665634155,-0.5247332453727722,-0.24678955972194672
1782776360169201700,1.58220166015625,-0.8319984674453735,-0.4960225820541382,-0.14294247329235077
1782776360179232300,1.592232177734375,-0.8784242272377014,-0.4440990388393402,-0.03420845419168472
1782776360189190700,1.602190673828125,-0.9242390990257263,-0.3793473243713379,0.042760565876960754
1782776360199221500,1.612221435546875,-0.970054030418396,-0.31581732630729675,0.08552113175392151
1782776360209210000,1.622210205078125,-1.0238101482391357,-0.27977627515792847,0.09651670604944229
1782776360219210200,1.632210205078125,-1.0726794004440308,-0.27977627515792847,0.08429940044879913
1782776360229199000,1.64219921875,-1.0958921909332275,-0.31031954288482666,0.05009094998240471
1782776360239229700,1.652229736328125,-1.0867292881011963,-0.38606682419776917,-0.00427605677396059
1782776360249188400,1.662188232421875,-1.047023057937622,-0.46242499351501465,-0.06230825558304787
1782776360259218700,1.67221875,-0.9914342761039734,-0.5015203952789307,-0.11239920556545258
1782776360269207600,1.68220751953125,-0.9584475755691528,-0.4966334402561188,-0.15271630883216858
1782776360279238400,1.69223828125,-0.9517280459403992,-0.46731191873550415,-0.1875356286764145
1782776360289196800,1.70219677734375,-0.9651671051979065,-0.4300491213798523,-0.2125810980796814
1782776360299227400,1.712227294921875,-0.979216992855072,-0.403781920671463,-0.21807889640331268
1782776360309216300,1.72221630859375,-0.9896016716957092,-0.3891211748123169,-0.2021963894367218
1782776360319216400,1.73221630859375,-0.9896016716957092,-0.37568211555480957,-0.16371189057826996
1782776360329205500,1.74220556640625,-0.9761626720428467,-0.3549126982688904,-0.11484266817569733
1782776360339236000,1.752236083984375,-0.9388998746871948,-0.3384193480014801,-0.06536258012056351
1782776360349194200,1.7621943359375,-0.8827002644538879,-0.32498031854629517,-0.015271631069481373
1782776360359225600,1.7722255859375,-0.8185594081878662,-0.30970868468284607,0.04092797264456749
1782776360369213700,1.782213623046875,-0.7568620443344116,-0.2987131178379059,0.09896016865968704
1782776360379214000,1.792214111328125,-0.7067710757255554,-0.30482175946235657,0.13988813757896423
1782776360389202700,1.80220263671875,-0.6609562039375305,-0.31154128909111023,0.16371189057826996
1782776360399233500,1.812233642578125,-0.6224716901779175,-0.30543261766433716,0.16859880089759827
1782776360409192000,1.82219189453125,-0.5968153476715088,-0.2919935882091522,0.15882496535778046
1782776360419222500,1.832222412109375,-0.5931501388549805,-0.2718350291252136,0.1368338167667389
1782776360429211600,1.842211669921875,-0.6053674817085266,-0.24617868661880493,0.1062905490398407
1782776360439211500,1.85221142578125,-0.6224716901779175,-0.20525072515010834,0.06475171446800232
1782776360449200000,1.8622001953125,-0.636521577835083,-0.152105450630188,0.019547687843441963
1782776360459231000,1.87223095703125,-0.6493497490882874,-0.0910189226269722,-0.019547687843441963
1782776360469189400,1.882189453125,-0.6579018831253052,-0.03848451003432274,-0.04398229718208313
1782776360479220200,1.89222021484375,-0.6603453159332275,0.012217304669320583,-0.04398229718208313
1782776360489208800,1.902208740234375,-0.6505714654922485,0.08002334833145142,-0.02076941914856434
1782776360499209000,1.912208984375,-0.6188064813613892,0.18020524084568024,0.028099801391363144
1782776360509198000,1.922197998046875,-0.5864306092262268,0.23579397797584534,0.059864792972803116
1782776360519228400,1.932228515625,-0.5479460954666138,0.2773328125476837,0.09896016865968704
1782776360529217500,1.942217529296875,-0.5149593949317932,0.3194825351238251,0.1417207419872284
1782776360539217700,1.9522177734375,-0.49846604466438293,0.34147366881370544,0.17531833052635193
1782776360549206300,1.962206298828125,-0.48380526900291443,0.33597588539123535,0.18997909128665924
1782776360559238000,1.97223779296875,-0.45875978469848633,0.30604347586631775,0.18570303916931152
1782776360569195500,1.982195556640625,-0.4098905920982361,0.2681698501110077,0.16920967400074005
1782776360579226600,1.9922265625,-0.34758231043815613,0.22968533635139465,0.1459967941045761
1782776360589215000,2.002215087890625,-0.28466320037841797,0.22907446324825287,0.1270599663257599
1782776360599215900,2.0122158203125,-0.23518311977386475,0.2840523421764374,0.1111774742603302
1782776360609204200,2.022204345703125,-0.1869247704744339,0.3286454975605011,0.09712757170200348
1782776360619235300,2.0322353515625,-0.12889257073402405,0.3689626157283783,0.08979719132184982
1782776360629193000,2.04219287109375,-0.06963863968849182,0.4440990388393402,0.10018189996480942
1782776360639224000,2.05222412109375,0.007941247895359993,0.5064072608947754,0.1270599663257599
1782776360649212400,2.06221240234375,0.10201449692249298,0.5015203952789307,0.1466076523065567
1782776360659213300,2.07221337890625,0.18936823308467865,0.37629300355911255,0.15271630883216858
1782776360669201700,2.08220166015625,0.28466320037841797,0.10506882518529892,0.1062905490398407
1782776360679233000,2.09223291015625,0.36224308609962463,-0.28588494658470154,0.013439035043120384
1782776360689190700,2.102190673828125,0.4349360466003418,-0.6120869517326355,-0.11301007121801376
1782776360699221200,2.11222119140625,0.4447098970413208,-0.7538077235221863,-0.24190263450145721
1782776360709210000,2.122210205078125,0.33597588539123535,-0.637132465839386,-0.33658674359321594
1782776360719210000,2.1322099609375,0.15332718193531036,-0.27977627515792847,-0.3604104816913605
1782776360729199000,2.14219921875,-0.03787364438176155,0.21502456068992615,-0.304210901260376
1782776360739229700,2.152229736328125,-0.1771509200334549,0.7079927921295166,-0.19364428520202637
1782776360749188400,2.162188232421875,-0.22663100063800812,1.062294602394104,-0.06719517707824707
1782776360759219200,2.17221923828125,-0.1918116807937622,1.225395679473877,0.04337143152952194
1782776360769207600,2.18220751953125,-0.09773843735456467,1.207680583000183,0.13011430203914642
1782776360779238700,2.19223876953125,0.03237585723400116,1.0592403411865234,0.19608774781227112
1782776360789196800,2.20219677734375,0.1612684279680252,0.837496280670166,0.2571742534637451
1782776360799228000,2.212227783203125,0.26022860407829285,0.6377432942390442,0.3219259977340698
1782776360809216300,2.22221630859375,0.3219259977340698,0.5015203952789307,0.39217549562454224
1782776360819216000,2.2322158203125,0.34513887763023376,0.42210787534713745,0.45326200127601624
1782776360829204700,2.242204833984375,0.3323107063770294,0.37568211555480957,0.4966334402561188
1782776360839235800,2.25223583984375,0.30482175946235657,0.34758231043815613,0.523511528968811
1782776360849193700,2.26219384765625,0.27977627515792847,0.32681289315223694,0.5320636034011841
1782776360859225000,2.27222509765625,0.2632829248905182,0.2675589919090271,0.5088507533073425
1782776360869213200,2.282213134765625,0.242513507604599,0.15515977144241333,0.45265114307403564
1782776360879216000,2.292216064453125,0.2174680233001709,-0.015271631069481373,0.35735616087913513
1782776360889202200,2.3022021484375,0.20402899384498596,-0.25534167885780334,0.2021963894367218
1782776360899235600,2.312235595703125,0.1722639948129654,-0.5760459303855896,-0.010995574295520782
1782776360909191400,2.32219140625,0.14294247329235077,-0.912021815776825,-0.2834414839744568
1782776360919222300,2.33222216796875,0.05314527451992035,-1.2754865884780884,-0.7147123217582703
1782776360929211400,2.34221142578125,-0.08552113175392151,-1.3127493858337402,-0.9370672702789307
1782776360939211300,2.352211181640625,-0.2565633952617645,-1.1282681226730347,-1.0348057746887207
1782776360949200100,2.3622001953125,-0.4056145250797272,-0.7092145681381226,-0.9944885969161987
1782776360959230700,2.372230712890625,-0.49357911944389343,-0.17043140530586243,-0.8515461683273315
1782776360969189400,2.382189453125,-0.5064072608947754,0.33169981837272644,-0.6621779203414917
1782776360979220500,2.392220458984375,-0.4508185386657715,0.6609562039375305,-0.46731191873550415
1782776360989209000,2.402208984375,-0.3591887652873993,0.7916813492774963,-0.28466320037841797
1782776360999209500,2.41220947265625,-0.26511552929878235,0.8026769161224365,-0.11545353382825851
1782776361009198000,2.422197998046875,-0.17348572611808777,0.7098253965377808,0.036651913076639175
1782776361019229000,2.43222900390625,-0.10934487730264664,0.5436700582504272,0.16493362188339233
1782776361029217500,2.442217529296875,-0.07269296050071716,0.37262779474258423,0.2620611786842346
1782776361039218200,2.45221826171875,-0.05925392732024193,0.22907446324825287,0.32498031854629517
1782776361049206300,2.462206298828125,-0.07269296050071716,0.10567969083786011,0.33719760179519653
1782776361059240000,2.472239990234375,-0.10262536257505417,-0.012828170321881771,0.2938261926174164
1782776361069195500,2.482195556640625,-0.14477506279945374,-0.1319468915462494,0.192422553896904
1782776361079228400,2.492228515625,-0.19303341209888458,-0.24617868661880493,0.05192354694008827
1782776361089215000,2.502215087890625,-0.24434609711170197,-0.33169981837272644,-0.10567969083786011
1782776361099217700,2.5122177734375,-0.2993239760398865,-0.3952298164367676,-0.25961771607398987
1782776361109204000,2.522203857421875,-0.35185837745666504,-0.43615779280662537,-0.38606682419776917
1782776361119235300,2.5322353515625,-0.40072759985923767,-0.4434881806373596,-0.4593706727027893
1782776361129193000,2.54219287109375,-0.4392121136188507,-0.4202753007411957,-0.4764748811721802
1782776361139224000,2.55222412109375,-0.4605923891067505,-0.39156460762023926,-0.44226643443107605
1782776361149212400,2.56221240234375,-0.46792277693748474,-0.3787364661693573,-0.37690386176109314
1782776361159213600,2.572213623046875,-0.4697553813457489,-0.394618958234787,-0.29993483424186707
1782776361169201700,2.58220166015625,-0.46792277693748474,-0.4349360466003418,-0.21930062770843506
1782776361179233000,2.59223291015625,-0.46792277693748474,-0.4764748811721802,-0.14416420459747314
1782776361189190700,2.602190673828125,-0.4801400899887085,-0.5167919993400574,-0.08124507963657379
1782776361199221800,2.6122216796875,-0.5076290369033813,-0.5528330206871033,-0.03420845419168472
1782776361209210000,2.622210205078125,-0.5516113042831421,-0.5754350423812866,-0.01466076634824276
1782776361219210000,2.6322099609375,-0.6133087277412415,-0.5919284224510193,-0.02871066704392433
1782776361229199000,2.64219921875,-0.6768386960029602,-0.6047565937042236,-0.07941248267889023
1782776361239260200,2.65226025390625,-0.7312057018280029,-0.6145304441452026,-0.1508837193250656
1782776361249188000,2.66218798828125,-0.7782423496246338,-0.6206390857696533,-0.21930062770843506
1782776361259218700,2.67221875,-0.826500654220581,-0.6096435189247131,-0.26939156651496887
1782776361269207600,2.68220751953125,-0.8839219808578491,-0.6047565937042236,-0.2974913716316223
1782776361279208000,2.6922080078125,-0.940732479095459,-0.6126978397369385,-0.3029891550540924
1782776361289288200,2.7022880859375,-0.9908234477043152,-0.6163630485534668,-0.2919935882091522
1782776361299228000,2.712227783203125,-1.0256427526474,-0.6108652353286743,-0.27488934993743896
1782776361309216300,2.72221630859375,-1.037249207496643,-0.5748242139816284,-0.24495697021484375
1782776361319217000,2.732216796875,-1.026253581047058,-0.5326744914054871,-0.19914206862449646
1782776361329205500,2.74220556640625,-1.009149432182312,-0.5668829679489136,-0.1661553531885147
1782776361339236000,2.752236083984375,-1.0012081861495972,-0.7910705208778381,-0.19792033731937408
1782776361349194000,2.762194091796875,-1.0183123350143433,-0.9578366875648499,-0.2779437005519867
1782776361359224800,2.772224853515625,-1.0659598112106323,-1.0464121103286743,-0.37262779474258423
1782776361369213700,2.782213623046875,-1.1453723907470703,-0.988990843296051,-0.44593164324760437
1782776361379213800,2.7922138671875,-1.2424999475479126,-0.8063421249389648,-0.47769662737846375
1782776361389203000,2.802202880859375,-1.3292428255081177,-0.5540547966957092,-0.47708576917648315
1782776361399233500,2.812233642578125,-1.3671164512634277,-0.3286454975605011,-0.4538728892803192
1782776361409192000,2.82219189453125,-1.3335188627243042,-0.2125810980796814,-0.41233405470848083
1782776361419223000,2.83222314453125,-1.2498302459716797,-0.20952677726745605,-0.3543018400669098
1782776361429211400,2.84221142578125,-1.1435397863388062,-0.29565876722335815,-0.27488934993743896
1782776361439212000,2.8522119140625,-1.034194827079773,-0.44104471802711487,-0.17470745742321014
1782776361449200400,2.862200439453125,-0.9376781582832336,-0.5925393104553223,-0.054367005825042725
1782776361458797000,2.871797119140625,-0.8686503767967224,-0.7153232097625732,0.07208210229873657
1782776361468755200,2.881755126953125,-0.8332201838493347,-0.7849618196487427,0.18997909128665924
1782776361478786000,2.8917861328125,-0.8338310718536377,-0.8161159753799438,0.27122417092323303
1782776361488774700,2.901774658203125,-0.8576548099517822,-0.8295549750328064,0.304210901260376
1782776361498774800,2.91177490234375,-0.8979719281196594,-0.8436049222946167,0.28527405858039856
1782776361508764000,2.921763916015625,-0.9547823667526245,-0.8460483551025391,0.22540926933288574
1782776361518794200,2.931794189453125,-1.027475357055664,-0.8399397134780884,0.1459967941045761
1782776361528783400,2.941783447265625,-1.1050552129745483,-0.8344419002532959,0.04398229718208313
1782776361538783200,2.951783203125,-1.166752576828003,-0.8307767510414124,-0.06658431142568588
1782776361548772400,2.9617724609375,-1.2113457918167114,-0.8161159753799438,-0.16065755486488342
1782776361558803000,2.971802978515625,-1.2443325519561768,-0.7574729323387146,-0.21868975460529327
1782776361568761000,2.981760986328125,-1.2779301404953003,-0.6707300543785095,-0.23945917189121246
1782776361578792200,2.991792236328125,-1.3115277290344238,-0.5778785347938538,-0.2278527319431305
1782776361588780800,3.00178076171875,-1.3371840715408325,-0.4893030524253845,-0.19608774781227112
1782776361598781200,3.01178125,-1.3487904071807861,-0.413555771112442,-0.1514945775270462
1782776361608769800,3.021769775390625,-1.3371840715408325,-0.375071257352829,-0.10567969083786011
1782776361618800600,3.031800537109375,-1.3054190874099731,-0.37079519033432007,-0.060475658625364304
1782776361628759000,3.041759033203125,-1.2565498352050781,-0.37568211555480957,-0.016493361443281174
1782776361638789600,3.05178955078125,-1.1948524713516235,-0.3988949954509735,0.015271631069481373
1782776361648778500,3.061778564453125,-1.1246029138565063,-0.43737950921058655,0.02932153269648552
1782776361658778400,3.0717783203125,-1.0500773191452026,-0.47769662737846375,0.02687807008624077
1782776361668767500,3.081767578125,-0.978606104850769,-0.523511528968811,0.005497787147760391
1782776361678798000,3.091798095703125,-0.921184778213501,-0.5613851547241211,-0.02871066704392433
1782776361688756500,3.101756591796875,-0.8796459436416626,-0.5858197808265686,-0.07024950534105301
1782776361698787300,3.111787353515625,-0.8546004891395569,-0.6114761233329773,-0.12400564551353455
1782776361708776200,3.121776123046875,-0.8411614298820496,-0.6383541822433472,-0.18936823308467865
1782776361718776000,3.131776123046875,-0.8387179970741272,-0.6536257863044739,-0.26145032048225403
1782776361728765200,3.14176513671875,-0.8521569967269897,-0.6572909951210022,-0.33108896017074585
1782776361738795800,3.151795654296875,-0.8710938692092896,-0.6346889734268188,-0.3891211748123169
1782776361748754200,3.161754150390625,-0.8875871896743774,-0.5815436840057373,-0.4294382631778717
1782776361758784800,3.17178466796875,-0.901637077331543,-0.48747047781944275,-0.4715879559516907
1782776361768773400,3.1817734375,-0.8955284357070923,-0.4202753007411957,-0.48808133602142334
1782776361778804200,3.19180419921875,-0.8808676600456238,-0.35674530267715454,-0.4917465150356293
1782776361788762600,3.2017626953125,-0.8582656979560852,-0.2987131178379059,-0.47769662737846375
1782776361798793500,3.21179345703125,-0.8252789378166199,-0.2278527319431305,-0.44287729263305664
1782776361808782000,3.221781982421875,-0.778853178024292,-0.15271630883216858,-0.39095374941825867
1782776361818782000,3.231781982421875,-0.7238753437995911,-0.07391469180583954,-0.3188716471195221
1782776361828770600,3.2417705078125,-0.66584312915802,-0.00733038317412138,-0.2321287989616394
1782776361838801200,3.25180126953125,-0.6114761233329773,0.039706241339445114,-0.13377949595451355
1782776361848759600,3.261759521484375,-0.5656611919403076,0.0708603709936142,-0.03420845419168472
1782776361858790400,3.271790283203125,-0.5265658497810364,0.0806342139840126,0.05009094998240471
1782776361868779300,3.281779296875,-0.4911356568336487,0.0861319974064827,0.11728613078594208
1782776361878779400,3.291779296875,-0.4648684561252594,0.10751228034496307,0.16798794269561768
1782776361888768300,3.301768310546875,-0.44776421785354614,0.12889257073402405,0.1973094791173935
1782776361898798600,3.311798583984375,-0.4245513379573822,0.14355333149433136,0.2021963894367218
1782776361908757200,3.32175732421875,-0.4001167416572571,0.15027284622192383,0.18631389737129211
1782776361918788000,3.3317880859375,-0.3738495409488678,0.15271630883216858,0.17287486791610718
1782776361928777200,3.341777099609375,-0.3439171314239502,0.16859880089759827,0.17104226350784302
1782776361938777300,3.35177734375,-0.3072652220726013,0.1716531366109848,0.18081611394882202
1782776361948766200,3.36176611328125,-0.252287358045578,0.1508837193250656,0.2028072625398636
1782776361958797800,3.3717978515625,-0.1771509200334549,0.11301007121801376,0.24434609711170197
1782776361968755200,3.381755126953125,-0.09468411654233932,0.04459316283464432,0.3017674386501312
1782776361978785800,3.391785888671875,-0.029932396486401558,-0.04703662544488907,0.35246923565864563
1782776361988774700,3.401774658203125,0.0024434609804302454,-0.1918116807937622,0.3585779070854187
1782776361998774800,3.41177490234375,-0.01160643994808197,-0.3836233615875244,0.2993239760398865
1782776362008764000,3.421763916015625,-0.05803219974040985,-0.5070181488990784,0.1814269721508026
1782776362018794200,3.431794189453125,-0.1313360333442688,-0.5155702829360962,0.0354301854968071
1782776362028783400,3.441783447265625,-0.2370157092809677,-0.39095374941825867,-0.10506882518529892
1782776362038783200,3.451783203125,-0.3738495409488678,-0.1258382350206375,-0.2028072625398636
1782776362048772400,3.4617724609375,-0.5119050741195679,0.2028072625398636,-0.24434609711170197
1782776362058803000,3.471802978515625,-0.6139195561408997,0.5112941861152649,-0.2321287989616394
1782776362068761300,3.48176123046875,-0.6487388610839844,0.7538077235221863,-0.1820378452539444
1782776362078792400,3.49179248046875,-0.6230825781822205,0.8784242272377014,-0.11545353382825851
1782776362088780800,3.50178076171875,-0.5516113042831421,0.8845328688621521,-0.039095375686883926
1782776362098781400,3.511781494140625,-0.46242499351501465,0.8124507665634155,0.051312681287527084
1782776362108770000,3.52177001953125,-0.375071257352829,0.6957755088806152,0.15027284622192383
1782776362119075800,3.532075927734375,-0.3017674386501312,0.5522221922874451,0.24862214922904968
1782776362128758800,3.5417587890625,-0.26083946228027344,0.41233405470848083,0.32681289315223694
1782776362138790400,3.551790283203125,-0.24678955972194672,0.2968805134296417,0.37262779474258423
1782776362148778500,3.561778564453125,-0.2565633952617645,0.21074850857257843,0.3830125033855438
1782776362158779000,3.57177880859375,-0.28099802136421204,0.16859880089759827,0.3585779070854187
1782776362168767500,3.581767578125,-0.3084869384765625,0.16065755486488342,0.2932153046131134
1782776362178798600,3.591798583984375,-0.3439171314239502,0.13011430203914642,0.12278391420841217
1782776362188756500,3.601756591796875,-0.36102136969566345,0.10445795953273773,-0.012217304669320583
1782776362198787800,3.611787841796875,-0.37568211555480957,0.07147123664617538,-0.14477506279945374
1782776362208776000,3.62177587890625,-0.384845107793808,0.018325956538319588,-0.26022860407829285
1782776362218776800,3.63177685546875,-0.39156460762023926,-0.048258353024721146,-0.3481931984424591
1782776362228765200,3.64176513671875,-0.4105014503002167,-0.11789698898792267,-0.4001167416572571
1782776362238796300,3.65179638671875,-0.44165557622909546,-0.1814269721508026,-0.42210787534713745
1782776362248754000,3.66175390625,-0.4789183437824249,-0.27061331272125244,-0.4245513379573822
1782776362258784800,3.67178466796875,-0.5216789245605469,-0.3433062732219696,-0.4043927788734436
1782776362268773400,3.6817734375,-0.5803219676017761,-0.36713001132011414,-0.3640756905078888
1782776362278804200,3.69180419921875,-0.656069278717041,-0.323147714138031,-0.31031954288482666
1782776362288762600,3.7017626953125,-0.7348709106445312,-0.21563543379306793,-0.24984388053417206
1782776362298793200,3.711793212890625,-0.8124507665634155,-0.05925392732024193,-0.18936823308467865
1782776362308782000,3.721781982421875,-0.8772025108337402,0.11667526513338089,-0.1313360333442688
1782776362318782200,3.7317822265625,-0.9352346658706665,0.25961771607398987,-0.08246681094169617
1782776362338801700,3.7518017578125,-1.0696250200271606,0.30482175946235657,-0.012217304669320583
1782776362348760000,3.761760009765625,-1.1453723907470703,0.25534167885780334,0.01160643994808197
1782776362358791000,3.771791015625,-1.216843605041504,0.18814650177955627,0.02321287989616394
1782776362368779500,3.781779541015625,-1.2901474237442017,0.1270599663257599,0.02932153269648552
1782776362378779600,3.791779541015625,-1.368949055671692,0.0659734457731247,0.01771509274840355
1782776362388768500,3.8017685546875,-1.4489723443984985,-0.00855211354792118,-0.024434609338641167
1782776362398799000,3.811799072265625,-1.522887110710144,-0.07941248267889023,-0.08735372871160507
1782776362408757800,3.8217578125,-1.5931365489959717,-0.11728613078594208,-0.17104226350784302
1782776362418789000,3.8317890625,-1.6566665172576904,-0.13927727937698364,-0.26633724570274353
1782776362428777200,3.841777099609375,-1.7134770154953003,-0.1466076523065567,-0.3549126982688904
1782776362438777900,3.85177783203125,-1.7446311712265015,-0.12950342893600464,-0.42577308416366577
1782776362448766200,3.86176611328125,-1.7482963800430298,-0.12034045159816742,-0.46792277693748474
1782776362458798000,3.871798095703125,-1.7342463731765747,-0.152105450630188,-0.485027015209198
1782776362468755200,3.881755126953125,-1.7140878438949585,-0.23640485107898712,-0.475253164768219
1782776362478787300,3.891787353515625,-1.690264105796814,-0.34758231043815613,-0.4251621961593628
1782776362488774700,3.901774658203125,-1.662164330482483,-0.4599815309047699,-0.3445279896259308
1782776362498776300,3.9117763671875,-1.642616629600525,-0.5864306092262268,-0.2480112910270691
1782776362508764000,3.921763916015625,-1.6242907047271729,-0.7238753437995911,-0.12767083942890167
1782776362518795300,3.931795166015625,-1.6096298694610596,-0.8478809595108032,0.012217304669320583
1782776362528783400,3.941783447265625,-1.6297885179519653,-0.9639453291893005,0.16065755486488342
1782776362538783500,3.951783447265625,-1.6829338073730469,-1.072068452835083,0.3029891550540924
1782776362548772000,3.961772216796875,-1.7702875137329102,-1.158811330795288,0.4239404797554016
1782776362558803000,3.971802978515625,-1.8723019361495972,-1.19607412815094,0.5198463201522827
1782776362568761300,3.98176123046875,-1.9834794998168945,-1.2137892246246338,0.588874101638794
1782776362578792000,3.9917919921875,-2.1032090187072754,-1.2217304706573486,0.6230825781822205
1782776362588780800,4.00178076171875,-2.244929790496826,-1.2431107759475708,0.6249151229858398
1782776362598781200,4.01178125,-2.41719388961792,-1.2944234609603882,0.6096435189247131
1782776362608770000,4.02177001953125,-2.668870210647583,-1.4141530990600586,0.5412266254425049
1782776362618861600,4.031861572265625,-2.816699743270874,-1.5247195959091187,0.48685958981513977
1782776362628759000,4.041759033203125,-2.930931329727173,-1.6603317260742188,0.4282165467739105
1782776362638789400,4.051789306640625,-2.9987375736236572,-1.794722080230713,0.3591887652873993
1782776362648778500,4.061778564453125,-3.017674207687378,-1.9058995246887207,0.2828305959701538
1782776362658778600,4.071778564453125,-2.9993484020233154,-2.010357618331909,0.2021963894367218
1782776362668767500,4.081767578125,-2.967583417892456,-2.1563544273376465,0.14049901068210602
1782776362678798600,4.091798583984375,-2.919325113296509,-2.3322834968566895,0.09957103431224823
1782776362688756500,4.101756591796875,-2.8606820106506348,-2.459954261779785,0.08674286305904388
1782776362698788400,4.111788330078125,-2.8185322284698486,-2.5424211025238037,0.08368854224681854
1782776362708776000,4.12177587890625,-2.7879889011383057,-2.590679407119751,0.06963863968849182
1782776362718777300,4.13177734375,-2.7592782974243164,-2.604118585586548,0.036041051149368286
1782776362728765200,4.14176513671875,-2.7293457984924316,-2.6108381748199463,-0.031154127791523933
1782776362738795800,4.151795654296875,-2.722015619277954,-2.6847527027130127,-0.14782938361167908
1782776362748754200,4.161754150390625,-2.7482826709747314,-2.867401361465454,-0.3243694305419922
1782776362758785800,4.171785888671875,-2.710409164428711,-2.7824912071228027,-0.4813618063926697
1782776362768773400,4.1817734375,-2.6389379501342773,-2.632829189300537,-0.6285803318023682
1782776362778805500,4.191805419921875,-2.5857925415039062,-2.5528059005737305,-0.7825183868408203
1782776362788762600,4.2017626953125,-2.543642997741699,-2.412306785583496,-0.9169087409973145
1782776362798794500,4.21179443359375,-2.4886651039123535,-2.180788993835449,-1.018923282623291
1782776362808782300,4.2217822265625,-2.4080307483673096,-1.945605754852295,-1.0971139669418335
1782776362818782500,4.231782470703125,-2.2962424755096436,-1.7635679244995117,-1.150259256362915
1782776362828770600,4.2417705078125,-2.152078151702881,-1.6682729721069336,-1.168585181236267
1782776362838802700,4.251802734375,-1.9804251194000244,-1.660942554473877,-1.149037480354309
1782776362848759600,4.261759521484375,-1.7904460430145264,-1.7024813890457153,-1.1007791757583618
1782776362858791400,4.27179150390625,-1.5864170789718628,-1.7678439617156982,-1.0403034687042236
1782776362868779000,4.281779052734375,-1.389107584953308,-1.8570303916931152,-0.9731083512306213
1782776362878779000,4.29177880859375,-1.2119566202163696,-1.9492709636688232,-0.9004153609275818
1782776362888768000,4.30176806640625,-1.0726794004440308,-2.0280725955963135,-0.8106181621551514
1782776362898798600,4.311798583984375,-0.9718865752220154,-2.0134117603302,-0.694553792476654
1782776362908757200,4.32175732421875,-0.9205739498138428,-1.8759671449661255,-0.5558874011039734
1782776362918788000,4.3317880859375,-0.9071348905563354,-1.613295078277588,-0.4092797040939331
1782776362928777200,4.341777099609375,-0.9230173826217651,-1.273043155670166,-0.2681698501110077
1782776362938777000,4.351777099609375,-0.9651671051979065,-0.9108000993728638,-0.1362229436635971
1782776362948766000,4.361765869140625,-1.024420976638794,-0.5766568183898926,-0.01038470957428217
1782776362958797000,4.371797119140625,-1.0855075120925903,-0.2993239760398865,0.09468411654233932
1782776362968755200,4.381755126953125,-1.1282681226730347,-0.06963863968849182,0.16371189057826996
1782776362978785800,4.391785888671875,-1.1343767642974854,0.09224065393209457,0.18936823308467865
1782776362988775000,4.40177490234375,-1.1172724962234497,0.16065755486488342,0.16798794269561768
1782776362998777000,4.411777099609375,-1.0885618925094604,0.17898350954055786,0.10934487730264664
1782776363008764000,4.421763916015625,-1.0659598112106323,0.17898350954055786,0.021991148591041565
1782776363018796500,4.431796630859375,-1.0580185651779175,0.1514945775270462,-0.08246681094169617
1782776363028783400,4.441783447265625,-1.0769554376602173,0.06475171446800232,-0.2638937830924988
1782776363038785500,4.45178564453125,-1.1117748022079468,-0.00855211354792118,-0.3891211748123169
1782776363048772000,4.461772216796875,-1.156978726387024,-0.0959058403968811,-0.50335294008255
1782776363058805800,4.4718056640625,-1.1966849565505981,-0.15332718193531036,-0.5913175344467163
1782776363068761300,4.48176123046875,-1.2223412990570068,-0.15515977144241333,-0.6450737118721008
1782776363078794800,4.491794677734375,-1.2467759847640991,-0.10323622822761536,-0.6627888083457947
1782776363088780800,4.50178076171875,-1.2809844017028809,-0.027488935738801956,-0.645684540271759
1782776363098781700,4.51178173828125,-1.318858027458191,0.06291911751031876,-0.5992587804794312
1782776363108770000,4.52177001953125,-1.3628404140472412,0.1466076523065567,-0.5369505286216736
1782776363118770200,4.531770263671875,-1.4080443382263184,0.19120082259178162,-0.4740314185619354
1782776363128850400,4.541850341796875,-1.4489723443984985,0.2168571650981903,-0.4153883755207062
1782776363138790400,4.551790283203125,-1.4776830673217773,0.23457226157188416,-0.3695734739303589
1782776363148778500,4.561778564453125,-1.492343783378601,0.2370157092809677,-0.33719760179519653
1782776363158779400,4.571779296875,-1.4917329549789429,0.2321287989616394,-0.31581732630729675
1782776363168767200,4.581767333984375,-1.4776830673217773,0.22479841113090515,-0.3023782968521118
1782776363178798600,4.591798583984375,-1.4495831727981567,0.2272418737411499,-0.2834414839744568
1782776363188716300,4.60171630859375,-1.4086552858352661,0.2626720666885376,-0.24923302233219147
1782776363198848800,4.611848876953125,-1.359786033630371,0.3396410644054413,-0.19486601650714874
1782776363208776000,4.62177587890625,-1.3225232362747192,0.44226643443107605,-0.13072516024112701
1782776363218776800,4.63177685546875,-1.2889256477355957,0.5387831330299377,-0.07696902006864548
1782776363228765200,4.64176513671875,-1.2583824396133423,0.5845980644226074,-0.03237585723400116
1782776363238826500,4.651826416015625,-1.225395679473877,0.598647952079773,0.003054326167330146
1782776363248754000,4.66175390625,-1.1985175609588623,0.5852088928222656,0.030543262138962746
1782776363258785300,4.671785400390625,-1.1691961288452148,0.5375614166259766,0.0507018156349659
1782776363268773400,4.6817734375,-1.1258246898651123,0.4648684561252594,0.07635815441608429
1782776363278804700,4.6918046875,-1.053742527961731,0.38606682419776917,0.11484266817569733
1782776363288722400,4.701722412109375,-0.9523389339447021,0.3170390725135803,0.16920967400074005
1782776363298824000,4.711823974609375,-0.8240572214126587,0.2632829248905182,0.2382374405860901
1782776363309706800,4.722706787109375,-0.6707300543785095,0.20952677726745605,0.3225368559360504
1782776363328771000,4.74177099609375,-0.3481931984424591,0.07452555745840073,0.5461135506629944
1782776363338801700,4.7518017578125,-0.23518311977386475,0.005497787147760391,0.6670648455619812
1782776363348760000,4.761760009765625,-0.2076941877603531,-0.07452555745840073,0.7513642311096191
1782776363358793000,4.77179296875,-0.2919935882091522,-0.19058994948863983,0.7709119319915771
1782776363368779500,4.781779541015625,-0.48319441080093384,-0.34513887763023376,0.7293730974197388
1782776363378780000,4.79177978515625,-0.7422012686729431,-0.5473352670669556,0.6401867866516113
1782776363389608000,4.80260791015625,-1.0629055500030518,-0.8558222055435181,0.5265658497810364
1782776363408757800,4.8217578125,-1.1062769889831543,-0.9871582388877869,0.5375614166259766
1782776363418789000,4.8317890625,-1.0115928649902344,-0.8863654732704163,0.6261368989944458
1782776363428777200,4.841777099609375,-0.8753699064254761,-0.626747727394104,0.749531626701355
1782776363438778000,4.851778076171875,-0.7397578358650208,-0.27550023794174194,0.8570439219474792
1782776363448766000,4.861765869140625,-0.5766568183898926,0.19792033731937408,0.8698720932006836
1782776363458766300,4.871766357421875,-0.4954117238521576,0.4178318381309509,0.7470881938934326
1782776363468806700,4.881806640625,-0.4447098970413208,0.5803219676017761,0.5375614166259766
1782776363478848800,4.891848876953125,-0.43615779280662537,0.656680166721344,0.26083946228027344
1782776363488774700,4.901774658203125,-0.4599815309047699,0.655458390712738,-0.05925392732024193
1782776363498744600,4.91174462890625,-0.4990769028663635,0.5503895878791809,-0.4031710624694824
1782776363511083300,4.924083251953125,-0.5455026626586914,0.39156460762023926,-0.7464773058891296
1782776363528783400,4.941783447265625,-0.6536257863044739,0.02382374368607998,-1.3158037662506104
1782776363538783200,4.951783203125,-0.675616979598999,-0.1869247704744339,-1.510058879852295
1782776363548772400,4.9617724609375,-0.6444628238677979,-0.3878994286060333,-1.6322319507598877
1782776363558803000,4.971802978515625,-0.5552765130996704,-0.6010913848876953,-1.6988162994384766
1782776363568761300,4.98176123046875,-0.42577308416366577,-0.8002334833145142,-1.7067575454711914
1782776363578731000,4.99173095703125,-0.27977627515792847,-0.9291260242462158,-1.645671010017395
1782776363589588200,5.002588134765625,-0.15577064454555511,-0.9260717034339905,-1.5076154470443726
1782776363608831000,5.0218310546875,-0.039095375686883926,-0.5491678714752197,-1.1288789510726929
1782776363618770200,5.031770263671875,-0.05375614017248154,-0.30604347586631775,-0.9468411207199097
1782776363630890500,5.043890380859375,-0.13439035415649414,-0.10323622822761536,-0.837496280670166
1782776363648778500,5.061778564453125,-0.33597588539123535,0.12034045159816742,-0.8961393237113953
1782776363658779000,5.07177880859375,-0.44837507605552673,0.09040805697441101,-1.0219775438308716
1782776363668767500,5.081767578125,-0.5259549617767334,0.06719517707824707,-1.1270463466644287
1782776363678798600,5.091798583984375,-0.5186246037483215,0.16371189057826996,-1.140485405921936
1782776363688756500,5.101756591796875,-0.44593164324760437,0.33169981837272644,-1.0757336616516113
1782776363698786800,5.111786865234375,-0.3488040566444397,0.48685958981513977,-0.9437867999076843
1782776363708776200,5.121776123046875,-0.26511552929878235,0.5949827432632446,-0.7745771408081055
1782776363718775800,5.13177587890625,-0.20830504596233368,0.6407976150512695,-0.6108652353286743
1782776363728765200,5.14176513671875,-0.16249015927314758,0.6359107494354248,-0.4715879559516907
1782776363738795500,5.15179541015625,-0.12461651116609573,0.5937610268592834,-0.3646865487098694
1782776363748754200,5.161754150390625,-0.10323622822761536,0.5290092825889587,-0.30054569244384766
1782776363758784800,5.17178466796875,-0.09285151958465576,0.46547931432724,-0.2730567753314972
1782776363768773400,5.1817734375,-0.08429940044879913,0.38667771220207214,-0.26939156651496887
1782776363778804200,5.19180419921875,-0.07024950534105301,0.30115658044815063,-0.2730567753314972
1782776363788762600,5.2017626953125,-0.05619960278272629,0.22540926933288574,-0.27000242471694946
1782776363798793200,5.211793212890625,-0.04459316283464432,0.16798794269561768,-0.2638937830924988
1782776363808782300,5.2217822265625,-0.04092797264456749,0.1215621829032898,-0.26633724570274353
1782776363818781200,5.23178125,-0.029932396486401558,0.06963863968849182,-0.2834414839744568
1782776363828770600,5.2417705078125,-0.006108652334660292,0.02932153269648552,-0.2981022298336029
1782776363838801700,5.2518017578125,0.006108652334660292,-0.005497787147760391,-0.29993483424186707
1782776363848759600,5.261759521484375,0.0012217304902151227,-0.0757472887635231,-0.2883284091949463
1782776363858791000,5.271791015625,-0.01466076634824276,-0.2015855312347412,-0.25106561183929443
1782776363868779300,5.281779296875,-0.08307767659425735,-0.4245513379573822,-0.13744467496871948
1782776363878780000,5.29177978515625,-0.17531833052635193,-0.607810914516449,-0.06475171446800232
1782776363888768000,5.30176806640625,-0.30115658044815063,-0.7831292152404785,-0.02076941914856434
1782776363898799400,5.31179931640625,-0.4434881806373596,-0.8888089060783386,0
1782776363908757200,5.32175732421875,-0.5815436840057373,-0.9040805697441101,-0.005497787147760391
1782776363918788900,5.331788818359375,-0.6988298296928406,-0.8503243923187256,-0.01466076634824276
1782776363928777500,5.341777587890625,-0.789237916469574,-0.7269296646118164,-0.02382374368607998
1782776363938778000,5.351778076171875,-0.8411614298820496,-0.5461135506629944,-0.021991148591041565
1782776363948766200,5.36176611328125,-0.8558222055435181,-0.3390302062034607,-0.00855211354792118
1782776363958797600,5.371797607421875,-0.8344419002532959,-0.17043140530586243,0.0024434609804302454
1782776363968755200,5.381755126953125,-0.788627028465271,-0.08307767659425735,0.00733038317412138
1782776363978786600,5.39178662109375,-0.7305948138237,-0.08368854224681854,0.00855211354792118
1782776363988774700,5.401774658203125,-0.6426302194595337,-0.15515977144241333,0.02871066704392433
1782776363998775600,5.411775634765625,-0.5277875661849976,-0.27550023794174194,0.08246681094169617
1782776364008764000,5.421763916015625,-0.4056145250797272,-0.4807509481906891,0.17409659922122955
1782776364018795300,5.431795166015625,-0.2871066629886627,-0.7037167549133301,0.2938261926174164
1782776364028783400,5.441783447265625,-0.2028072625398636,-0.8955284357070923,0.43127086758613586
1782776364038784300,5.4517841796875,-0.17409659922122955,-1.064738154411316,0.5577199459075928
1782776364048772000,5.461772216796875,-0.21563543379306793,-1.2321151494979858,0.6603453159332275
1782776364058802700,5.471802734375,-0.3017674386501312,-1.3555099964141846,0.7104362845420837
1782776364068761300,5.48176123046875,-0.4178318381309509,-1.423926830291748,0.6890559792518616
1782776364078792400,5.49179248046875,-0.5180137157440186,-1.4581353664398193,0.5797111392021179
1782776364088780800,5.50178076171875,-0.5949827432632446,-1.4508049488067627,0.3952298164367676
1782776364098781400,5.511781494140625,-0.6334672570228577,-1.4110987186431885,0.16432274878025055
1782776364108770000,5.52177001953125,-0.637132465839386,-1.3445143699645996,-0.06902777403593063
1782776364118801200,5.53180126953125,-0.6023131608963013,-1.2150110006332397,-0.27122417092323303
1782776364128759000,5.541759033203125,-0.5436700582504272,-1.081842303276062,-0.4398229718208313
1782776364138790100,5.5517900390625,-0.5015203952789307,-1.0586295127868652,-0.588263213634491
1782776364148778500,5.561778564453125,-0.5186246037483215,-1.1606439352035522,-0.7263187766075134
1782776364158779100,5.571779052734375,-0.6017022728919983,-1.3060299158096313,-0.8839219808578491
1782776364168767200,5.581767333984375,-0.7086036801338196,-1.398881435394287,-1.0598511695861816
1782776364178798600,5.591798583984375,-0.8423831462860107,-1.3811663389205933,-1.228450059890747
1782776364188756500,5.601756591796875,-0.9523389339447021,-1.2424999475479126,-1.3652838468551636
1782776364198788000,5.6117880859375,-1.015868902206421,-1.015868902206421,-1.4373658895492554
1782776364208776000,5.62177587890625,-1.0305296182632446,-0.7189884185791016,-1.416596531867981
1782776364218777000,5.631777099609375,-0.9859365224838257,-0.36713001132011414,-1.289536476135254
1782776364228765200,5.64176513671875,-0.8991936445236206,-0.019547687843441963,-1.0806206464767456
1782776364238796800,5.651796875,-0.7861835956573486,0.2272418737411499,-0.8307767510414124
1782776364248754200,5.661754150390625,-0.6615670323371887,0.32620203495025635,-0.5613851547241211
1782776364258785800,5.671785888671875,-0.5357288122177124,0.2687807083129883,-0.3023782968521118
1782776364268733400,5.6817333984375,-0.42088615894317627,0.13316862285137177,-0.08796459436416626
1782776364278866400,5.691866455078125,-0.33475416898727417,-0.08674286305904388,0.06902777403593063
1782776364288722400,5.701722412109375,-0.2620611786842346,-0.20402899384498596,0.22357667982578278
1782776364298824000,5.711823974609375,-0.2382374405860901,-0.24556782841682434,0.3127630054950714
1782776364309953800,5.722953857421875,-0.18570303916931152,-0.20952677726745605,0.40256020426750183
1782776364328771000,5.74177099609375,-0.03420845419168472,-0.05253441259264946,0.4911356568336487
1782776364338803000,5.751802978515625,0.039095375686883926,-0.00366519158706069,0.4440990388393402
1782776364348760300,5.76176025390625,0.11911872029304504,0.1258382350206375,0.39217549562454224
1782776364358791400,5.77179150390625,0.17592918872833252,0.21991148591041565,0.34574973583221436
1782776364368779500,5.781779541015625,0.16798794269561768,0.1875356286764145,0.29138273000717163
1782776364378779600,5.791779541015625,0.10751228034496307,0.10934487730264664,0.23335053026676178
1782776364388768500,5.8017685546875,0.03420845419168472,0.051312681287527084,0.17043140530586243
1782776364398799000,5.811799072265625,-0.019547687843441963,0.04948008432984352,0.1007927656173706
1782776364408757800,5.8217578125,-0.04886921867728233,0.06475171446800232,0.02871066704392433
1782776364418788000,5.8317880859375,-0.0708603709936142,0.08368854224681854,-0.04764748737215996
1782776364428777500,5.841777587890625,-0.0806342139840126,0.1215621829032898,-0.11484266817569733
1782776364438777000,5.851777099609375,-0.07024950534105301,0.19120082259178162,-0.15760323405265808
1782776364448766200,5.86176611328125,-0.03176499158143997,0.2767219543457031,-0.16982053220272064
1782776364458797600,5.871797607421875,0.021991148591041565,0.3695734739303589,-0.14966198801994324
1782776364468755200,5.881755126953125,0.08491026610136032,0.4544837474822998,-0.09407325088977814
1782776364478786300,5.891786376953125,0.16371189057826996,0.5241223573684692,-0.0012217304902151227
1782776364488774700,5.901774658203125,0.26083946228027344,0.5772676467895508,0.1264491081237793
1782776364498775300,5.911775390625,0.34513887763023376,0.616973876953125,0.2583959996700287
1782776364508764000,5.921763916015625,0.3793473243713379,0.6340781450271606,0.35552358627319336
1782776364518794000,5.9317939453125,0.3842342495918274,0.6053674817085266,0.4178318381309509
1782776364528783000,5.941783203125,0.3738495409488678,0.5564982295036316,0.4337143301963806
1782776364538783500,5.951783447265625,0.3604104816913605,0.5161811113357544,0.4092797040939331
1782776364548772400,5.9617724609375,0.3579670190811157,0.4954117238521576,0.3579670190811157
1782776364558803000,5.971802978515625,0.3597996234893799,0.4789183437824249,0.2877175211906433
1782776364568761300,5.98176123046875,0.37079519033432007,0.45692721009254456,0.22540926933288574
1782776364578792700,5.991792724609375,0.39095374941825867,0.4184426963329315,0.17837265133857727
1782776364588780800,6.00178076171875,0.42088615894317627,0.3677408695220947,0.1514945775270462
1782776364598781700,6.01178173828125,0.4538728892803192,0.32681289315223694,0.13927727937698364
1782776364608769800,6.021769775390625,0.4703662395477295,0.32620203495025635,0.13011430203914642
1782776364618801200,6.03180126953125,0.45814892649650574,0.37140607833862305,0.09468411654233932
1782776364630409200,6.0434091796875,0.45753806829452515,0.46547931432724,0.01710422709584236
1782776364648778500,6.061778564453125,0.48380526900291443,0.5406157374382019,-0.06230825558304787
1782776364658779000,6.07177880859375,0.4990769028663635,0.5760459303855896,-0.10873401165008545
1782776364668767500,6.081767578125,0.5143485069274902,0.5852088928222656,-0.14233160018920898
1782776364678798600,6.091798583984375,0.5381723046302795,0.5619960427284241,-0.1563815027475357
1782776364688756500,6.101756591796875,0.5668829679489136,0.5271766781806946,-0.15821409225463867
1782776364698787800,6.111787841796875,0.5919284224510193,0.5009095072746277,-0.1716531366109848
1782776364708776000,6.12177587890625,0.6328563690185547,0.5491678714752197,-0.19792033731937408
1782776364718776800,6.13177685546875,0.6701191663742065,0.6505714654922485,-0.20097467303276062
1782776364728765200,6.14176513671875,0.7226535677909851,0.7574729323387146,-0.1820378452539444
1782776364738796500,6.151796630859375,0.788627028465271,0.8619308471679688,-0.15577064454555511
1782776364748754200,6.161754150390625,0.8692612648010254,0.9682214260101318,-0.11362093687057495
1782776364758785300,6.171785400390625,1.0036516189575195,1.024420976638794,-0.024434609338641167
1782776364768773600,6.181773681640625,1.168585181236267,0.9859365224838257,0.11545353382825851
1782776364778804700,6.1918046875,1.2858713865280151,0.8228355050086975,0.2370157092809677
1782776364788762600,6.2017626953125,1.2999212741851807,0.5455026626586914,0.252287358045578
1782776364798793500,6.21179345703125,1.1655309200286865,0.27122417092323303,0.10934487730264664
1782776364808782000,6.221781982421875,0.9199630618095398,0.11423180252313614,-0.1814269721508026
1782776364818781400,6.231781494140625,0.6988298296928406,0.13316862285137177,-0.5002986192703247
1782776364828770600,6.2417705078125,0.5674937963485718,0.30115658044815063,-0.720820963382721
1782776364838802200,6.25180224609375,0.5338962078094482,0.5528330206871033,-0.7910705208778381
1782776364848759600,6.261759521484375,0.5900958180427551,0.7476990818977356,-0.7134906053543091
1782776364858760200,6.27176025390625,0.7385360598564148,0.8222246170043945,-0.5180137157440186
1782776364868800500,6.281800537109375,0.9615018963813782,0.8057312369346619,-0.2541199326515198
1782776364878840800,6.2918408203125,1.1832460165023804,0.7764097452163696,0.051312681287527084
1782776364888829200,6.3018291015625,1.3054190874099731,0.7996225953102112,0.34025195240974426
1782776364898800000,6.311800048828125,1.3151928186416626,0.9034696817398071,0.5534439086914062
1782776364908757200,6.32175732421875,1.2663236856460571,1.0427470207214355,0.6872233748435974
1782776364918789000,6.3317890625,1.1771373748779297,1.1612548828125,0.7422012686729431
1782776364928777200,6.341777099609375,1.0543533563613892,1.2064588069915771,0.7250970602035522
1782776364938778000,6.351778076171875,0.9242390990257263,1.1520918607711792,0.6395758986473083
1782776364948766000,6.361765869140625,0.8240572214126587,1.0054842233657837,0.5180137157440186
1782776364958796800,6.371796875,0.7629706859588623,0.7947356700897217,0.37140607833862305
1782776364968755200,6.381755126953125,0.7470881938934326,0.5393940210342407,0.2125810980796814
1782776364978785800,6.391785888671875,0.769079327583313,0.2767219543457031,0.05619960278272629
1782776364988775000,6.40177490234375,0.8100073337554932,0.04948008432984352,-0.07391469180583954
1782776364998775000,6.411775146484375,0.8448266386985779,-0.1111774742603302,-0.16798794269561768
1782776365008764000,6.421763916015625,0.8613200187683105,-0.21624629199504852,-0.23151792585849762
1782776365018795500,6.43179541015625,0.8472700715065002,-0.3323107063770294,-0.29565876722335815
1782776365028783400,6.441783447265625,0.7971791625022888,-0.4550946056842804,-0.37751471996307373
1782776365038784500,6.451784423828125,0.7263187766075134,-0.5424483418464661,-0.46547931432724
1782776365048772000,6.461772216796875,0.6414085030555725,-0.5815436840057373,-0.5277875661849976
1782776365058804200,6.47180419921875,0.5601634383201599,-0.5314527750015259,-0.5442809462547302
1782776365068761300,6.48176123046875,0.5057964324951172,-0.384845107793808,-0.5027421116828918
1782776365078793000,6.49179296875,0.4954117238521576,-0.17898350954055786,-0.39706242084503174
1782776365088780800,6.50178076171875,0.5369505286216736,0.036651913076639175,-0.24495697021484375
1782776365098782200,6.5117822265625,0.6328563690185547,0.22113321721553802,-0.06963863968849182
1782776365108769800,6.521769775390625,0.749531626701355,0.3591887652873993,0.09407325088977814
1782776365118801700,6.5318017578125,0.8319984674453735,0.4178318381309509,0.21807889640331268
1782776365128759000,6.541759033203125,0.8600982427597046,0.3952298164367676,0.28466320037841797
1782776365138790400,6.551790283203125,0.8338310718536377,0.2877175211906433,0.2974913716316223
1782776365148778500,6.561778564453125,0.7898487448692322,0.20952677726745605,0.251676470041275
1782776365158779400,6.571779296875,0.7287622094154358,0.13988813757896423,0.16493362188339233
1782776365168767500,6.581767578125,0.6499606370925903,0.07513642311096191,0.04703662544488907
1782776365178798600,6.591798583984375,0.5668829679489136,0.009773843921720982,-0.08368854224681854
1782776365188756500,6.601756591796875,0.49724429845809937,-0.05192354694008827,-0.19975294172763824
1782776365198787600,6.61178759765625,0.4489859640598297,-0.0910189226269722,-0.2828305959701538
1782776365208776000,6.62177587890625,0.42577308416366577,-0.11301007121801376,-0.3286454975605011
1782776365218776800,6.63177685546875,0.4337143301963806,-0.12095131725072861,-0.33536502718925476
1782776365228765200,6.64176513671875,0.4660901725292206,-0.1319468915462494,-0.3078760802745819
1782776365238824700,6.65182470703125,0.4954117238521576,-0.15271630883216858,-0.2528982162475586
1782776365248754000,6.66175390625,0.5106833577156067,-0.1814269721508026,-0.18325957655906677
1782776365258785000,6.671784912109375,0.5100724697113037,-0.2119702398777008,-0.10873401165008545
1782776365268773600,6.681773681640625,0.4948008358478546,-0.2278527319431305,-0.03726277872920036
1782776365278804700,6.6918046875,0.4715879559516907,-0.2376265823841095,0.02871066704392433
1782776365288762600,6.7017626953125,0.44226643443107605,-0.26145032048225403,0.08368854224681854
1782776365298794000,6.7117939453125,0.4092797040939331,-0.3066543638706207,0.12034045159816742
1782776365308782000,6.721781982421875,0.3830125033855438,-0.36163222789764404,0.14049901068210602
1782776365318783000,6.731782958984375,0.3604104816913605,-0.41661009192466736,0.13377949595451355
1782776365328771000,6.74177099609375,0.34636059403419495,-0.45692721009254456,0.12217304855585098
1782776365338802200,6.75180224609375,0.33475416898727417,-0.48380526900291443,0.1215621829032898
1782776365348760000,6.761760009765625,0.3219259977340698,-0.4990769028663635,0.1362229436635971
1782776365358791400,6.77179150390625,0.303600013256073,-0.4948008358478546,0.17104226350784302
1782776365368779500,6.781779541015625,0.29016098380088806,-0.4703662395477295,0.22418753802776337
1782776365378749400,6.79174951171875,0.2883284091949463,-0.42271876335144043,0.30604347586631775
1782776365388789500,6.80178955078125,0.29504790902137756,-0.33719760179519653,0.42210787534713745
1782776365398860800,6.81186083984375,0.3121521472930908,-0.20891591906547546,0.5558874011039734
1782776365408757800,6.8217578125,0.3090978264808655,-0.17776179313659668,0.6261368989944458
1782776365418788900,6.831788818359375,0.30543261766433716,-0.35674530267715454,0.6145304441452026
1782776365428777200,6.841777099609375,0.2987131178379059,-0.6059783101081848,0.5626068711280823
1782776365438777000,6.851777099609375,0.2382374405860901,-0.8106181621551514,0.4605923891067505
1782776365448766200,6.86176611328125,0.10873401165008545,-0.9144652485847473,0.31520646810531616
1782776365458796800,6.871796875,-0.06963863968849182,-0.9169087409973145,0.15332718193531036
1782776365468715000,6.881715087890625,-0.24923302233219147,-0.8790351152420044,0.001832595793530345
1782776365478846700,6.8918466796875,-0.3604104816913605,-0.7654141783714294,-0.06841690838336945
1782776365488774700,6.901774658203125,-0.39767327904701233,-0.5467243790626526,-0.036651913076639175
1782776365498774500,6.9117744140625,-0.40256020426750183,-0.32131510972976685,0.054367005825042725
1782776365508763600,6.921763671875,-0.4196644127368927,-0.17104226350784302,0.15027284622192383
1782776365518795500,6.93179541015625,-0.4495968222618103,-0.0959058403968811,0.2431243658065796
1782776365528783000,6.941783203125,-0.47280970215797424,-0.06108652427792549,0.3378084897994995
1782776365538784800,6.95178466796875,-0.48197266459465027,-0.060475658625364304,0.42210787534713745
1782776365548772400,6.9617724609375,-0.46547931432724,-0.0757472887635231,0.4789183437824249
1782776365558804200,6.97180419921875,-0.3738495409488678,-0.07147123664617538,0.513737678527832
1782776365568761300,6.98176123046875,-0.294437050819397,-0.04398229718208313,0.5064072608947754
1782776365578792400,6.99179248046875,-0.23518311977386475,-0.009773843921720982,0.4715879559516907
1782776365590000000,7.003000244140625,-0.2125810980796814,0.007941247895359993,0.4153883755207062
1782776365608729900,7.021729736328125,-0.25473082065582275,-0.08674286305904388,0.2632829248905182
1782776365618861600,7.031861572265625,-0.3072652220726013,-0.16432274878025055,0.1612684279680252
1782776365628759000,7.041759033203125,-0.37201693654060364,-0.22602014243602753,0.036651913076639175
1782776365638789400,7.051789306640625,-0.4355469346046448,-0.2474004179239273,-0.11178833991289139
1782776365648778500,7.061778564453125,-0.4709770977497101,-0.20463985204696655,-0.2571742534637451
1782776365658778600,7.071778564453125,-0.4807509481906891,-0.11178833991289139,-0.3927863538265228
1782776365668767500,7.081767578125,-0.46792277693748474,0.015882495790719986,-0.4960225820541382
1782776365678797800,7.0917978515625,-0.4447098970413208,0.17837265133857727,-0.5485569834709167
1782776365688756500,7.101756591796875,-0.42210787534713745,0.3585779070854187,-0.5265658497810364
1782776365698787600,7.11178759765625,-0.40194934606552124,0.5204572081565857,-0.4184426963329315
1782776365708735700,7.12173583984375,-0.3628539443016052,0.6359107494354248,-0.23884831368923187
1782776365718837200,7.131837158203125,-0.3023782968521118,0.6829473376274109,-0.019547687843441963
1782776365728826000,7.141826171875,-0.22052235901355743,0.6621779203414917,0.1966986060142517
1782776365738796300,7.15179638671875,-0.12828169763088226,0.6004805564880371,0.3793473243713379
1782776365748754000,7.16175390625,-0.0403171069920063,0.494189977645874,0.5112941861152649
1782776365758785300,7.171785400390625,0.03787364438176155,0.3695734739303589,0.5937610268592834
1782776365768773400,7.1817734375,0.09407325088977814,0.2541199326515198,0.6291912198066711
1782776365778804700,7.1918046875,0.12828169763088226,0.15577064454555511,0.6102544069290161
1782776365788762600,7.2017626953125,0.15882496535778046,0.08429940044879913,0.5442809462547302
1782776365798793700,7.211793701171875,0.18081611394882202,0.04337143152952194,0.44715335965156555
1782776365808782000,7.221781982421875,0.18936823308467865,0.036651913076639175,0.3274237811565399
1782776365818781700,7.23178173828125,0.1814269721508026,0.05375614017248154,0.20402899384498596
1782776365828770600,7.2417705078125,0.16859880089759827,0.08735372871160507,0.09773843735456467
1782776365838802000,7.251802001953125,0.14355333149433136,0.12278391420841217,0.015882495790719986
1782776365848759600,7.261759521484375,0.1160643994808197,0.1508837193250656,-0.03481931984424591
1782776365858790700,7.271790771484375,0.08979719132184982,0.17776179313659668,-0.05925392732024193
1782776365868779300,7.281779296875,0.07208210229873657,0.21135938167572021,-0.05925392732024193
1782776365878780000,7.29177978515625,0.07147123664617538,0.24373523890972137,-0.039706241339445114
1782776365888768300,7.301768310546875,0.08735372871160507,0.2730567753314972,-0.009773843921720982
1782776365898798600,7.311798583984375,0.12461651116609573,0.29993483424186707,0.036651913076639175
1782776365908757200,7.32175732421875,0.18387043476104736,0.3176499307155609,0.08979719132184982
1782776365918788900,7.331788818359375,0.24923302233219147,0.31520646810531616,0.13866640627384186
1782776365928777000,7.34177685546875,0.31031954288482666,0.30054569244384766,0.17104226350784302
1782776365938777900,7.35177783203125,0.3543018400669098,0.28527405858039856,0.18325957655906677
1782776365948766200,7.36176611328125,0.38179078698158264,0.2871066629886627,0.16432274878025055
1782776365958797600,7.371797607421875,0.40133845806121826,0.3017674386501312,0.1319468915462494
1782776365968755200,7.381755126953125,0.4098905920982361,0.32070425152778625,0.08124507963657379
1782776365978786600,7.39178662109375,0.41599923372268677,0.3433062732219696,0.00427605677396059
1782776365988775000,7.40177490234375,0.4190535545349121,0.35735616087913513,-0.02382374368607998
1782776365998775600,7.411775634765625,0.42577308416366577,0.36529740691185,-0.02871066704392433
1782776366008764000,7.421763916015625,0.44226643443107605,0.3842342495918274,-0.027488935738801956
1782776366018795300,7.431795166015625,0.475253164768219,0.4697553813457489,-0.012828170321881771
1782776366028783400,7.441783447265625,0.5528330206871033,0.5876523852348328,0.027488935738801956
1782776366038783700,7.45178369140625,0.6737843751907349,0.6041457056999207,0.10201449692249298
1782776366048772400,7.4617724609375,0.779464066028595,0.4856378734111786,0.16249015927314758
1782776366058803700,7.4718037109375,0.8063421249389648,0.2883284091949463,0.15027284622192383
1782776366068761000,7.481760986328125,0.7159340381622314,0.06291911751031876,0.02871066704392433
1782776366078792000,7.4917919921875,0.5155702829360962,-0.12400564551353455,-0.17837265133857727
1782776366088780800,7.50178076171875,0.27488934993743896,-0.19486601650714874,-0.4098905920982361
1782776366098781000,7.511781005859375,0.0806342139840126,-0.06658431142568588,-0.5619960427284241
1782776366108770000,7.52177001953125,-0.03481931984424591,0.2272418737411499,-0.5943718552589417
1782776366118801400,7.531801513671875,-0.05375614017248154,0.5320636034011841,-0.5271766781806946
1782776366128759000,7.541759033203125,0.056810468435287476,0.759305477142334,-0.39706242084503174
1782776366138789400,7.551789306640625,0.2785545587539673,0.8704829812049866,-0.24862214922904968
1782776366148778500,7.561778564453125,0.5607742667198181,0.8778133392333984,-0.10445795953273773
1782776366158778400,7.5717783203125,0.8423831462860107,0.799011766910553,0.02321287989616394
1782776366168767500,7.581767578125,1.0293079614639282,0.6914994716644287,0.12889257073402405
1782776366178798600,7.591798583984375,1.0824532508850098,0.637132465839386,0.2119702398777008
1782776366188756500,7.601756591796875,1.0348057746887207,0.6194173693656921,0.2620611786842346
1782776366198787800,7.611787841796875,0.9236282706260681,0.6157521605491638,0.27488934993743896
1782776366208776000,7.62177587890625,0.7941248416900635,0.6188064813613892,0.24495697021484375
1782776366218776800,7.63177685546875,0.6707300543785095,0.6102544069290161,0.182648703455925
1782776366228765200,7.64176513671875,0.5717698931694031,0.5729916095733643,0.09162978827953339
1782776366238795500,7.65179541015625,0.5186246037483215,0.5082398653030396,0.012217304669320583
1782776366248754200,7.661754150390625,0.5222898125648499,0.44287729263305664,-0.04398229718208313
1782776366258784800,7.67178466796875,0.5717698931694031,0.35063666105270386,-0.07452555745840073
1782776366268773400,7.6817734375,0.6414085030555725,0.21624629199504852,-0.08735372871160507
1782776366278804000,7.691803955078125,0.7104362845420837,0.05742133408784866,-0.09651670604944229
1782776366288762600,7.7017626953125,0.7721336483955383,-0.11301007121801376,-0.11056660860776901
1782776366298794500,7.71179443359375,0.8148942589759827,-0.27611109614372253,-0.1514945775270462
1782776366308782000,7.721781982421875,0.8069530129432678,-0.4178318381309509,-0.23457226157188416
1782776366318783000,7.731782958984375,0.7446447610855103,-0.49296826124191284,-0.3390302062034607
1782776366328771300,7.741771240234375,0.6493497490882874,-0.46731191873550415,-0.4337143301963806
1782776366338802700,7.751802734375,0.5198463201522827,-0.34758231043815613,-0.5100724697113037
1782776366348760300,7.76176025390625,0.3878994286060333,-0.1417207419872284,-0.5540547966957092
1782776366358792000,7.7717919921875,0.30543261766433716,0.11362093687057495,-0.5479460954666138
1782776366368779500,7.781779541015625,0.29993483424186707,0.3237585723400116,-0.4917465150356293
1782776366378780700,7.79178076171875,0.3597996234893799,0.41661009192466736,-0.4129449129104614
1782776366388768500,7.8017685546875,0.44837507605552673,0.40744712948799133,-0.33047810196876526
1782776366398800600,7.811800537109375,0.5711590051651001,0.30604347586631775,-0.21380282938480377
1782776366408757800,7.8217578125,0.6249151229858398,0.22357667982578278,-0.1508837193250656
1782776366418789000,7.8317890625,0.645684540271759,0.15760323405265808,-0.10690141469240189
1782776366428777500,7.841777587890625,0.6346889734268188,0.12889257073402405,-0.08857546001672745
1782776366438778000,7.851778076171875,0.5925393104553223,0.10934487730264664,-0.10201449692249298
1782776366448766200,7.86176611328125,0.5357288122177124,0.07330382615327835,-0.14294247329235077
1782776366458797600,7.871797607421875,0.48197266459465027,0.015882495790719986,-0.19853121042251587
1782776366468755200,7.881755126953125,0.43188172578811646,-0.04153883829712868,-0.24678955972194672
1782776366478755300,7.89175537109375,0.38606682419776917,-0.02076941914856434,-0.25595253705978394
1782776366488835800,7.9018359375,0.3549126982688904,0.009773843921720982,-0.23518311977386475
1782776366498775600,7.911775634765625,0.3439171314239502,-0.014049900695681572,-0.20036379992961884
1782776366508764000,7.921763916015625,0.3732386529445648,-0.08552113175392151,-0.14782938361167908
1782776366518795300,7.931795166015625,0.4105014503002167,-0.18997909128665924,-0.09651670604944229
1782776366528783400,7.941783447265625,0.4129449129104614,-0.2217440903186798,0.004886921960860491
1782776366538784300,7.9517841796875,0.384845107793808,-0.3878994286060333,0.039706241339445114
1782776366548772400,7.9617724609375,0.38728857040405273,-0.5491678714752197,-0.003054326167330146
1782776366558803700,7.9718037109375,0.3927863538265228,-0.5393940210342407,-0.05497787147760391
1782776366568761000,7.981760986328125,0.3793473243713379,-0.513126790523529,-0.08857546001672745
1782776366578792400,7.99179248046875,0.3341432809829712,-0.5051855444908142,-0.0861319974064827
1782776366588780800,8.00178076171875,0.2681698501110077,-0.4703662395477295,-0.04092797264456749
