time,seconds_elapsed,z,y,x
1782777585422741200,0.1907412109375,0.7000515460968018,-0.7721336483955383,0.8057312369346619
1782777585433317400,0.2013173828125,0.7000515460968018,-0.7721336483955383,0.8057312369346619
1782777585443310800,0.211310791015625,0.7000515460968018,-0.7721336483955383,0.8057312369346619
1782777585453337000,0.221337158203125,0.7000515460968018,-0.7721336483955383,0.8057312369346619
1782777585463300000,0.231300048828125,-0.13439035415649414,-0.35124751925468445,0.34208452701568604
1782777585473326300,0.241326416015625,-0.14233160018920898,-0.34025195240974426,0.40194934606552124
1782777585483319600,0.251319580078125,-0.15454891324043274,-0.29993483424186707,0.4453207552433014
1782777585493315000,0.261315185546875,-0.1722639948129654,-0.27550023794174194,0.45204028487205505
1782777585503308500,0.27130859375,-0.1918116807937622,-0.29565876722335815,0.4184426963329315
1782777585513339400,0.28133935546875,-0.22296582162380219,-0.34513887763023376,0.3536909818649292
1782777585523297800,0.2912978515625,-0.252287358045578,-0.3793473243713379,0.2773328125476837
1782777585533328600,0.30132861328125,-0.28038713335990906,-0.39584067463874817,0.192422553896904
1782777585543317200,0.311317138671875,-0.3023782968521118,-0.42088615894317627,0.09773843735456467
1782777585553317600,0.321317626953125,-0.2981022298336029,-0.4349360466003418,0.022602014243602753
1782777585563306200,0.33130615234375,-0.2767219543457031,-0.43188172578811646,-0.02382374368607998
1782777585573337000,0.341337158203125,-0.27550023794174194,-0.38179078698158264,-0.0555887371301651
1782777585583295200,0.351295166015625,-0.30054569244384766,-0.3378084897994995,-0.07635815441608429
1782777585593326000,0.361326171875,-0.33169981837272644,-0.403781920671463,-0.0959058403968811
1782777585603314700,0.371314697265625,-0.38728857040405273,-0.5180137157440186,-0.17104226350784302
1782777585613345300,0.38134521484375,-0.4691445231437683,-0.6310238242149353,-0.3225368559360504
1782777585623304000,0.391303955078125,-0.5705481171607971,-0.7244861721992493,-0.5186246037483215
1782777585633334800,0.401334716796875,-0.6908885836601257,-0.7562511563301086,-0.7049384713172913
1782777585643293000,0.41129296875,-0.7764097452163696,-0.6914994716644287,-0.827111542224884
1782777585653324500,0.421324462890625,-0.8014551997184753,-0.5833762884140015,-0.8655960559844971
1782777585663312100,0.43131201171875,-0.7654141783714294,-0.4642575979232788,-0.8185594081878662
1782777585673313500,0.4413134765625,-0.6743952035903931,-0.36590829491615295,-0.694553792476654
1782777585683301400,0.45130126953125,-0.5552765130996704,-0.2742784917354584,-0.5253441333770752
1782777585693332700,0.461332763671875,-0.4386012554168701,-0.18570303916931152,-0.3549126982688904
1782777585703320800,0.47132080078125,-0.3488040566444397,-0.11728613078594208,-0.2223549485206604
1782777585713321500,0.481321533203125,-0.30115658044815063,-0.07696902006864548,-0.13500121235847473
1782777585723309800,0.491309814453125,-0.28955012559890747,-0.04886921867728233,-0.08674286305904388
1782777585733340700,0.501340576171875,-0.2919935882091522,-0.014049900695681572,-0.06719517707824707
1782777585743299000,0.511299072265625,-0.28466320037841797,0.024434609338641167,-0.06230825558304787
1782777585753330000,0.521329833984375,-0.24923302233219147,0.07391469180583954,-0.05253441259264946
1782777585763318500,0.531318603515625,-0.2015855312347412,0.04703662544488907,-0.03787364438176155
1782777585773319000,0.54131884765625,-0.14355333149433136,-0.031154127791523933,-0.01160643994808197
1782777585783307500,0.5513076171875,-0.09834930300712585,-0.14294247329235077,0.015271631069481373
1782777585793338600,0.561338623046875,-0.07513642311096191,-0.2681698501110077,0.033597588539123535
1782777585803296500,0.571296630859375,-0.06963863968849182,-0.37690386176109314,0.05619960278272629
1782777585813326600,0.58132666015625,-0.08491026610136032,-0.4141666293144226,0.07880161702632904
1782777585823315000,0.59131494140625,-0.13377949595451355,-0.3891211748123169,0.07635815441608429
1782777585833315300,0.6013154296875,-0.20891591906547546,-0.30604347586631775,0.036651913076639175
1782777585843304400,0.611304443359375,-0.2822197377681732,-0.17592918872833252,-0.024434609338641167
1782777585853334800,0.621334716796875,-0.3194825351238251,-0.04642575979232788,-0.08246681094169617
1782777585863293400,0.63129345703125,-0.3084869384765625,0.05009094998240471,-0.1111774742603302
1782777585873325000,0.641324951171875,-0.26022860407829285,0.1264491081237793,-0.08124507963657379
1782777585883313200,0.651313232421875,-0.19425514340400696,0.1814269721508026,0.009162978269159794
1782777585893313500,0.6613134765625,-0.11972958594560623,0.20891591906547546,0.1459967941045761
1782777585903302000,0.671302001953125,-0.051312681287527084,0.21135938167572021,0.2981022298336029
1782777585913333000,0.6813330078125,-0.001832595793530345,0.19608774781227112,0.4306600093841553
1782777585923291600,0.691291748046875,0.025045474991202354,0.1661553531885147,0.5100724697113037
1782777585933321700,0.70132177734375,0.03481931984424591,0.13255776464939117,0.5296201705932617
1782777585943310800,0.711310791015625,0.0354301854968071,0.08735372871160507,0.4801400899887085
1782777585953341400,0.721341552734375,0.033597588539123535,0.03420845419168472,0.37201693654060364
1782777585963300000,0.731300048828125,0.033597588539123535,-0.018325956538319588,0.22663100063800812
1782777585973330400,0.741330322265625,0.033597588539123535,-0.03848451003432274,0.07757988572120667
1782777585983319600,0.751319580078125,0.015882495790719986,-0.03481931984424591,-0.0555887371301651
1782777585993320200,0.7613203125,-0.01771509274840355,-0.03848451003432274,-0.14233160018920898
1782777586003308800,0.771308837890625,-0.04703662544488907,-0.039706241339445114,-0.17531833052635193
1782777586013339600,0.781339599609375,-0.05742133408784866,-0.036041051149368286,-0.1667662113904953
1782777586023297800,0.7912978515625,-0.04703662544488907,-0.05253441259264946,-0.13744467496871948
1782777586033328600,0.80132861328125,-0.02015855349600315,-0.07513642311096191,-0.09407325088977814
1782777586043317200,0.811317138671875,0.01038470957428217,-0.08979719132184982,-0.048258353024721146
1782777586053317600,0.821317626953125,0.03237585723400116,-0.09529497474431992,-0.01038470957428217
1782777586063306200,0.83130615234375,0.03787364438176155,-0.07941248267889023,0.006719517521560192
1782777586073337000,0.841337158203125,0.03298672288656235,-0.04581489413976669,-0.010995574295520782
1782777586083295200,0.851295166015625,0.015882495790719986,-0.005497787147760391,-0.06963863968849182
1782777586093326000,0.861326171875,0.001832595793530345,0.04703662544488907,-0.1417207419872284
1782777586103314700,0.871314697265625,-0.007941247895359993,0.09529497474431992,-0.2168571650981903
1782777586113315300,0.8813154296875,-0.010995574295520782,0.13011430203914642,-0.2730567753314972
1782777586123304000,0.891303955078125,-0.0012217304902151227,0.1514945775270462,-0.29565876722335815
1782777586133334500,0.90133447265625,0.019547687843441963,0.16920967400074005,-0.28466320037841797
1782777586143293000,0.91129296875,0.05192354694008827,0.19792033731937408,-0.24495697021484375
1782777586153323800,0.92132373046875,0.08429940044879913,0.22907446324825287,-0.18081611394882202
1782777586163312000,0.93131201171875,0.10690141469240189,0.24862214922904968,-0.09773843735456467
1782777586173312800,0.941312744140625,0.12461651116609573,0.24984388053417206,0.04764748737215996
1782777586183301400,0.95130126953125,0.13072516024112701,0.24495697021484375,0.1270599663257599
1782777586193332500,0.96133251953125,0.13805554807186127,0.23457226157188416,0.16737708449363708
1782777586203320800,0.97132080078125,0.15332718193531036,0.22663100063800812,0.17287486791610718
1782777586213321500,0.981321533203125,0.16310101747512817,0.20891591906547546,0.14966198801994324
1782777586223309800,0.991309814453125,0.16432274878025055,0.1918116807937622,0.10567969083786011
1782777586233341000,1.0013408203125,0.15332718193531036,0.18081611394882202,0.05314527451992035
1782777586243299000,1.011299072265625,0.12400564551353455,0.17470745742321014,0.006108652334660292
1782777586253330000,1.021329833984375,0.08918632566928864,0.17043140530586243,-0.030543262138962746
1782777586263318300,1.031318359375,0.06780604273080826,0.17043140530586243,-0.039095375686883926
1782777586273319000,1.04131884765625,0.04581489413976669,0.2076941877603531,-0.013439035043120384
1782777586283307500,1.0513076171875,0.02076941914856434,0.2974913716316223,0.030543262138962746
1782777586293338400,1.06133837890625,0.004886921960860491,0.40194934606552124,0.08124507963657379
1782777586303296500,1.071296630859375,0.009162978269159794,0.5229006409645081,0.13805554807186127
1782777586313327400,1.081327392578125,0.04886921867728233,0.598647952079773,0.1820378452539444
1782777586323316000,1.09131591796875,0.11423180252313614,0.5338962078094482,0.1869247704744339
1782777586333316400,1.10131640625,0.18387043476104736,0.27488934993743896,0.13072516024112701
1782777586343305000,1.111304931640625,0.23518311977386475,-0.18570303916931152,0.03237585723400116
1782777586353336300,1.12133642578125,0.26083946228027344,-0.7550294399261475,-0.08918632566928864
1782777586363294000,1.1312939453125,0.26145032048225403,-1.1643091440200806,-0.20463985204696655
1782777586373324500,1.141324462890625,0.2168571650981903,-1.2486085891723633,-0.2767219543457031
1782777586383313400,1.1513134765625,0.11239920556545258,-0.9437867999076843,-0.26450464129447937
1782777586393313300,1.161313232421875,-0.03787364438176155,-0.3903428912162781,-0.18325957655906677
1782777586403302700,1.171302734375,-0.17592918872833252,0.21441370248794556,-0.07757988572120667
1782777586413334000,1.181333984375,-0.26633724570274353,0.6988298296928406,-0.012217304669320583
1782777586423291600,1.191291748046875,-0.3023782968521118,0.9651671051979065,-0.01710422709584236
1782777586433323000,1.201322998046875,-0.2767219543457031,1.062294602394104,-0.05253441259264946
1782777586443310800,1.211310791015625,-0.20097467303276062,1.0464121103286743,-0.07208210229873657
1782777586453342500,1.221342529296875,-0.10262536257505417,0.9615018963813782,-0.039095375686883926
1782777586463300000,1.231300048828125,-0.0006108652451075613,0.8405506014823914,0.04764748737215996
1782777586473331700,1.241331787109375,0.09834930300712585,0.6731734871864319,0.15577064454555511
1782777586483319600,1.251319580078125,0.19058994948863983,0.475253164768219,0.24678955972194672
1782777586493320700,1.26132080078125,0.2773328125476837,0.27611109614372253,0.3017674386501312
1782777586503308500,1.27130859375,0.35185837745666504,0.09651670604944229,0.3194825351238251
1782777586513340400,1.28134033203125,0.394008070230484,-0.05009094998240471,0.3066543638706207
1782777586523297800,1.2912978515625,0.3995058834552765,-0.14416420459747314,0.27611109614372253
1782777586533329000,1.301328857421875,0.37140607833862305,-0.20525072515010834,0.22418753802776337
1782777586543317200,1.311317138671875,0.3182607889175415,-0.26633724570274353,0.14233160018920898
1782777586553317400,1.3213173828125,0.242513507604599,-0.30604347586631775,0.042760565876960754
1782777586563306000,1.331305908203125,0.13805554807186127,-0.33169981837272644,-0.06536258012056351
1782777586573336300,1.34133642578125,0.00855211354792118,-0.34758231043815613,-0.1716531366109848
1782777586583295200,1.351295166015625,-0.12400564551353455,-0.36163222789764404,-0.25595253705978394
1782777586593325600,1.36132568359375,-0.25045475363731384,-0.33047810196876526,-0.3078760802745819
1782777586603315000,1.37131494140625,-0.3885102868080139,-0.2583959996700287,-0.294437050819397
1782777586613315800,1.38131591796875,-0.43127086758613586,-0.16310101747512817,-0.24617868661880493
1782777586623304000,1.391303955078125,-0.4355469346046448,-0.05619960278272629,-0.16920967400074005
1782777586633335600,1.40133544921875,-0.39156460762023926,0.05742133408784866,-0.08674286305904388
1782777586643293000,1.41129296875,-0.3219259977340698,0.16249015927314758,0.001832595793530345
1782777586653324500,1.421324462890625,-0.25473082065582275,0.23396138846874237,0.0861319974064827
1782777586663312400,1.4313125,-0.2223549485206604,0.23396138846874237,0.15271630883216858
1782777586673312800,1.441312744140625,-0.2278527319431305,0.17287486791610718,0.19303341209888458
1782777586683301400,1.45130126953125,-0.2577851414680481,0.07696902006864548,0.19792033731937408
1782777586693332500,1.46133251953125,-0.2974913716316223,-0.018936822190880775,0.16859880089759827
1782777586703320800,1.47132080078125,-0.33597588539123535,-0.07819075137376785,0.11178833991289139
1782777586713321500,1.481321533203125,-0.3799581825733185,-0.1062905490398407,0.028099801391363144
1782777586723310000,1.49131005859375,-0.4349360466003418,-0.11423180252313614,-0.08307767659425735
1782777586733341200,1.501341064453125,-0.49357911944389343,-0.1215621829032898,-0.2125810980796814
1782777586743298800,1.511298828125,-0.5375614166259766,-0.13011430203914642,-0.34147366881370544
1782777586753330200,1.521330078125,-0.5723807215690613,-0.13316862285137177,-0.4660901725292206
1782777586763318300,1.531318359375,-0.588874101638794,-0.13866640627384186,-0.5754350423812866
1782777586773319000,1.54131884765625,-0.5894849896430969,-0.15027284622192383,-0.646295428276062
1782777586783307500,1.5513076171875,-0.5772676467895508,-0.16432274878025055,-0.655458390712738
1782777586793338400,1.56133837890625,-0.5510004758834839,-0.1661553531885147,-0.6059783101081848
1782777586803296500,1.571296630859375,-0.5241223573684692,-0.18936823308467865,-0.5155702829360962
1782777586813326600,1.58132666015625,-0.5015203952789307,-0.2382374405860901,-0.41111230850219727
1782777586823315000,1.59131494140625,-0.4697553813457489,-0.29626965522766113,-0.30054569244384766
1782777586833316000,1.601316162109375,-0.4386012554168701,-0.3494149148464203,-0.18875735998153687
1782777586843304400,1.611304443359375,-0.4282165467739105,-0.3927863538265228,-0.08552113175392151
1782777586853335600,1.62133544921875,-0.44287729263305664,-0.44226643443107605,0.003054326167330146
1782777586863293400,1.63129345703125,-0.4660901725292206,-0.4893030524253845,0.07513642311096191
1782777586873324500,1.641324462890625,-0.49235737323760986,-0.5027421116828918,0.1368338167667389
1782777586883313200,1.651313232421875,-0.513126790523529,-0.5125159621238708,0.18387043476104736
1782777586893313800,1.661313720703125,-0.5259549617767334,-0.5369505286216736,0.22540926933288574
1782777586903302100,1.67130224609375,-0.5412266254425049,-0.5656611919403076,0.26511552929878235
1782777586913333200,1.681333251953125,-0.5601634383201599,-0.6194173693656921,0.2938261926174164
1782777586923291400,1.69129150390625,-0.5839871764183044,-0.6866125464439392,0.30543261766433716
1782777586933321700,1.70132177734375,-0.6206390857696533,-0.7391469478607178,0.29077184200286865
1782777586943310800,1.711310791015625,-0.6682865619659424,-0.7580837607383728,0.25473082065582275
1782777586953341400,1.721341552734375,-0.7147123217582703,-0.7116580009460449,0.2070833146572113
1782777586963300000,1.731300048828125,-0.7489207983016968,-0.6432411074638367,0.15454891324043274
1782777586973331200,1.741331298828125,-0.7684684991836548,-0.6145304441452026,0.0910189226269722
1782777586983319600,1.751319580078125,-0.7849618196487427,-0.66584312915802,-0.0024434609804302454
1782777586993319700,1.761319580078125,-0.808174729347229,-0.8240572214126587,-0.13439035415649414
1782777587003308800,1.771308837890625,-0.8442157506942749,-1.047023057937622,-0.3090978264808655
1782777587013339000,1.7813388671875,-0.9065240025520325,-1.205847978591919,-0.4899139404296875
1782777587023297800,1.7912978515625,-1.0409144163131714,-1.1527026891708374,-0.6921103000640869
1782777587033327900,1.801327880859375,-1.147204875946045,-0.9266825914382935,-0.7415903806686401
1782777587043317200,1.811317138671875,-1.2345587015151978,-0.6243042945861816,-0.7244861721992493
1782777587053318400,1.821318359375,-1.2651019096374512,-0.33169981837272644,-0.6579018831253052
1782777587063306000,1.831305908203125,-1.2272282838821411,-0.09773843735456467,-0.5595525503158569
1782777587073337900,1.841337890625,-1.1203268766403198,0.04764748737215996,-0.4337143301963806
1782777587083295200,1.851295166015625,-0.970054030418396,0.07452555745840073,-0.2926044464111328
1782777587093327000,1.8613271484375,-0.8210029006004333,0.01160643994808197,-0.15454891324043274
1782777587103314700,1.871314697265625,-0.7037167549133301,-0.10201449692249298,-0.02626720629632473
1782777587113314300,1.881314208984375,-0.6407976150512695,-0.2125810980796814,0.08185594528913498
1782777587123303700,1.8913037109375,-0.6304129362106323,-0.29993483424186707,0.15943582355976105
1782777587133334000,1.901333984375,-0.6585127115249634,-0.37140607833862305,0.20463985204696655
1782777587143293000,1.91129296875,-0.7214318513870239,-0.44776421785354614,0.2125810980796814
1782777587153323300,1.9213232421875,-0.8210029006004333,-0.523511528968811,0.18875735998153687
1782777587163312000,1.93131201171875,-0.9456194043159485,-0.5919284224510193,0.14294247329235077
1782777587173312300,1.941312255859375,-1.0739010572433472,-0.6640105247497559,0.08735372871160507
1782777587183301400,1.95130126953125,-1.1930198669433594,-0.7202101349830627,0.027488935738801956
1782777587193331700,1.961331787109375,-1.292590856552124,-0.7360926270484924,-0.021991148591041565
1782777587203320800,1.97132080078125,-1.3799445629119873,-0.7018841505050659,-0.07880161702632904
1782777587213320700,1.98132080078125,-1.453248381614685,-0.6291912198066711,-0.152105450630188
1782777587223309800,1.991309814453125,-1.5039502382278442,-0.5412266254425049,-0.24434609711170197
1782777587233340200,2.001340087890625,-1.531439185142517,-0.45692721009254456,-0.3445279896259308
1782777587243298800,2.011298828125,-1.5503759384155273,-0.38667771220207214,-0.43615779280662537
1782777587253329400,2.021329345703125,-1.5680910348892212,-0.3335324227809906,-0.5057964324951172
1782777587263318300,2.031318359375,-1.5894713401794434,-0.29138273000717163,-0.5363397002220154
1782777587273318400,2.041318359375,-1.6035212278366089,-0.2535090744495392,-0.5241223573684692
1782777587283307300,2.051307373046875,-1.5968017578125,-0.22296582162380219,-0.45814892649650574
1782777587293337900,2.061337890625,-1.5693128108978271,-0.2064724564552307,-0.3488040566444397
1782777587303296500,2.071296630859375,-1.519832730293274,-0.20402899384498596,-0.21502456068992615
1782777587313327000,2.0813271484375,-1.4581353664398193,-0.2278527319431305,-0.08002334833145142
1782777587323316000,2.09131591796875,-1.3933836221694946,-0.2773328125476837,0.02626720629632473
1782777587333315800,2.10131591796875,-1.3365731239318848,-0.3323107063770294,0.09346238523721695
1782777587343305000,2.111304931640625,-1.2986994981765747,-0.36651915311813354,0.10873401165008545
1782777587353335600,2.12133544921875,-1.2724323272705078,-0.37262779474258423,0.08124507963657379
1782777587363294000,2.1312939453125,-1.2528846263885498,-0.35735616087913513,0.031154127791523933
1782777587373324500,2.141324462890625,-1.2479976415634155,-0.3323107063770294,-0.02871066704392433
1782777587383313400,2.1513134765625,-1.2608258724212646,-0.3084869384765625,-0.08674286305904388
1782777587393313500,2.1613134765625,-1.2919800281524658,-0.28955012559890747,-0.13805554807186127
1782777587403302700,2.171302734375,-1.3292428255081177,-0.2626720666885376,-0.16982053220272064
1782777587413333000,2.1813330078125,-1.3744467496871948,-0.21441370248794556,-0.18020524084568024
1782777587423291400,2.19129150390625,-1.4184291362762451,-0.16065755486488342,-0.18325957655906677
1782777587433322000,2.201322021484375,-1.4520267248153687,-0.10812314599752426,-0.1765400618314743
1782777587443311000,2.21131103515625,-1.4611896276474,-0.07635815441608429,-0.16249015927314758
1782777587453341700,2.221341796875,-1.4288138151168823,-0.045204028487205505,-0.1258382350206375
1782777587463300000,2.231300048828125,-1.387274980545044,-0.019547687843441963,-0.1062905490398407
1782777587473331200,2.241331298828125,-1.338405728340149,0.025045474991202354,-0.09651670604944229
1782777587483319600,2.251319580078125,-1.2822061777114868,0.09712757170200348,-0.09346238523721695
1782777587493320400,2.261320556640625,-1.226617455482483,0.19486601650714874,-0.09712757170200348
1782777587503308500,2.27130859375,-1.1722503900527954,0.3017674386501312,-0.11911872029304504
1782777587513340000,2.28133984375,-1.1117748022079468,0.3744603991508484,-0.16432274878025055
1782777587523297800,2.2912978515625,-1.053742527961731,0.41233405470848083,-0.22418753802776337
1782777587533329000,2.301328857421875,-1.0073168277740479,0.4050036668777466,-0.294437050819397
1782777587543317200,2.311317138671875,-0.9621127843856812,0.3579670190811157,-0.3683517575263977
1782777587553318000,2.32131787109375,-0.9089674949645996,0.27611109614372253,-0.4331034719944
1782777587563306200,2.33130615234375,-0.8405506014823914,0.20341812074184418,-0.4795292317867279
1782777587573337300,2.34133740234375,-0.7562511563301086,0.16371189057826996,-0.513737678527832
1782777587583295200,2.351295166015625,-0.6615670323371887,0.1459967941045761,-0.5296201705932617
1782777587593326000,2.361326171875,-0.5632177591323853,0.1270599663257599,-0.5210680365562439
1782777587603314700,2.371314697265625,-0.45814892649650574,0.09468411654233932,-0.4746423065662384
1782777587613343500,2.381343505859375,-0.34697145223617554,0.04703662544488907,-0.38667771220207214
1782777587623304000,2.391303955078125,-0.24373523890972137,0.030543262138962746,-0.26450464129447937
1782777587633334800,2.401334716796875,-0.15393804013729095,0.060475658625364304,-0.11545353382825851
1782777587643292700,2.411292724609375,-0.07635815441608429,0.14844025671482086,0.05192354694008827
1782777587653323500,2.421323486328125,-0.021991148591041565,0.20891591906547546,0.19120082259178162
1782777587663312400,2.4313125,0.013439035043120384,0.17043140530586243,0.2431243658065796
1782777587673312800,2.441312744140625,0.04153883829712868,0.027488935738801956,0.2021963894367218
1782777587683301400,2.45130126953125,0.05375614017248154,-0.18631389737129211,0.09346238523721695
1782777587693331700,2.461331787109375,0.021991148591041565,-0.38667771220207214,-0.0403171069920063
1782777587703320800,2.47132080078125,-0.05314527451992035,-0.4801400899887085,-0.15760323405265808
1782777587713321500,2.481321533203125,-0.1466076523065567,-0.4184426963329315,-0.23273965716362
1782777587724248600,2.49224853515625,-0.25045475363731384,-0.22602014243602753,-0.26572638750076294
1782777587743299000,2.511299072265625,-0.37201693654060364,0.30970868468284607,-0.21135938167572021
1782777587753330700,2.52133056640625,-0.3384193480014801,0.48319441080093384,-0.13255776464939117
1782777587763318300,2.531318359375,-0.2217440903186798,0.5534439086914062,-0.019547687843441963
1782777587773318700,2.541318603515625,-0.03726277872920036,0.5174028873443604,0.11728613078594208
1782777587783307300,2.551307373046875,0.1411098688840866,0.40744712948799133,0.2571742534637451
1782777587793338400,2.56133837890625,0.23273965716362,0.27611109614372253,0.3640756905078888
1782777587803296500,2.571296630859375,0.2278527319431305,0.1716531366109848,0.42699480056762695
1782777587813326800,2.581326904296875,0.1514945775270462,0.1362229436635971,0.45142942667007446
1782777587823315000,2.59131494140625,0.04398229718208313,0.18509216606616974,0.45204028487205505
1782777587833315800,2.60131591796875,-0.054367005825042725,0.24556782841682434,0.43188172578811646
1782777587843304400,2.611304443359375,-0.11850785464048386,0.25473082065582275,0.4001167416572571
1782777587853335800,2.621335693359375,-0.13927727937698364,0.2168571650981903,0.375071257352829
1782777587863293400,2.63129345703125,-0.11545353382825851,0.12828169763088226,0.3579670190811157
1782777587873324500,2.641324462890625,-0.019547687843441963,-0.11301007121801376,0.33292156457901
1782777587883313200,2.651313232421875,0.04886921867728233,-0.304210901260376,0.2926044464111328
1782777587893252400,2.66125244140625,0.07941248267889023,-0.4856378734111786,0.21441370248794556
1782777587903363300,2.67136328125,0.06291911751031876,-0.6236934065818787,0.09407325088977814
1782777587913333000,2.6813330078125,0.009773843921720982,-0.7238753437995911,-0.0555887371301651
1782777587923291600,2.691291748046875,-0.07696902006864548,-0.7959573864936829,-0.22418753802776337
1782777587933321700,2.70132177734375,-0.18936823308467865,-0.8283332586288452,-0.38240164518356323
1782777587943311000,2.71131103515625,-0.32070425152778625,-0.7812966704368591,-0.49296826124191284
1782777587953341200,2.721341064453125,-0.44776421785354614,-0.6298020482063293,-0.5210680365562439
1782777587963300000,2.731300048828125,-0.5381723046302795,-0.3878994286060333,-0.4593706727027893
1782777587973331700,2.741331787109375,-0.5650503635406494,-0.09285151958465576,-0.32559117674827576
1782777587983319600,2.751319580078125,-0.5302310585975647,0.18570303916931152,-0.1612684279680252
1782777587993320700,2.76132080078125,-0.4349360466003418,0.40683624148368835,-0.006108652334660292
1782777588003308500,2.77130859375,-0.32559117674827576,0.5345070958137512,0.11789698898792267
1782777588013340200,2.781340087890625,-0.23090706765651703,0.5711590051651001,0.21319197118282318
1782777588023297800,2.7912978515625,-0.1612684279680252,0.5485569834709167,0.29077184200286865
1782777588033329200,2.8013291015625,-0.1362229436635971,0.48197266459465027,0.34208452701568604
1782777588043317200,2.811317138671875,-0.15577064454555511,0.39095374941825867,0.3500257730484009
1782777588053317000,2.821317138671875,-0.2064724564552307,0.28527405858039856,0.3029891550540924
1782777588063306000,2.831305908203125,-0.2932153046131134,0.152105450630188,0.19792033731937408
1782777588073336600,2.841336669921875,-0.40683624148368835,0.021380282938480377,0.04703662544488907
1782777588083295200,2.851295166015625,-0.5241223573684692,-0.08307767659425735,-0.13377949595451355
1782777588093325600,2.86132568359375,-0.636521577835083,-0.15821409225463867,-0.31459560990333557
1782777588103315000,2.87131494140625,-0.7354817390441895,-0.17287486791610718,-0.47280970215797424
1782777588113314600,2.881314453125,-0.8222246170043945,-0.14844025671482086,-0.5955936312675476
1782777588123304000,2.891303955078125,-0.8991936445236206,-0.1417207419872284,-0.6719517707824707
1782777588133334000,2.901333984375,-0.9517280459403992,-0.16859880089759827,-0.7116580009460449
1782777588143292700,2.911292724609375,-0.9975429177284241,-0.23273965716362,-0.7067710757255554
1782777588153323000,2.921322998046875,-1.0396926403045654,-0.3029891550540924,-0.6633996367454529
1782777588163312400,2.9313125,-1.0885618925094604,-0.3781255781650543,-0.5962044596672058
1782777588173312000,2.94131201171875,-1.1362093687057495,-0.485027015209198,-0.5180137157440186
1782777588183301000,2.951301025390625,-1.1728612184524536,-0.5809328556060791,-0.4392121136188507
1782777588193331700,2.961331787109375,-1.2034045457839966,-0.6572909951210022,-0.3640756905078888
1782777588203320800,2.97132080078125,-1.2198978662490845,-0.7116580009460449,-0.29504790902137756
1782777588213320700,2.98132080078125,-1.2479976415634155,-0.7299839854240417,-0.22907446324825287
1782777588223309800,2.991309814453125,-1.3029755353927612,-0.7110471725463867,-0.16493362188339233
1782777588233279200,3.001279296875,-1.3829989433288574,-0.6951646208763123,-0.11301007121801376
1782777588243604000,3.01160400390625,-1.4685200452804565,-0.6731734871864319,-0.06291911751031876
1782777588253329400,3.021329345703125,-1.5467108488082886,-0.6530149579048157,-0.00427605677396059
1782777588263318300,3.031318359375,-1.6120734214782715,-0.6701191663742065,0.07757988572120667
1782777588273318400,3.041318359375,-1.6536122560501099,-0.7061602473258972,0.19058994948863983
1782777588283307300,3.051307373046875,-1.6847662925720215,-0.7263187766075134,0.33108896017074585
1782777588293337900,3.061337890625,-1.7623462677001953,-0.8649851679801941,0.4996877610683441
1782777588303296500,3.071296630859375,-1.8503108024597168,-1.1905763149261475,0.5009095072746277
1782777588313296400,3.08129638671875,-2.0036380290985107,-1.6768250465393066,0.37079519033432007
1782777588324149000,3.09214892578125,-2.241264581680298,-2.152689218521118,0.13072516024112701
1782777588343305000,3.111304931640625,-2.8490755558013916,-2.3298399448394775,-0.45204028487205505
1782777588353304800,3.121304931640625,-3.143512487411499,-2.0036380290985107,-0.7232644557952881
1782777588363987000,3.131987060546875,-3.383582592010498,-1.513113260269165,-0.9560040831565857
1782777588383313400,3.1513134765625,-3.5918877124786377,-0.6126978397369385,-1.301142930984497
1782777588393313300,3.161313232421875,-3.5601227283477783,-0.41233405470848083,-1.4117095470428467
1782777588403302700,3.171302734375,-3.4715471267700195,-0.3701843321323395,-1.4593570232391357
1782777588413333800,3.181333740234375,-3.347541570663452,-0.413555771112442,-1.4373658895492554
1782777588423291400,3.19129150390625,-3.2039883136749268,-0.4703662395477295,-1.3390166759490967
1782777588433291500,3.20129150390625,-3.0476067066192627,-0.4862487316131592,-1.1618657112121582
1782777588443249200,3.211249267578125,-2.878396987915039,-0.46364670991897583,-0.9095783233642578
1782777588453342000,3.221342041015625,-2.7097983360290527,-0.42760565876960754,-0.6120869517326355
1782777588463300000,3.231300048828125,-2.56257963180542,-0.42271876335144043,-0.30604347586631775
1782777588473330700,3.24133056640625,-2.4575109481811523,-0.44776421785354614,-0.03420845419168472
1782777588483319600,3.251319580078125,-2.3994786739349365,-0.5015203952789307,0.1722639948129654
1782777588493319700,3.261319580078125,-2.367713689804077,-0.5809328556060791,0.294437050819397
1782777588503308500,3.27130859375,-2.356107234954834,-0.6768386960029602,0.33475416898727417
1782777588513339100,3.281339111328125,-2.370157241821289,-0.7776314616203308,0.303600013256073
1782777588523297800,3.2912978515625,-2.4098634719848633,-0.8820894360542297,0.2119702398777008
1782777588533328100,3.301328125,-2.4611761569976807,-0.9828822016716003,0.06719517707824707
1782777588543317200,3.311317138671875,-2.5002715587615967,-1.0604621171951294,-0.10934487730264664
1782777588553317000,3.321317138671875,-2.5228734016418457,-1.0989465713500977,-0.29504790902137756
1782777588563306000,3.331305908203125,-2.5473079681396484,-1.1007791757583618,-0.46364670991897583
1782777588573336600,3.341336669921875,-2.5833492279052734,-1.0574077367782593,-0.5962044596672058
1782777588583295200,3.351295166015625,-2.629163980484009,-0.9902125597000122,-0.684779942035675
1782777588593325800,3.361325927734375,-2.6676485538482666,-0.9126327037811279,-0.7324274182319641
1782777588603314700,3.371314697265625,-2.6926939487457275,-0.808174729347229,-0.720820963382721
1782777588613314600,3.381314453125,-2.707354784011841,-0.6743952035903931,-0.6579018831253052
1782777588623303700,3.3913037109375,-2.7085764408111572,-0.5528330206871033,-0.5644394755363464
1782777588633334000,3.401333984375,-2.691472291946411,-0.4599815309047699,-0.46547931432724
1782777588643293000,3.41129296875,-2.65726375579834,-0.39645153284072876,-0.38240164518356323
1782777588653262300,3.421262451171875,-2.612670660018921,-0.35613444447517395,-0.323147714138031
1782777588663373300,3.431373291015625,-2.5723536014556885,-0.33108896017074585,-0.2889392673969269
1782777588673312300,3.441312255859375,-2.5473079681396484,-0.3127630054950714,-0.27122417092323303
1782777588683301400,3.45130126953125,-2.537534236907959,-0.2883284091949463,-0.2681698501110077
1782777588693301200,3.46130126953125,-2.540588617324829,-0.26572638750076294,-0.2785545587539673
1782777588703382000,3.471382080078125,-2.5521950721740723,-0.24984388053417206,-0.30482175946235657
1782777588713320700,3.48132080078125,-2.5662448406219482,-0.24862214922904968,-0.35063666105270386
1782777588723309800,3.491309814453125,-2.585181713104248,-0.27977627515792847,-0.4495968222618103
1782777588733370600,3.50137060546875,-2.5943446159362793,-0.2968805134296417,-0.5259549617767334
1782777588743298800,3.511298828125,-2.585181713104248,-0.31520646810531616,-0.5955936312675476
1782777588753329400,3.521329345703125,-2.5534167289733887,-0.3243694305419922,-0.646295428276062
1782777588763318300,3.531318359375,-2.507601737976074,-0.32131510972976685,-0.6713408827781677
1782777588773227000,3.54122705078125,-2.461786985397339,-0.31093040108680725,-0.6682865619659424
1782777588783368400,3.551368408203125,-2.423302412033081,-0.2987131178379059,-0.6524040699005127
1782777588793337900,3.561337890625,-2.3964242935180664,-0.28649580478668213,-0.6401867866516113
1782777588803296500,3.571296630859375,-2.3823745250701904,-0.27061331272125244,-0.6414085030555725
1782777588813326800,3.581326904296875,-2.378098487854004,-0.24984388053417206,-0.6420193910598755
1782777588823315000,3.59131494140625,-2.378098487854004,-0.192422553896904,-0.626747727394104
1782777588833315600,3.601315673828125,-2.3793201446533203,-0.12828169763088226,-0.5998696684837341
1782777588843304400,3.611304443359375,-2.3713788986206055,-0.0959058403968811,-0.5607742667198181
1782777588853334800,3.621334716796875,-2.353663682937622,-0.05925392732024193,-0.5070181488990784
1782777588863293400,3.63129345703125,-2.3267858028411865,0.0012217304902151227,-0.44104471802711487
1782777588873324500,3.641324462890625,-2.2901337146759033,0.059864792972803116,-0.3836233615875244
1782777588883313000,3.65131298828125,-2.233934164047241,0.09651670604944229,-0.342695415019989
1782777588893313800,3.661313720703125,-2.1679606437683105,0.1111774742603302,-0.31093040108680725
1782777588903302000,3.671302001953125,-2.0971004962921143,0.1215621829032898,-0.28038713335990906
1782777588913333200,3.681333251953125,-2.0280725955963135,0.1417207419872284,-0.252287358045578
1782777588923291400,3.69129150390625,-1.9694294929504395,0.16737708449363708,-0.2278527319431305
1782777588933322800,3.70132275390625,-1.9211711883544922,0.19364428520202637,-0.20952677726745605
1782777588943311000,3.71131103515625,-1.8808541297912598,0.22479841113090515,-0.20097467303276062
1782777588953342700,3.7213427734375,-1.842369556427002,0.251676470041275,-0.2015855312347412
1782777588963299800,3.7312998046875,-1.7959438562393188,0.25595253705978394,-0.21074850857257843
1782777588973331700,3.741331787109375,-1.7409659624099731,0.26022860407829285,-0.21930062770843506
1782777588983319600,3.751319580078125,-1.6762142181396484,0.27611109614372253,-0.22540926933288574
1782777588993320700,3.76132080078125,-1.6047430038452148,0.30604347586631775,-0.23457226157188416
1782777589003308800,3.771308837890625,-1.5265522003173828,0.3341432809829712,-0.2535090744495392
1782777589013340200,3.781340087890625,-1.444696307182312,0.32620203495025635,-0.2889392673969269
1782777589023297500,3.791297607421875,-1.340238332748413,0.27977627515792847,-0.33475416898727417
1782777589033329400,3.801329345703125,-1.2107349634170532,0.2174680233001709,-0.38179078698158264
1782777589043317200,3.811317138671875,-1.0659598112106323,0.14905111491680145,-0.42149701714515686
1782777589053318400,3.821318359375,-0.9187413454055786,0.07391469180583954,-0.4440990388393402
1782777589063306200,3.83130615234375,-0.7757988572120667,-0.012828170321881771,-0.4331034719944
1782777589073336600,3.841336669921875,-0.6298020482063293,-0.04642575979232788,-0.37201693654060364
1782777589083295200,3.851295166015625,-0.4807509481906891,-0.04886921867728233,-0.29565876722335815
1782777589093295000,3.861295166015625,-0.34697145223617554,-0.09162978827953339,-0.2583959996700287
1782777589103335400,3.87133544921875,-0.21991148591041565,-0.1466076523065567,-0.27977627515792847
1782777589113407200,3.8814072265625,-0.08918632566928864,-0.19914206862449646,-0.342695415019989
1782777589123303700,3.8913037109375,0.04642575979232788,-0.2571742534637451,-0.4196644127368927
1782777589133335300,3.901335205078125,0.16982053220272064,-0.31093040108680725,-0.4795292317867279
1782777589143292700,3.911292724609375,0.24862214922904968,-0.35063666105270386,-0.4954117238521576
1782777589153324300,3.92132421875,0.2638937830924988,-0.38179078698158264,-0.4495968222618103
1782777589163272000,3.93127197265625,0.22540926933288574,-0.4031710624694824,-0.41233405470848083
1782777589173404200,3.941404052734375,0.15577064454555511,-0.4703662395477295,-0.38728857040405273
1782777589183301000,3.951301025390625,0.07880161702632904,-0.5894849896430969,-0.3701843321323395
1782777589193332200,3.961332275390625,0.00427605677396059,-0.740368664264679,-0.35735616087913513
1782777589203320800,3.97132080078125,-0.060475658625364304,-0.9199630618095398,-0.34574973583221436
1782777589213321200,3.9813212890625,-0.11239920556545258,-1.0891727209091187,-0.32498031854629517
1782777589223309800,3.991309814453125,-0.15821409225463867,-1.1832460165023804,-0.2779437005519867
1782777589233340400,4.00134033203125,-0.21074850857257843,-1.1832460165023804,-0.20463985204696655
1782777589243298800,4.011298828125,-0.27611109614372253,-1.0977247953414917,-0.1160643994808197
1782777589253329700,4.02132958984375,-0.3433062732219696,-0.9480628371238708,-0.036651913076639175
1782777589263318300,4.031318359375,-0.403781920671463,-0.7305948138237,0.01160643994808197
1782777589273319000,4.04131884765625,-0.4789183437824249,-0.4905247986316681,-0.00733038317412138
1782777589283307500,4.0513076171875,-0.5821545720100403,-0.2871066629886627,-0.09040805697441101
1782777589293307400,4.061307373046875,-0.7006624341011047,-0.1215621829032898,-0.21013765037059784
1782777589303347700,4.07134765625,-0.8087855577468872,0.00366519158706069,-0.33108896017074585
1782777589313388500,4.081388427734375,-0.8888089060783386,0.09651670604944229,-0.4282165467739105
1782777589323316000,4.09131591796875,-0.9615018963813782,0.1612684279680252,-0.484416127204895
1782777589333285400,4.101285400390625,-1.0286970138549805,0.21380282938480377,-0.48319441080093384
1782777589343325700,4.11132568359375,-1.0458012819290161,0.3029891550540924,-0.4178318381309509
1782777589353335600,4.12133544921875,-1.007927656173706,0.3744603991508484,-0.3072652220726013
1782777589364194800,4.13219482421875,-0.940121591091156,0.3854559659957886,-0.18631389737129211
1782777589383313400,4.1513134765625,-0.8417723178863525,0.3952298164367676,0.06475171446800232
1782777589393314800,4.161314697265625,-0.8234463334083557,0.3396410644054413,0.16065755486488342
1782777589403302700,4.171302734375,-0.817337691783905,0.2535090744495392,0.2119702398777008
1782777589413333000,4.1813330078125,-0.8026769161224365,0.1466076523065567,0.21991148591041565
1782777589423251200,4.191251220703125,-0.7825183868408203,0.021380282938480377,0.17898350954055786
1782777589433383000,4.2013828125,-0.7623597979545593,-0.10018189996480942,0.10201449692249298
1782777589444221700,4.2122216796875,-0.7476990818977356,-0.1966986060142517,0.004886921960860491
1782777589463300000,4.231300048828125,-0.759916365146637,-0.2480112910270691,-0.15027284622192383
1782777589473331700,4.241331787109375,-0.770301103591919,-0.23640485107898712,-0.18631389737129211
1782777589483319600,4.251319580078125,-0.7861835956573486,-0.2119702398777008,-0.20036379992961884
1782777589493320700,4.26132080078125,-0.807563841342926,-0.18997909128665924,-0.20952677726745605
1782777589503308500,4.27130859375,-0.8222246170043945,-0.16004669666290283,-0.20830504596233368
1782777589513340200,4.281340087890625,-0.8203920125961304,-0.13500121235847473,-0.20586158335208893
1782777589523297800,4.2912978515625,-0.7947356700897217,-0.11789698898792267,-0.20402899384498596
1782777589533329200,4.3013291015625,-0.7580837607383728,-0.11484266817569733,-0.1966986060142517
1782777589543317200,4.311317138671875,-0.720820963382721,-0.1258382350206375,-0.17959438264369965
1782777589553318400,4.321318359375,-0.6866125464439392,-0.13805554807186127,-0.14355333149433136
1782777589563306000,4.331305908203125,-0.6621779203414917,-0.13744467496871948,-0.08979719132184982
1782777589573337900,4.341337890625,-0.6597344875335693,-0.13011430203914642,0.0012217304902151227
1782777589583295200,4.351295166015625,-0.6664539575576782,-0.10201449692249298,0.05009094998240471
1782777589593326600,4.36132666015625,-0.6688974499702454,-0.08918632566928864,0.0708603709936142
1782777589603314700,4.371314697265625,-0.656069278717041,-0.1007927656173706,0.07269296050071716
1782777589613342700,4.3813427734375,-0.626747727394104,-0.1007927656173706,0.06291911751031876
1782777589623303700,4.3913037109375,-0.5876523852348328,-0.1007927656173706,0.0555887371301651
1782777589633335600,4.40133544921875,-0.5436700582504272,-0.10201449692249298,0.05192354694008827
1782777589643292700,4.411292724609375,-0.5051855444908142,-0.10323622822761536,0.05192354694008827
1782777589653324500,4.421324462890625,-0.4764748811721802,-0.10751228034496307,0.06169738993048668
1782777589663312400,4.4313125,-0.45326200127601624,-0.1160643994808197,0.0806342139840126
1782777589673313500,4.4413134765625,-0.42577308416366577,-0.12828169763088226,0.10506882518529892
1782777589683301400,4.45130126953125,-0.3897320330142975,-0.1563815027475357,0.1319468915462494
1782777589693333000,4.4613330078125,-0.3488040566444397,-0.1869247704744339,0.1563815027475357
1782777589703320800,4.47132080078125,-0.31154128909111023,-0.21868975460529327,0.1771509200334549
1782777589713322000,4.481322021484375,-0.2791654169559479,-0.24678955972194672,0.1973094791173935
1782777589723310000,4.49131005859375,-0.25595253705978394,-0.2681698501110077,0.22052235901355743
1782777589733341000,4.5013408203125,-0.23335053026676178,-0.2785545587539673,0.24923302233219147
1782777589743298800,4.511298828125,-0.21380282938480377,-0.2822197377681732,0.2828305959701538
1782777589753329700,4.52132958984375,-0.1966986060142517,-0.29504790902137756,0.3176499307155609
1782777589763318300,4.531318359375,-0.1869247704744339,-0.323147714138031,0.3536909818649292
1782777589773319000,4.54131884765625,-0.1869247704744339,-0.3689626157283783,0.3842342495918274
1782777589783307500,4.5513076171875,-0.1973094791173935,-0.41172316670417786,0.4129449129104614
1782777589793338600,4.561338623046875,-0.21868975460529327,-0.4355469346046448,0.4404338300228119
1782777589803296500,4.571296630859375,-0.24190263450145721,-0.44715335965156555,0.46303585171699524
1782777589813327600,4.58132763671875,-0.2577851414680481,-0.4593706727027893,0.4807509481906891
1782777589823315000,4.59131494140625,-0.2382374405860901,-0.4996877610683441,0.5021312236785889
1782777589833315800,4.60131591796875,-0.17104226350784302,-0.5558874011039734,0.5406157374382019
1782777589843304400,4.611304443359375,-0.08124507963657379,-0.6151412725448608,0.607200026512146
1782777589853335300,4.621335205078125,-0.00427605677396059,-0.6505714654922485,0.7000515460968018
1782777589863293400,4.63129345703125,0.06475171446800232,-0.6493497490882874,0.7959573864936829
1782777589873324000,4.641323974609375,0.08857546001672745,-0.6249151229858398,0.8808676600456238
1782777589883313000,4.65131298828125,0.05314527451992035,-0.578489363193512,0.9437867999076843
1782777589893312800,4.661312744140625,-0.02687807008624077,-0.4862487316131592,0.9773843884468079
1782777589903302000,4.671302001953125,-0.14477506279945374,-0.3536909818649292,0.9749409556388855
1782777589913332200,4.681332275390625,-0.31520646810531616,-0.24373523890972137,0.921795666217804
1782777589923291600,4.691291748046875,-0.5198463201522827,-0.23090706765651703,0.7641924023628235
1782777589933324000,4.701323974609375,-0.7648032903671265,-0.3799581825733185,0.4764748811721802
1782777589943311000,4.71131103515625,-1.0464121103286743,-0.7422012686729431,0.07696902006864548
1782777589953341700,4.721341796875,-1.2968668937683105,-1.149037480354309,-0.35552358627319336
1782777589963300000,4.731300048828125,-1.4648548364639282,-1.3909401893615723,-0.7263187766075134
1782777589973331700,4.741331787109375,-1.5937473773956299,-1.4202617406845093,-0.9773843884468079
1782777589983319600,4.751319580078125,-1.653001308441162,-1.1820242404937744,-1.06657075881958
1782777589993320700,4.76132080078125,-1.5833626985549927,-0.3433062732219696,-0.9767735004425049
1782777590003308500,4.77130859375,-1.244943380355835,0.2724458873271942,-0.588263213634491
1782777590013340200,4.781340087890625,-0.9382890462875366,0.7299839854240417,-0.2535090744495392
1782777590023297800,4.7912978515625,-0.6340781450271606,1.004873275756836,0.08796459436416626
1782777590033327900,4.801327880859375,-0.3274237811565399,1.1282681226730347,0.4153883755207062
1782777590043317200,4.811317138671875,-0.027488935738801956,1.111163854598999,0.7031059265136719
1782777590053318400,4.821318359375,0.22540926933288574,0.9657779335975647,0.9175195693969727
1782777590063306000,4.831305908203125,0.4239404797554016,0.759916365146637,1.0458012819290161
1782777590073337900,4.841337890625,0.5412266254425049,0.5241223573684692,1.0824532508850098
1782777590083295200,4.851295166015625,0.5778785347938538,0.26572638750076294,1.0256427526474
1782777590093325600,4.86132568359375,0.5510004758834839,0.025045474991202354,0.8906415104866028
1782777590103314700,4.871314697265625,0.47830748558044434,-0.16371189057826996,0.6927211880683899
1782777590113314300,4.881314208984375,0.38728857040405273,-0.2773328125476837,0.44593164324760437
1782777590123303700,4.8913037109375,0.2919935882091522,-0.32009339332580566,0.1771509200334549
1782777590133333800,4.901333740234375,0.19058994948863983,-0.2987131178379059,-0.0806342139840126
1782777590143292700,4.911292724609375,0.08124507963657379,-0.2174680233001709,-0.29993483424186707
1782777590153323000,4.921322998046875,-0.025045474991202354,-0.10018189996480942,-0.46547931432724
1782777590163312000,4.93131201171875,-0.11239920556545258,0.039706241339445114,-0.5699372887611389
1782777590173312000,4.94131201171875,-0.16493362188339233,0.17898350954055786,-0.6102544069290161
1782777590183301000,4.951301025390625,-0.17531833052635193,0.28955012559890747,-0.5955936312675476
1782777590193332500,4.96133251953125,-0.14233160018920898,0.3549126982688904,-0.5400048494338989
1782777590203320800,4.97132080078125,-0.06963863968849182,0.37751471996307373,-0.4593706727027893
1782777590213321200,4.9813212890625,0.02687807008624077,0.3738495409488678,-0.35124751925468445
1782777590223309800,4.991309814453125,0.14294247329235077,0.35613444447517395,-0.23457226157188416
1782777590233341000,5.0013408203125,0.2376265823841095,0.30970868468284607,-0.12095131725072861
1782777590243298800,5.011298828125,0.32498031854629517,0.2431243658065796,-0.02871066704392433
1782777590253330000,5.021329833984375,0.38667771220207214,0.1612684279680252,0.04398229718208313
1782777590263318300,5.031318359375,0.41111230850219727,0.0806342139840126,0.09651670604944229
1782777590273318400,5.041318359375,0.42210787534713745,0.021380282938480377,0.11972958594560623
1782777590283307300,5.051307373046875,0.3952298164367676,-0.0024434609804302454,0.1264491081237793
1782777590293338000,5.061338134765625,0.3536909818649292,-0.00427605677396059,0.09957103431224823
1782777590303296500,5.071296630859375,0.28588494658470154,0.0012217304902151227,0.05314527451992035
1782777590313326800,5.081326904296875,0.21930062770843506,0.033597588539123535,-0.012217304669320583
1782777590323316000,5.09131591796875,0.13805554807186127,0.07513642311096191,-0.08552113175392151
1782777590333315800,5.10131591796875,0.07452555745840073,0.10690141469240189,-0.16554448008537292
1782777590343304700,5.1113046875,0.03237585723400116,0.11850785464048386,-0.24434609711170197
1782777590353335800,5.121335693359375,0.016493361443281174,0.1160643994808197,-0.30604347586631775
1782777590363294000,5.1312939453125,0.0354301854968071,0.1160643994808197,-0.34758231043815613
1782777590373325000,5.141324951171875,0.0708603709936142,0.1062905490398407,-0.3597996234893799
1782777590383313400,5.1513134765625,0.13011430203914642,0.1062905490398407,-0.3433062732219696
1782777590393314000,5.16131396484375,0.18570303916931152,0.12217304855585098,-0.28649580478668213
1782777590403302400,5.171302490234375,0.24434609711170197,0.1667662113904953,-0.2070833146572113
1782777590413333500,5.18133349609375,0.29138273000717163,0.22418753802776337,-0.11728613078594208
1782777590423291600,5.191291748046875,0.33719760179519653,0.2681698501110077,-0.009773843921720982
1782777590433322800,5.20132275390625,0.36713001132011414,0.26083946228027344,0.03176499158143997
1782777590443311000,5.21131103515625,0.394008070230484,0.242513507604599,0.04337143152952194
1782777590453342000,5.221342041015625,0.4196644127368927,0.21930062770843506,0.039706241339445114
1782777590463300000,5.231300048828125,0.44776421785354614,0.19547687470912933,0.025045474991202354
1782777590473331200,5.241331298828125,0.4801400899887085,0.16920967400074005,0.004886921960860491
1782777590483319600,5.251319580078125,0.5100724697113037,0.1264491081237793,-0.006719517521560192
1782777590493320200,5.2613203125,0.5369505286216736,0.11056660860776901,0.012828170321881771
1782777590503308800,5.271308837890625,0.5583308339118958,0.1362229436635971,0.06169738993048668
1782777590513340000,5.28133984375,0.5748242139816284,0.16004669666290283,0.11423180252313614
1782777590523297500,5.291297607421875,0.5943718552589417,0.17776179313659668,0.1612684279680252
1782777590533329000,5.301328857421875,0.6139195561408997,0.2168571650981903,0.20952677726745605
1782777590543317000,5.31131689453125,0.6316346526145935,0.2871066629886627,0.2583959996700287
1782777590553317600,5.321317626953125,0.6481280326843262,0.3604104816913605,0.31093040108680725
1782777590563306000,5.331305908203125,0.6597344875335693,0.4043927788734436,0.35124751925468445
1782777590573337300,5.34133740234375,0.6670648455619812,0.4098905920982361,0.3677408695220947
1782777590583295200,5.351295166015625,0.66584312915802,0.37262779474258423,0.34574973583221436
1782777590593326300,5.361326416015625,0.6414085030555725,0.2730567753314972,0.2767219543457031
1782777590603314700,5.371314697265625,0.5797111392021179,0.09040805697441101,0.1667662113904953
1782777590613315300,5.3813154296875,0.47769662737846375,-0.14049901068210602,0.012828170321881771
1782777590623304000,5.391303955078125,0.394008070230484,-0.31520646810531616,-0.14905111491680145
1782777590633335600,5.40133544921875,0.3640756905078888,-0.3433062732219696,-0.2791654169559479
1782777590643292700,5.411292724609375,0.35674530267715454,-0.21807889640331268,-0.35552358627319336
1782777590653324300,5.42132421875,0.3787364661693573,0.04459316283464432,-0.3591887652873993
1782777590663312100,5.43131201171875,0.44593164324760437,0.3683517575263977,-0.30054569244384766
1782777590673313800,5.441313720703125,0.5699372887611389,0.6701191663742065,-0.16554448008537292
1782777590683301400,5.45130126953125,0.7422012686729431,0.9230173826217651,0.018936822190880775
1782777590693332700,5.461332763671875,0.8784242272377014,1.0867292881011963,0.2174680233001709
1782777590703320800,5.47132080078125,0.9169087409973145,1.1527026891708374,0.40622538328170776
1782777590713321000,5.481321044921875,0.8888089060783386,1.1325441598892212,0.5705481171607971
1782777590723309800,5.491309814453125,0.8197811841964722,1.0170906782150269,0.6737843751907349
1782777590733340700,5.501340576171875,0.7324274182319641,0.8533787727355957,0.7061602473258972
1782777590743298800,5.511298828125,0.6640105247497559,0.6933320760726929,0.6719517707824707
1782777590753330200,5.521330078125,0.6389650702476501,0.5473352670669556,0.5833762884140015
1782777590763318300,5.531318359375,0.6548475623130798,0.38606682419776917,0.45753806829452515
1782777590773318400,5.541318359375,0.7055493593215942,0.2223549485206604,0.2993239760398865
1782777590783307300,5.551307373046875,0.8032878041267395,0.06291911751031876,0.1258382350206375
1782777590793339100,5.561339111328125,0.9175195693969727,-0.07330382615327835,-0.0354301854968071
1782777590803296500,5.571296630859375,0.9963212013244629,-0.15577064454555511,-0.17592918872833252
1782777590813328100,5.581328125,1.0067058801651,-0.19364428520202637,-0.28588494658470154
1782777590823315000,5.59131494140625,0.9553932547569275,-0.22052235901355743,-0.3628539443016052
1782777590833315600,5.601315673828125,0.8582656979560852,-0.22846360504627228,-0.3995058834552765
1782777590843304400,5.611304443359375,0.7232644557952881,-0.18936823308467865,-0.39217549562454224
1782777590853336000,5.621336181640625,0.5381723046302795,-0.03298672288656235,-0.29565876722335815
1782777590863293400,5.63129345703125,0.47280970215797424,0.10262536257505417,-0.19425514340400696
1782777590873325000,5.641324951171875,0.4899139404296875,0.23151792585849762,-0.08491026610136032
1782777590883313000,5.65131298828125,0.5656611919403076,0.3530801236629486,0.007941247895359993
1782777590893314300,5.661314208984375,0.6713408827781677,0.45692721009254456,0.07024950534105301
1782777590903302000,5.671302001953125,0.7727445363998413,0.5314527750015259,0.11178833991289139
1782777590913333800,5.681333740234375,0.8387179970741272,0.5644394755363464,0.14355333149433136
1782777590923291600,5.691291748046875,0.8472700715065002,0.5626068711280823,0.16310101747512817
1782777590933322500,5.701322509765625,0.816726803779602,0.5302310585975647,0.1667662113904953
1782777590943311000,5.71131103515625,0.7617489695549011,0.4801400899887085,0.15577064454555511
1782777590953342200,5.72134228515625,0.6921103000640869,0.4043927788734436,0.11545353382825851
1782777590963300000,5.731300048828125,0.6212499737739563,0.33047810196876526,0.05314527451992035
1782777590973331200,5.741331298828125,0.5455026626586914,0.2767219543457031,-0.018936822190880775
1782777590983319600,5.751319580078125,0.47708576917648315,0.2321287989616394,-0.10262536257505417
1782777590993320200,5.7613203125,0.42699480056762695,0.19425514340400696,-0.17470745742321014
1782777591003308500,5.77130859375,0.3982841372489929,0.1563815027475357,-0.22296582162380219
1782777591013340000,5.78133984375,0.39767327904701233,0.1062905490398407,-0.25473082065582275
1782777591023297800,5.7912978515625,0.39706242084503174,0.051312681287527084,-0.26572638750076294
1782777591033328600,5.80132861328125,0.3854559659957886,0.00855211354792118,-0.26022860407829285
1782777591043317200,5.811317138671875,0.36102136969566345,-0.04886921867728233,-0.24373523890972137
1782777591053317600,5.821317626953125,0.3500257730484009,-0.1062905490398407,-0.2217440903186798
1782777591063306000,5.831305908203125,0.3396410644054413,-0.16310101747512817,-0.1918116807937622
1782777591073337300,5.84133740234375,0.33536502718925476,-0.20952677726745605,-0.15760323405265808
1782777591083254800,5.8512548828125,0.30482175946235657,-0.26022860407829285,-0.13744467496871948
1782777591093379300,5.86137939453125,0.27611109614372253,-0.2968805134296417,-0.12278391420841217
1782777591103314700,5.871314697265625,0.24923302233219147,-0.304210901260376,-0.10262536257505417
1782777591113315300,5.8813154296875,0.2382374405860901,-0.30970868468284607,-0.0806342139840126
1782777591123303700,5.8913037109375,0.2321287989616394,-0.32559117674827576,-0.054367005825042725
1782777591133334800,5.901334716796875,0.21074850857257843,-0.36163222789764404,-0.019547687843441963
1782777591143292700,5.911292724609375,0.17531833052635193,-0.3891211748123169,0.02871066704392433
1782777591153323000,5.921322998046875,0.10567969083786011,-0.3988949954509735,0.07452555745840073
1782777591163312400,5.9313125,0.025045474991202354,-0.4098905920982361,0.0959058403968811
1782777591173312000,5.94131201171875,-0.05253441259264946,-0.40622538328170776,0.09651670604944229
1782777591183301400,5.95130126953125,-0.11850785464048386,-0.3597996234893799,0.08185594528913498
1782777591193331700,5.961331787109375,-0.16493362188339233,-0.23029619455337524,0.06352998316287994
1782777591203320800,5.97132080078125,-0.19303341209888458,-0.07880161702632904,0.036651913076639175
1782777591213320700,5.98132080078125,-0.2217440903186798,-0.04153883829712868,-0.007941247895359993
1782777591223310000,5.99131005859375,-0.2687807083129883,-0.10812314599752426,-0.08796459436416626
1782777591233340200,6.001340087890625,-0.3378084897994995,-0.24617868661880493,-0.2028072625398636
1782777591243298800,6.011298828125,-0.44287729263305664,-0.4239404797554016,-0.3530801236629486
1782777591253329400,6.021329345703125,-0.5760459303855896,-0.5534439086914062,-0.5088507533073425
1782777591263318300,6.031318359375,-0.6982190012931824,-0.5552765130996704,-0.617584764957428
1782777591273318100,6.041318115234375,-0.8387179970741272,-0.30482175946235657,-0.627358615398407
1782777591283307300,6.051307373046875,-0.8546004891395569,-0.036041051149368286,-0.5424483418464661
1782777591293339000,6.0613388671875,-0.7916813492774963,0.2070833146572113,-0.42149701714515686
1782777591303296500,6.071296630859375,-0.6719517707824707,0.3805690407752991,-0.28038713335990906
1782777591313328400,6.081328369140625,-0.5406157374382019,0.46364670991897583,-0.1466076523065567
1782777591323316000,6.09131591796875,-0.4306600093841553,0.4789183437824249,-0.0354301854968071
1782777591333317000,6.101317138671875,-0.34513887763023376,0.44837507605552673,0.04703662544488907
1782777591343305000,6.111304931640625,-0.2877175211906433,0.3891211748123169,0.10323622822761536
1782777591353336300,6.12133642578125,-0.2431243658065796,0.31581732630729675,0.14905111491680145
1782777591363294000,6.1312939453125,-0.2125810980796814,0.23151792585849762,0.19303341209888458
1782777591373324500,6.141324462890625,-0.20097467303276062,0.12217304855585098,0.23335053026676178
1782777591383313400,6.1513134765625,-0.20341812074184418,0.0006108652451075613,0.2583959996700287
1782777591393314000,6.16131396484375,-0.19486601650714874,-0.12034045159816742,0.2565633952617645
1782777591403302700,6.171302734375,-0.17104226350784302,-0.2370157092809677,0.22357667982578278
1782777591413332700,6.181332763671875,-0.15577064454555511,-0.3695734739303589,0.15332718193531036
1782777591423291600,6.191291748046875,-0.16982053220272064,-0.5290092825889587,0.04214970022439957
1782777591433321700,6.20132177734375,-0.22968533635139465,-0.6786713004112244,-0.09834930300712585
1782777591443311000,6.21131103515625,-0.3194825351238251,-0.7513642311096191,-0.24923302233219147
1782777591453341400,6.221341552734375,-0.41722095012664795,-0.6805039048194885,-0.3781255781650543
1782777591463300000,6.231300048828125,-0.5180137157440186,-0.47708576917648315,-0.4612032473087311
1782777591473330700,6.24133056640625,-0.5998696684837341,-0.1869247704744339,-0.485027015209198
1782777591483319600,6.251319580078125,-0.6279694437980652,0.12522737681865692,-0.4434881806373596
1782777591493321000,6.261321044921875,-0.588874101638794,0.39645153284072876,-0.34513887763023376
1782777591503308500,6.27130859375,-0.494189977645874,0.5742133259773254,-0.20097467303276062
1782777591513340200,6.281340087890625,-0.35674530267715454,0.6493497490882874,-0.028099801391363144
1782777591523297800,6.2912978515625,-0.19058994948863983,0.6407976150512695,0.15454891324043274
1782777591533329200,6.3013291015625,-0.02076941914856434,0.5613851547241211,0.3237585723400116
1782777591543317000,6.31131689453125,0.1319468915462494,0.4300491213798523,0.47219884395599365
1782777591553317600,6.321317626953125,0.24678955972194672,0.27550023794174194,0.5815436840057373
1782777591563306000,6.331305908203125,0.3176499307155609,0.12461651116609573,0.6414085030555725
1782777591573337000,6.341337158203125,0.3500257730484009,-0.0024434609804302454,0.6572909951210022
1782777591583295200,6.351295166015625,0.3579670190811157,-0.09957103431224823,0.6340781450271606
1782777591593326000,6.361326171875,0.342695415019989,-0.17287486791610718,0.5754350423812866
1782777591603314700,6.371314697265625,0.32070425152778625,-0.21380282938480377,0.4966334402561188
1782777591613345300,6.38134521484375,0.29077184200286865,-0.2370157092809677,0.4105014503002167
1782777591633334800,6.401334716796875,0.23090706765651703,-0.23457226157188416,0.24617868661880493
1782777591643293000,6.41129296875,0.21380282938480377,-0.2015855312347412,0.18448130786418915
1782777591653323800,6.42132373046875,0.20036379992961884,-0.14905111491680145,0.13255776464939117
1782777591663312100,6.43131201171875,0.2028072625398636,-0.07880161702632904,0.10201449692249298
1782777591673313000,6.44131298828125,0.21502456068992615,0.01466076634824276,0.09040805697441101
1782777591683301400,6.45130126953125,0.22663100063800812,0.11850785464048386,0.08246681094169617
1782777591693332500,6.46133251953125,0.2431243658065796,0.24495697021484375,0.05925392732024193
1782777591703320800,6.47132080078125,0.2675589919090271,0.3194825351238251,0.051312681287527084
1782777591713321500,6.481321533203125,0.303600013256073,0.3744603991508484,0.060475658625364304
1782777591723309800,6.491309814453125,0.35063666105270386,0.39584067463874817,0.08491026610136032
1782777591733340700,6.501340576171875,0.41233405470848083,0.3793473243713379,0.1215621829032898
1782777591743298800,6.511298828125,0.49235737323760986,0.3445279896259308,0.1765400618314743
1782777591753329700,6.52132958984375,0.5803219676017761,0.3078760802745819,0.24495697021484375
1782777591763318500,6.531318603515625,0.6597344875335693,0.27000242471694946,0.32131510972976685
1782777591773319000,6.54131884765625,0.7195992469787598,0.26022860407829285,0.3885102868080139
1782777591783307300,6.551307373046875,0.7623597979545593,0.2840523421764374,0.43676865100860596
1782777591793338600,6.561338623046875,0.8045095205307007,0.3481931984424591,0.4648684561252594
1782777591803296500,6.571296630859375,0.8655960559844971,0.4709770977497101,0.4807509481906891
1782777591813327600,6.58132763671875,0.940732479095459,0.6157521605491638,0.4789183437824249
1782777591823315000,6.59131494140625,1.0299187898635864,0.7177666425704956,0.4703662395477295
1782777591833316000,6.601316162109375,1.1276572942733765,0.759916365146637,0.45692721009254456
1782777591843304400,6.611304443359375,1.2272282838821411,0.6798930168151855,0.41722095012664795
1782777591853335600,6.62133544921875,1.3072515726089478,0.4300491213798523,0.33047810196876526
1782777591863293400,6.63129345703125,1.3335188627243042,0.019547687843441963,0.20341812074184418
1782777591873324800,6.64132470703125,1.309084177017212,-0.29626965522766113,0.059864792972803116
1782777591883313200,6.651313232421875,1.2528846263885498,-0.4080579876899719,-0.07391469180583954
1782777591893313000,6.66131298828125,1.1527026891708374,-0.5473352670669556,-0.19547687470912933
1782777591903302100,6.67130224609375,1.0286970138549805,-0.6151412725448608,-0.2675589919090271
1782777591913333800,6.681333740234375,0.9181304574012756,-0.4813618063926697,-0.2535090744495392
1782777591923291600,6.691291748046875,0.8533787727355957,-0.1820378452539444,-0.17531833052635193
1782777591933323300,6.7013232421875,0.8637634515762329,0.20525072515010834,-0.056810468435287476
1782777591943311000,6.71131103515625,0.9529497623443604,0.6310238242149353,0.08124507963657379
1782777591953343000,6.721343017578125,1.0751228332519531,1.016479730606079,0.20341812074184418
1782777591963300000,6.731300048828125,1.1636983156204224,1.2822061777114868,0.28527405858039856
1782777591973331700,6.741331787109375,1.2223412990570068,1.4391984939575195,0.32131510972976685
1782777591983319600,6.751319580078125,1.2559388875961304,1.4477506875991821,0.2919935882091522
1782777591993320000,6.76131982421875,1.2565498352050781,1.3353514671325684,0.182648703455925
1782777592003308800,6.771308837890625,1.236391305923462,1.1313223838806152,0.010995574295520782
1782777592013340000,6.78133984375,1.1985175609588623,0.8637634515762329,-0.18814650177955627
1782777592023297500,6.791297607421875,1.166752576828003,0.59803706407547,-0.3744603991508484
1782777592043317200,6.811317138671875,1.1215485334396362,0.31093040108680725,-0.5662720799446106
1782777592053318400,6.821318359375,1.0781772136688232,0.2583959996700287,-0.5607742667198181
1782777592063306200,6.83130615234375,1.0201449394226074,0.25534167885780334,-0.4899139404296875
1782777592073338000,6.841338134765625,0.9480628371238708,0.3219259977340698,-0.36163222789764404
1782777592083295200,6.851295166015625,0.8546004891395569,0.4294382631778717,-0.21013765037059784
1782777592093327000,6.8613271484375,0.7531968355178833,0.5149593949317932,-0.06108652427792549
1782777592103314700,6.871314697265625,0.665232241153717,0.5522221922874451,0.06352998316287994
1782777592113315800,6.88131591796875,0.6017022728919983,0.5442809462547302,0.1459967941045761
1782777592123304000,6.891303955078125,0.5687155723571777,0.4660901725292206,0.1820378452539444
1782777592133335300,6.901335205078125,0.5656611919403076,0.42699480056762695,0.16859880089759827
1782777592143292700,6.911292724609375,0.5607742667198181,0.4086688458919525,0.14049901068210602
1782777592153323800,6.92132373046875,0.5461135506629944,0.39706242084503174,0.10690141469240189
1782777592163312000,6.93131201171875,0.5192354321479797,0.3744603991508484,0.06963863968849182
1782777592173312800,6.941312744140625,0.47769662737846375,0.34574973583221436,0.03481931984424591
1782777592183301400,6.95130126953125,0.42760565876960754,0.3292563557624817,0.010995574295520782
1782777592193332500,6.96133251953125,0.3689626157283783,0.303600013256073,0.0006108652451075613
1782777592203320800,6.97132080078125,0.31093040108680725,0.29077184200286865,0.006108652334660292
1782777592213321500,6.981321533203125,0.26083946228027344,0.29504790902137756,0.02382374368607998
1782777592223309800,6.991309814453125,0.21807889640331268,0.2791654169559479,0.04337143152952194
1782777592233340400,7.00134033203125,0.18020524084568024,0.2431243658065796,0.048258353024721146
1782777592243298800,7.011298828125,0.1411098688840866,0.20097467303276062,0.05619960278272629
1782777592253329400,7.021329345703125,0.11728613078594208,0.16554448008537292,0.0507018156349659
1782777592263318300,7.031318359375,0.0910189226269722,0.1368338167667389,0.02687807008624077
1782777592273288000,7.041287841796875,0.06658431142568588,0.09162978827953339,-0.01160643994808197
1782777592283643000,7.051642822265625,0.04214970022439957,0.03481931984424591,-0.03176499158143997
1782777592293338000,7.061338134765625,0.02626720629632473,0.006108652334660292,-0.012828170321881771
1782777592303296500,7.071296630859375,-0.009162978269159794,-0.06108652427792549,0.01038470957428217
1782777592313327400,7.081327392578125,-0.04581489413976669,-0.16432274878025055,0.03176499158143997
1782777592323316000,7.09131591796875,-0.12461651116609573,-0.1973094791173935,0.1820378452539444
1782777592333316400,7.10131640625,-0.2828305959701538,-0.485027015209198,0.2724458873271942
1782777592343305000,7.111304931640625,-0.394618958234787,-0.8405506014823914,0.19914206862449646
1782777592353336000,7.121336181640625,-0.3799581825733185,-0.9150761365890503,0.042760565876960754
1782777592363294000,7.1312939453125,-0.3781255781650543,-0.817948579788208,-0.1508837193250656
1782777592373324800,7.14132470703125,-0.42699480056762695,-0.5644394755363464,-0.3023782968521118
1782777592383313400,7.1513134765625,-0.5057964324951172,-0.27000242471694946,-0.3878994286060333
1782777592393315000,7.161315185546875,-0.5968153476715088,-0.05742133408784866,-0.4092797040939331
1782777592403302700,7.171302734375,-0.6963863968849182,0.039095375686883926,-0.3695734739303589
