time,seconds_elapsed,z,y,x
1782776442538123800,0.197123779296875,0.3384193480014801,0.016493361443281174,0.14049901068210602
1782776442548541700,0.207541748046875,0.30970868468284607,-0.02382374368607998,0.06414084881544113
1782776442558573000,0.217572998046875,0.28588494658470154,-0.06841690838336945,0
1782776442568530400,0.227530517578125,0.26450464129447937,-0.12095131725072861,-0.051312681287527084
1782776442578562000,0.23756201171875,0.25045475363731384,-0.182648703455925,-0.08674286305904388
1782776442588550100,0.247550048828125,0.24068090319633484,-0.22907446324825287,-0.10445795953273773
1782776442598550800,0.25755078125,0.22968533635139465,-0.2590068578720093,-0.11728613078594208
1782776442608539100,0.2675390625,0.22296582162380219,-0.2791654169559479,-0.13072516024112701
1782776442618570200,0.2775703125,0.21991148591041565,-0.29077184200286865,-0.1368338167667389
1782776442628528000,0.287528076171875,0.21013765037059784,-0.303600013256073,-0.1319468915462494
1782776442638559500,0.2975595703125,0.19914206862449646,-0.30482175946235657,-0.12217304855585098
1782776442648547600,0.307547607421875,0.18631389737129211,-0.29565876722335815,-0.11239920556545258
1782776442658548500,0.317548583984375,0.1722639948129654,-0.28588494658470154,-0.1014036312699318
1782776442668536600,0.32753662109375,0.15760323405265808,-0.25961771607398987,-0.09224065393209457
1782776442678568000,0.33756787109375,0.1472185254096985,-0.22479841113090515,-0.08491026610136032
1782776442688525600,0.347525634765625,0.13561208546161652,-0.19547687470912933,-0.0806342139840126
1782776442698557200,0.35755712890625,0.11667526513338089,-0.19547687470912933,-0.08552113175392151
1782776442708545000,0.367544921875,0.09712757170200348,-0.21624629199504852,-0.09957103431224823
1782776442718545700,0.377545654296875,0.06414084881544113,-0.2620611786842346,-0.12950342893600464
1782776442728534300,0.3875341796875,0.028099801391363144,-0.3066543638706207,-0.15515977144241333
1782776442738565400,0.3975654296875,-0.021991148591041565,-0.33169981837272644,-0.16982053220272064
1782776442748523300,0.407523193359375,-0.07880161702632904,-0.3335324227809906,-0.17898350954055786
1782776442758554600,0.4175546875,-0.13988813757896423,-0.32070425152778625,-0.18814650177955627
1782776442768542700,0.427542724609375,-0.1966986060142517,-0.2889392673969269,-0.20586158335208893
1782776442778573800,0.43757373046875,-0.2431243658065796,-0.24617868661880493,-0.23335053026676178
1782776442788532000,0.447531982421875,-0.27000242471694946,-0.1563815027475357,-0.2571742534637451
1782776442798562800,0.457562744140625,-0.28588494658470154,-0.056810468435287476,-0.26572638750076294
1782776442808551200,0.46755126953125,-0.29993483424186707,-0.09834930300712585,-0.29138273000717163
1782776442818550800,0.47755078125,-0.3225368559360504,-0.23029619455337524,-0.342695415019989
1782776442828539600,0.48753955078125,-0.38240164518356323,-0.303600013256073,-0.40133845806121826
1782776442838570200,0.4975703125,-0.48258355259895325,-0.3084869384765625,-0.47342056035995483
1782776442848528600,0.507528564453125,-0.6126978397369385,-0.32498031854629517,-0.5613851547241211
1782776442858559500,0.5175595703125,-0.7379252314567566,-0.31031954288482666,-0.6420193910598755
1782776442868548400,0.52754833984375,-0.8307767510414124,-0.22296582162380219,-0.6921103000640869
1782776442878549800,0.5375498046875,-0.8668177723884583,-0.10018189996480942,-0.7055493593215942
1782776442888537300,0.547537353515625,-0.8429940342903137,0.01038470957428217,-0.6695083379745483
1782776442898569000,0.55756884765625,-0.7929030656814575,0.07696902006864548,-0.5937610268592834
1782776442908526600,0.567526611328125,-0.7269296646118164,0.06780604273080826,-0.5174028873443604
1782776442918558700,0.577558837890625,-0.627358615398407,0.021991148591041565,-0.4251621961593628
1782776442928546300,0.58754638671875,-0.5161811113357544,-0.00427605677396059,-0.29993483424186707
1782776442938547700,0.597547607421875,-0.42638394236564636,-0.00427605677396059,-0.14416420459747314
1782776442948535600,0.60753564453125,-0.3787364661693573,0.00855211354792118,0.015271631069481373
1782776442958567000,0.61756689453125,-0.3640756905078888,0.016493361443281174,0.14844025671482086
1782776442968524500,0.627524658203125,-0.3579670190811157,0.009162978269159794,0.24678955972194672
1782776442978555600,0.6375556640625,-0.35674530267715454,-0.02626720629632473,0.3078760802745819
1782776442988544000,0.6475439453125,-0.3494149148464203,-0.08857546001672745,0.342695415019989
1782776442998544100,0.657544189453125,-0.3390302062034607,-0.1722639948129654,0.3536909818649292
1782776443008533000,0.667532958984375,-0.33169981837272644,-0.26633724570274353,0.34697145223617554
1782776443018563600,0.6775634765625,-0.33597588539123535,-0.34208452701568604,0.3237585723400116
1782776443028552400,0.687552490234375,-0.35552358627319336,-0.3885102868080139,0.2883284091949463
1782776443038552600,0.697552490234375,-0.384845107793808,-0.39706242084503174,0.24007004499435425
1782776443048541700,0.707541748046875,-0.4282165467739105,-0.3640756905078888,0.18325957655906677
1782776443058572000,0.717572021484375,-0.48808133602142334,-0.2938261926174164,0.11911872029304504
1782776443068530700,0.72753076171875,-0.5241223573684692,-0.17592918872833252,0.05192354694008827
1782776443078561300,0.737561279296875,-0.5418374538421631,-0.029932396486401558,-0.003054326167330146
1782776443088550100,0.747550048828125,-0.5314527750015259,0.1062905490398407,-0.04337143152952194
1782776443098550800,0.75755078125,-0.49724429845809937,0.21074850857257843,-0.04642575979232788
1782776443108539100,0.7675390625,-0.44715335965156555,0.26939156651496887,-0.012828170321881771
1782776443118570200,0.7775703125,-0.3842342495918274,0.28955012559890747,0.05375614017248154
1782776443128528100,0.787528076171875,-0.30604347586631775,0.2779437005519867,0.13927727937698364
1782776443138559500,0.7975595703125,-0.2021963894367218,0.20952677726745605,0.26633724570274353
1782776443148547800,0.8075478515625,-0.15454891324043274,0.13561208546161652,0.3274237811565399
1782776443158548500,0.817548583984375,-0.12400564551353455,0.05497787147760391,0.3640756905078888
1782776443168536600,0.82753662109375,-0.11178833991289139,-0.022602014243602753,0.3646865487098694
1782776443178567200,0.837567138671875,-0.1111774742603302,-0.07024950534105301,0.33719760179519653
1782776443188525600,0.847525634765625,-0.12217304855585098,-0.08124507963657379,0.28955012559890747
1782776443198556200,0.85755615234375,-0.14294247329235077,-0.06963863968849182,0.22907446324825287
1782776443208545000,0.867544921875,-0.16249015927314758,-0.04642575979232788,0.16004669666290283
1782776443218545400,0.87754541015625,-0.17348572611808777,-0.015271631069481373,0.08429940044879913
1782776443228534300,0.8875341796875,-0.1814269721508026,0.012217304669320583,0.009162978269159794
1782776443238595000,0.897594970703125,-0.18875735998153687,0.027488935738801956,-0.06475171446800232
1782776443248523300,0.907523193359375,-0.18997909128665924,0.036651913076639175,-0.12278391420841217
1782776443258554600,0.9175546875,-0.18814650177955627,0.04092797264456749,-0.16432274878025055
1782776443268542700,0.927542724609375,-0.18509216606616974,0.04153883829712868,-0.19364428520202637
1782776443278574000,0.937573974609375,-0.17898350954055786,0.05253441259264946,-0.20891591906547546
1782776443288531700,0.94753173828125,-0.1716531366109848,0.08002334833145142,-0.21013765037059784
1782776443298562800,0.957562744140625,-0.15943582355976105,0.11789698898792267,-0.20036379992961884
1782776443308551200,0.96755126953125,-0.14538592100143433,0.15943582355976105,-0.18631389737129211
1782776443318551800,0.9775517578125,-0.12828169763088226,0.2015855312347412,-0.1722639948129654
1782776443328540400,0.98754052734375,-0.10567969083786011,0.22968533635139465,-0.16920967400074005
1782776443338571500,0.997571533203125,-0.08124507963657379,0.24129177629947662,-0.1716531366109848
1782776443348529400,1.007529296875,-0.05009094998240471,0.2370157092809677,-0.17776179313659668
1782776443358560500,1.017560546875,-0.016493361443281174,0.2125810980796814,-0.182648703455925
1782776443368548900,1.027548828125,0.01771509274840355,0.17409659922122955,-0.1820378452539444
1782776443378549200,1.03754931640625,0.056810468435287476,0.1319468915462494,-0.1722639948129654
1782776443388537900,1.047537841796875,0.09773843735456467,0.1014036312699318,-0.1563815027475357
1782776443398569000,1.05756884765625,0.13316862285137177,0.07147123664617538,-0.1411098688840866
1782776443408526800,1.06752685546875,0.15577064454555511,0.036041051149368286,-0.12767083942890167
1782776443418558000,1.077557861328125,0.16982053220272064,0.012828170321881771,-0.11667526513338089
1782776443428546300,1.08754638671875,0.18325957655906677,-0.004886921960860491,-0.1014036312699318
1782776443438547200,1.097547119140625,0.1973094791173935,-0.00366519158706069,-0.0708603709936142
1782776443448535600,1.10753564453125,0.22357667982578278,0.05253441259264946,-0.018325956538319588
1782776443458567000,1.11756689453125,0.2571742534637451,0.16982053220272064,0.042760565876960754
1782776443468524500,1.127524658203125,0.3121521472930908,0.3445279896259308,0.09773843735456467
1782776443478555600,1.1375556640625,0.3878994286060333,0.5198463201522827,0.1466076523065567
1782776443488543700,1.147543701171875,0.46242499351501465,0.5436700582504272,0.17104226350784302
1782776443498544400,1.15754443359375,0.5167919993400574,0.4086688458919525,0.15577064454555511
1782776443508533000,1.167532958984375,0.5290092825889587,0.18020524084568024,0.0861319974064827
1782776443518563600,1.1775634765625,0.49235737323760986,-0.08674286305904388,-0.025656340643763542
1782776443528552400,1.187552490234375,0.41599923372268677,-0.3127630054950714,-0.13744467496871948
1782776443538552600,1.197552490234375,0.29993483424186707,-0.4294382631778717,-0.21013765037059784
1782776443548541700,1.207541748046875,0.16798794269561768,-0.3854559659957886,-0.22602014243602753
1782776443558572800,1.21757275390625,0.015271631069481373,-0.07147123664617538,-0.13500121235847473
1782776443568530400,1.227530517578125,-0.02687807008624077,0.23884831368923187,-0.02321287989616394
1782776443578562300,1.237562255859375,-0.02626720629632473,0.5345070958137512,0.09040805697441101
1782776443588550000,1.2475498046875,0.02871066704392433,0.779464066028595,0.18997909128665924
1782776443598551300,1.25755126953125,0.12828169763088226,0.9352346658706665,0.2742784917354584
1782776443608539100,1.2675390625,0.23273965716362,0.9865473508834839,0.33292156457901
1782776443618570000,1.277570068359375,0.32131510972976685,0.9486737251281738,0.37629300355911255
1782776443628528000,1.287528076171875,0.3891211748123169,0.8478809595108032,0.41111230850219727
1782776443638559200,1.297559326171875,0.44226643443107605,0.6835582256317139,0.43615779280662537
1782776443648547800,1.3075478515625,0.4905247986316681,0.4605923891067505,0.4508185386657715
1782776443658548500,1.317548583984375,0.5326744914054871,0.20036379992961884,0.45142942667007446
1782776443668536600,1.32753662109375,0.5650503635406494,-0.04398229718208313,0.4386012554168701
1782776443678568000,1.33756787109375,0.5845980644226074,-0.24373523890972137,0.4086688458919525
1782776443688525600,1.347525634765625,0.5894849896430969,-0.3891211748123169,0.37079519033432007
1782776443698557200,1.35755712890625,0.5748242139816284,-0.47280970215797424,0.33169981837272644
1782776443708545300,1.367545166015625,0.5357288122177124,-0.49296826124191284,0.304210901260376
1782776443718545400,1.37754541015625,0.4697553813457489,-0.4599815309047699,0.2926044464111328
1782776443728534300,1.3875341796875,0.3836233615875244,-0.37751471996307373,0.2968805134296417
1782776443738564900,1.39756494140625,0.2938261926174164,-0.2541199326515198,0.31520646810531616
1782776443748523300,1.407523193359375,0.21991148591041565,-0.11178833991289139,0.34697145223617554
1782776443758554000,1.41755419921875,0.17348572611808777,0.013439035043120384,0.3836233615875244
1782776443768542700,1.427542724609375,0.15515977144241333,0.10018189996480942,0.4202753007411957
1782776443778573800,1.43757373046875,0.16432274878025055,0.1472185254096985,0.4550946056842804
1782776443788798500,1.447798583984375,0.19120082259178162,0.16371189057826996,0.4856378734111786
1782776443798829600,1.45782958984375,0.22296582162380219,0.15882496535778046,0.5119050741195679
1782776443808818200,1.467818115234375,0.2480112910270691,0.14905111491680145,0.5314527750015259
1782776443818817500,1.477817626953125,0.251676470041275,0.13561208546161652,0.5436700582504272
1782776443828806400,1.487806396484375,0.23273965716362,0.11178833991289139,0.5455026626586914
1782776443838837500,1.49783740234375,0.19425514340400696,0.0861319974064827,0.5393940210342407
1782776443848795400,1.50779541015625,0.14538592100143433,0.06108652427792549,0.5253441333770752
1782776443858826500,1.517826416015625,0.0959058403968811,0.031154127791523933,0.4996877610683441
1782776443868815000,1.527815185546875,0.04642575979232788,-0.00366519158706069,0.45631635189056396
1782776443878815500,1.5378154296875,-0.001832595793530345,-0.045204028487205505,0.394008070230484
1782776443888804000,1.54780419921875,-0.04459316283464432,-0.09468411654233932,0.30970868468284607
1782776443898835500,1.55783544921875,-0.08002334833145142,-0.14905111491680145,0.2070833146572113
1782776443908793000,1.56779296875,-0.09773843735456467,-0.192422553896904,0.09834930300712585
1782776443918824700,1.57782470703125,-0.10384709388017654,-0.21135938167572021,0.006108652334660292
1782776443928813000,1.58781298828125,-0.10812314599752426,-0.20830504596233368,-0.06230825558304787
1782776443938814000,1.59781396484375,-0.11911872029304504,-0.20402899384498596,-0.10384709388017654
1782776443948802000,1.607802001953125,-0.13439035415649414,-0.20463985204696655,-0.12278391420841217
1782776443958833400,1.61783349609375,-0.15271630883216858,-0.2217440903186798,-0.12339477986097336
1782776443968791000,1.627791015625,-0.17348572611808777,-0.25045475363731384,-0.11911872029304504
1782776443978822100,1.637822265625,-0.22296582162380219,-0.304210901260376,-0.1160643994808197
1782776443988810800,1.647810791015625,-0.2675589919090271,-0.3335324227809906,-0.12522737681865692
1782776443998811100,1.65781103515625,-0.3127630054950714,-0.37079519033432007,-0.13744467496871948
1782776444008799700,1.6677998046875,-0.35613444447517395,-0.4092797040939331,-0.15332718193531036
1782776444018830800,1.677830810546875,-0.3995058834552765,-0.45692721009254456,-0.17959438264369965
1782776444028819200,1.687819091796875,-0.43737950921058655,-0.5076290369033813,-0.21868975460529327
1782776444038819800,1.69781982421875,-0.4715879559516907,-0.5503895878791809,-0.2730567753314972
1782776444048808200,1.70780810546875,-0.5125159621238708,-0.6114761233329773,-0.3384193480014801
1782776444058838800,1.7178388671875,-0.5613851547241211,-0.6774495840072632,-0.394008070230484
1782776444068797200,1.727797119140625,-0.6163630485534668,-0.6896668672561646,-0.4147774875164032
1782776444078827800,1.737827880859375,-0.675006091594696,-0.6432411074638367,-0.40194934606552124
1782776444088816600,1.747816650390625,-0.7238753437995911,-0.5510004758834839,-0.35613444447517395
1782776444098817500,1.757817626953125,-0.750142514705658,-0.4196644127368927,-0.29016098380088806
1782776444108806000,1.767805908203125,-0.7422012686729431,-0.2272418737411499,-0.2070833146572113
1782776444118837000,1.7778369140625,-0.6927211880683899,-0.018325956538319588,-0.11362093687057495
1782776444128795000,1.787794921875,-0.607810914516449,0.010995574295520782,-0.05497787147760391
1782776444138826200,1.797826171875,-0.5479460954666138,-0.13988813757896423,-0.048258353024721146
1782776444148814300,1.807814453125,-0.53328537940979,-0.37690386176109314,-0.08857546001672745
1782776444158814500,1.817814453125,-0.5552765130996704,-0.6835582256317139,-0.16493362188339233
1782776444168803300,1.82780322265625,-0.6304129362106323,-0.9639453291893005,-0.251676470041275
1782776444178833700,1.837833740234375,-0.7654141783714294,-1.1349875926971436,-0.33047810196876526
1782776444188792300,1.847792236328125,-0.930347740650177,-1.2003501653671265,-0.41599923372268677
1782776444198823000,1.857822998046875,-1.074512004852295,-1.179580807685852,-0.5186246037483215
1782776444208811800,1.867811767578125,-1.1753047704696655,-1.0586295127868652,-0.6230825781822205
1782776444218812200,1.877812255859375,-1.2370021343231201,-0.8546004891395569,-0.7183775305747986
1782776444228801000,1.887801025390625,-1.2791517972946167,-0.6255260109901428,-0.8100073337554932
1782776444238831400,1.897831298828125,-1.2907582521438599,-0.41233405470848083,-0.8936958312988281
1782776444248789800,1.907789794921875,-1.2626584768295288,-0.19303341209888458,-0.9462302923202515
1782776444258820600,1.917820556640625,-1.2021827697753906,0.03848451003432274,-0.9297369122505188
1782776444268809500,1.9278095703125,-1.1203268766403198,0.24984388053417206,-0.826500654220581
1782776444278841300,1.93784130859375,-1.0213667154312134,0.3988949954509735,-0.6414085030555725
1782776444288798500,1.947798583984375,-0.9205739498138428,0.4434881806373596,-0.3982841372489929
1782776444298829000,1.9578291015625,-0.827722430229187,0.3585779070854187,-0.12950342893600464
1782776444308818000,1.96781787109375,-0.7434229850769043,0.12522737681865692,0.12767083942890167
1782776444318818300,1.977818359375,-0.6780604124069214,-0.23396138846874237,0.34636059403419495
1782776444328807000,1.987806884765625,-0.6322455406188965,-0.6120869517326355,0.5119050741195679
1782776444338837500,1.99783740234375,-0.6224716901779175,-0.9456194043159485,0.616973876953125
1782776444348796000,2.0077958984375,-0.6682865619659424,-1.2247848510742188,0.6493497490882874
1782776444358828500,2.01782861328125,-0.7874053120613098,-1.436144232749939,0.6017022728919983
1782776444368815600,2.027815673828125,-0.9712757468223572,-1.5399912595748901,0.48747047781944275
1782776444378817500,2.037817626953125,-1.205847978591919,-1.5008958578109741,0.30970868468284607
1782776444388804600,2.0478046875,-1.4575244188308716,-1.2932016849517822,0.08491026610136032
1782776444398837200,2.057837158203125,-1.7757853269577026,-0.759305477142334,-0.28588494658470154
1782776444408793600,2.067793701171875,-1.8979582786560059,-0.3695734739303589,-0.5100724697113037
1782776444418824200,2.07782421875,-1.9462167024612427,-0.027488935738801956,-0.684779942035675
1782776444428813000,2.08781298828125,-1.9346102476119995,0.22540926933288574,-0.7910705208778381
1782776444438813200,2.097813232421875,-1.8686367273330688,0.37690386176109314,-0.8246681094169617
1782776444448801800,2.1078017578125,-1.748907208442688,0.41111230850219727,-0.788016140460968
1782776444458834000,2.117833984375,-1.5992451906204224,0.3488040566444397,-0.6866125464439392
1782776444468791000,2.127791015625,-1.4471397399902344,0.20830504596233368,-0.5338962078094482
1782776444478822100,2.137822265625,-1.3225232362747192,0.01710422709584236,-0.3500257730484009
1782776444488810800,2.147810791015625,-1.244943380355835,-0.18570303916931152,-0.1569923609495163
1782776444498811000,2.157810791015625,-1.207680583000183,-0.36224308609962463,0.021380282938480377
1782776444508799700,2.1677998046875,-1.1948524713516235,-0.4990769028663635,0.16432274878025055
1782776444518830300,2.177830322265625,-1.1917980909347534,-0.5943718552589417,0.25473082065582275
1782776444528819200,2.187819091796875,-1.1997393369674683,-0.6395758986473083,0.2871066629886627
1782776444538819300,2.1978193359375,-1.218676209449768,-0.6420193910598755,0.25961771607398987
1782776444548808200,2.20780810546875,-1.238223910331726,-0.6102544069290161,0.1814269721508026
1782776444558838800,2.2178388671875,-1.2596040964126587,-0.5497786998748779,0.05925392732024193
1782776444568797200,2.227797119140625,-1.2773191928863525,-0.47769662737846375,-0.09285151958465576
1782776444578827800,2.237827880859375,-1.2974777221679688,-0.4031710624694824,-0.2577851414680481
1782776444588817000,2.24781689453125,-1.318858027458191,-0.3127630054950714,-0.4178318381309509
1782776444598816800,2.257816650390625,-1.341460108757019,-0.20525072515010834,-0.5528330206871033
1782776444608806000,2.267805908203125,-1.3652838468551636,-0.08796459436416626,-0.6511823534965515
1782776444618836500,2.27783642578125,-1.379333734512329,0.04092797264456749,-0.7018841505050659
1782776444628795000,2.287794921875,-1.3768903017044067,0.1466076523065567,-0.7128797173500061
1782776444638826200,2.297826171875,-1.3494013547897339,0.21807889640331268,-0.6902777552604675
1782776444648814300,2.307814453125,-1.291369080543518,0.2541199326515198,-0.6395758986473083
1782776444658815200,2.317815185546875,-1.215621829032898,0.26022860407829285,-0.5699372887611389
1782776444668803300,2.32780322265625,-1.1343767642974854,0.25045475363731384,-0.48747047781944275
1782776444678834700,2.337834716796875,-1.0464121103286743,0.2168571650981903,-0.3988949954509735
1782776444688792300,2.347792236328125,-0.9566149711608887,0.16371189057826996,-0.31031954288482666
1782776444698823700,2.35782373046875,-0.8735373020172119,0.1111774742603302,-0.22357667982578278
1782776444708811800,2.367811767578125,-0.8069530129432678,0.0757472887635231,-0.12950342893600464
1782776444718812700,2.377812744140625,-0.7422012686729431,0.07208210229873657,-0.02626720629632473
1782776444728801000,2.387801025390625,-0.6640105247497559,0.08491026610136032,0.08918632566928864
1782776444738832400,2.397832275390625,-0.5693264007568359,0.17043140530586243,0.21502456068992615
1782776444748790000,2.4077900390625,-0.44837507605552673,0.3280346393585205,0.34574973583221436
1782776444758821400,2.4178212890625,-0.3023782968521118,0.4758640229701996,0.4612032473087311
1782776444768809200,2.427809326171875,-0.12950342893600464,0.5345070958137512,0.5345070958137512
1782776444778840600,2.437840576171875,0.031154127791523933,0.5057964324951172,0.5479460954666138
1782776444788798500,2.447798583984375,0.13744467496871948,0.36713001132011414,0.4856378734111786
1782776444798829800,2.457829833984375,0.1820378452539444,0.025045474991202354,0.30970868468284607
1782776444808818200,2.467818115234375,0.14966198801994324,-0.4758640229701996,0.036651913076639175
1782776444818816800,2.477816650390625,0.06230825558304787,-0.9089674949645996,-0.25106561183929443
1782776444828806400,2.487806396484375,-0.11301007121801376,-1.1184942722320557,-0.5222898125648499
1782776444838837000,2.4978369140625,-0.29077184200286865,-0.9425650835037231,-0.5326744914054871
1782776444848795400,2.50779541015625,-0.4703662395477295,-0.543059229850769,-0.3933972120285034
1782776444858827300,2.5178271484375,-0.5919284224510193,-0.0024434609804302454,-0.14782938361167908
1782776444868815000,2.527815185546875,-0.6249151229858398,0.513126790523529,0.13439035415649414
1782776444878816300,2.537816162109375,-0.5687155723571777,0.8930850028991699,0.38728857040405273
1782776444888804000,2.54780419921875,-0.4331034719944,1.1191051006317139,0.5736024379730225
1782776444898834200,2.557834228515625,-0.2480112910270691,1.1985175609588623,0.6902777552604675
1782776444908793000,2.56779296875,-0.06414084881544113,1.1435397863388062,0.7538077235221863
1782776444918824000,2.577823974609375,0.08491026610136032,0.9932668805122375,0.7782423496246338
1782776444928813000,2.58781298828125,0.19975294172763824,0.7867944240570068,0.7819074988365173
1782776444938814000,2.59781396484375,0.27977627515792847,0.5497786998748779,0.7727445363998413
1782776444948802000,2.607802001953125,0.32559117674827576,0.2791654169559479,0.7470881938934326
1782776444958833400,2.61783349609375,0.3243694305419922,-0.027488935738801956,0.7049384713172913
1782776444968791000,2.627791015625,0.28099802136421204,-0.3836233615875244,0.646906316280365
1782776444978821600,2.637821533203125,0.19303341209888458,-0.759305477142334,0.5699372887611389
1782776444988810800,2.647810791015625,0.059864792972803116,-1.1142182350158691,0.47280970215797424
1782776444998811000,2.657810791015625,-0.12278391420841217,-1.36955988407135,0.3683517575263977
1782776445008799700,2.6677998046875,-0.3384193480014801,-1.4618005752563477,0.2834414839744568
1782776445018830000,2.677830078125,-0.5650503635406494,-1.3927727937698364,0.24923302233219147
1782776445028819200,2.687819091796875,-0.7574729323387146,-1.1527026891708374,0.27611109614372253
1782776445038820000,2.697820068359375,-0.8686503767967224,-0.8106181621551514,0.3549126982688904
1782776445048808200,2.70780810546875,-0.8949176073074341,-0.45753806829452515,0.44776421785354614
1782776445058839300,2.71783935546875,-0.8497135639190674,-0.15882496535778046,0.523511528968811
1782776445068797200,2.727797119140625,-0.7550294399261475,0.05864306539297104,0.5638286471366882
1782776445078828300,2.737828369140625,-0.6352998614311218,0.19120082259178162,0.5632177591323853
1782776445088816600,2.747816650390625,-0.5100724697113037,0.24556782841682434,0.5296201705932617
1782776445098817500,2.757817626953125,-0.41661009192466736,0.23273965716362,0.4813618063926697
1782776445108806000,2.767805908203125,-0.384845107793808,0.182648703455925,0.43249258399009705
1782776445118836200,2.777836181640625,-0.41111230850219727,0.11728613078594208,0.3927863538265228
1782776445128795000,2.787794921875,-0.4746423065662384,0.04153883829712868,0.3585779070854187
1782776445138825500,2.797825439453125,-0.5595525503158569,-0.02687807008624077,0.3243694305419922
1782776445148814300,2.807814453125,-0.6548475623130798,-0.08857546001672745,0.2840523421764374
1782776445158814500,2.817814453125,-0.7519751191139221,-0.15393804013729095,0.23029619455337524
1782776445168803300,2.82780322265625,-0.8399397134780884,-0.23640485107898712,0.16249015927314758
1782776445178834000,2.837833984375,-0.9071348905563354,-0.3170390725135803,0.0910189226269722
1782776445188792300,2.847792236328125,-0.9547823667526245,-0.37629300355911255,0.021991148591041565
1782776445198823000,2.857822998046875,-0.9963212013244629,-0.4349360466003418,-0.05009094998240471
1782776445208811800,2.867811767578125,-1.0293079614639282,-0.4954117238521576,-0.1319468915462494
1782776445218812200,2.877812255859375,-1.06351637840271,-0.5497786998748779,-0.2119702398777008
1782776445228801000,2.887801025390625,-1.1074986457824707,-0.6053674817085266,-0.2816088795661926
1782776445238861600,2.897861572265625,-1.2003501653671265,-0.6982190012931824,-0.35674530267715454
1782776445248789800,2.907789794921875,-1.2712105512619019,-0.7800748944282532,-0.3903428912162781
1782776445258820600,2.917820556640625,-1.3329079151153564,-0.8704829812049866,-0.4080579876899719
1782776445268809200,2.927809326171875,-1.3903292417526245,-0.9547823667526245,-0.4080579876899719
1782776445278840300,2.93784033203125,-1.4453071355819702,-1.0195341110229492,-0.3830125033855438
1782776445288798500,2.947798583984375,-1.500285029411316,-1.0616837739944458,-0.33169981837272644
1782776445298829000,2.9578291015625,-1.549154281616211,-1.074512004852295,-0.2535090744495392
1782776445308818000,2.96781787109375,-1.587027907371521,-1.0415252447128296,-0.15332718193531036
1782776445318818000,2.977818115234375,-1.6194037199020386,-0.9963212013244629,-0.04642575979232788
1782776445328766700,2.9877666015625,-1.6505578756332397,-0.9541715383529663,0.05192354694008827
1782776445338899000,2.99789892578125,-1.6884315013885498,-0.9456194043159485,0.12339477986097336
1782776445350014500,3.009014404296875,-1.7409659624099731,-0.9761626720428467,0.16371189057826996
1782776445368876500,3.02787646484375,-1.9016234874725342,-1.147204875946045,0.14782938361167908
1782776445378754600,3.037754638671875,-2.0036380290985107,-1.2748757600784302,0.09529497474431992
1782776445389648400,3.0486484375,-2.112982988357544,-1.3933836221694946,0.02687807008624077
1782776445408793600,3.067793701171875,-2.3127357959747314,-1.508837103843689,-0.11667526513338089
1782776445418824200,3.07782421875,-2.39825701713562,-1.5008958578109741,-0.1771509200334549
1782776445428813000,3.08781298828125,-2.472782611846924,-1.474017858505249,-0.21624629199504852
1782776445438813200,3.097813232421875,-2.535090684890747,-1.4184291362762451,-0.21807889640331268
1782776445448801800,3.1078017578125,-2.588236093521118,-1.3213015794754028,-0.19547687470912933
1782776445458832600,3.11783251953125,-2.6316075325012207,-1.2492194175720215,-0.17959438264369965
1782776445468791000,3.127791015625,-2.660928964614868,-1.2858713865280151,-0.20586158335208893
1782776445478822000,3.13782177734375,-2.6816983222961426,-1.50211763381958,-0.3072652220726013
1782776445488810800,3.147810791015625,-2.715906858444214,-1.9040669202804565,-0.4996877610683441
1782776445498812700,3.157812744140625,-2.780047655105591,-2.4086415767669678,-0.7733554244041443
1782776445510016000,3.16901611328125,-2.8845057487487793,-2.8710665702819824,-1.1074986457824707
1782776445528819200,3.187819091796875,-3.207653284072876,-3.151453733444214,-1.740355134010315
1782776445538819300,3.1978193359375,-3.394578218460083,-2.9290988445281982,-1.9492709636688232
1782776445548808200,3.20780810546875,-3.5601227283477783,-2.559525489807129,-2.05433988571167
1782776445558838800,3.2178388671875,-3.6700782775878906,-2.140471935272217,-2.0586159229278564
1782776445568797200,3.227797119140625,-3.698178291320801,-1.7531832456588745,-1.9920315742492676
1782776445578828500,3.23782861328125,-3.65114164352417,-1.4636331796646118,-1.882686734199524
1782776445588816600,3.247816650390625,-3.53141188621521,-1.284038782119751,-1.757459282875061
1782776445598817500,3.257817626953125,-3.3646457195281982,-1.1966849565505981,-1.624901533126831
1782776445608806000,3.267805908203125,-3.19054913520813,-1.1856894493103027,-1.4953981637954712
1782776445618837000,3.2778369140625,-3.0360002517700195,-1.236391305923462,-1.3817771673202515
1782776445628795000,3.287794921875,-2.911994695663452,-1.341460108757019,-1.2932016849517822
1782776445638826500,3.297826416015625,-2.81181263923645,-1.4892895221710205,-1.2357803583145142
1782776445648814300,3.307814453125,-2.724458932876587,-1.6597208976745605,-1.2052371501922607
1782776445658815700,3.317815673828125,-2.6389379501342773,-1.825876235961914,-1.1887437105178833
1782776445668803300,3.32780322265625,-2.5143213272094727,-1.9932533502578735,-1.1520918607711792
1782776445678835200,3.337835205078125,-2.431854486465454,-2.024407386779785,-1.1166616678237915
1782776445688792300,3.347792236328125,-2.3524420261383057,-2.0219640731811523,-1.094059705734253
1782776445698823000,3.357822998046875,-2.2656991481781006,-1.9987510442733765,-1.0983357429504395
1782776445708812000,3.36781201171875,-2.1795670986175537,-1.949881911277771,-1.1270463466644287
1782776445718812000,3.37781201171875,-2.1056525707244873,-1.8613064289093018,-1.1655309200286865
1782776445728801000,3.387801025390625,-2.0531179904937744,-1.7116444110870361,-1.2021827697753906
1782776445738831400,3.397831298828125,-2.0311269760131836,-1.5051720142364502,-1.2308934926986694
1782776445748789800,3.407789794921875,-2.0360138416290283,-1.2577714920043945,-1.2528846263885498
1782776445758820600,3.417820556640625,-2.043344259262085,-1.0152580738067627,-1.2589932680130005
1782776445768809500,3.4278095703125,-2.032959461212158,-0.7947356700897217,-1.2388347387313843
1782776445778840000,3.437840087890625,-1.9950858354568481,-0.6291912198066711,-1.1917980909347534
1782776445788798500,3.447798583984375,-1.9272798299789429,-0.5241223573684692,-1.1233811378479004
1782776445798830300,3.457830322265625,-1.8301522731781006,-0.4703662395477295,-1.0329731702804565
1782776445808818000,3.46781787109375,-1.7171422243118286,-0.4550946056842804,-0.9230173826217651
1782776445818817300,3.4778173828125,-1.6175711154937744,-0.46853363513946533,-0.7996225953102112
1782776445828806400,3.487806396484375,-1.5436564683914185,-0.49357911944389343,-0.6725626587867737
1782776445838837000,3.4978369140625,-1.503339409828186,-0.5094616413116455,-0.5473352670669556
1782776445848755700,3.507755615234375,-1.4941763877868652,-0.5002986192703247,-0.43615779280662537
1782776445858887200,3.51788720703125,-1.503339409828186,-0.4691445231437683,-0.35063666105270386
1782776445868775400,3.527775390625,-1.5271631479263306,-0.4080579876899719,-0.2883284091949463
1782776445878907000,3.537906982421875,-1.5613715648651123,-0.3170390725135803,-0.24923302233219147
1782776445888804000,3.54780419921875,-1.6114624738693237,-0.20830504596233368,-0.22968533635139465
1782776445898834700,3.557834716796875,-1.674992561340332,-0.09040805697441101,-0.23457226157188416
1782776445908793000,3.56779296875,-1.7409659624099731,0.025656340643763542,-0.2541199326515198
1782776445918824200,3.57782421875,-1.7996090650558472,0.12461651116609573,-0.2773328125476837
1782776445928772900,3.58777294921875,-1.8429805040359497,0.21319197118282318,-0.2968805134296417
1782776445938904800,3.59790478515625,-1.8839083909988403,0.2889392673969269,-0.303600013256073
1782776445948802000,3.607802001953125,-1.9236146211624146,0.34513887763023376,-0.2981022298336029
1782776445958832600,3.61783251953125,-1.9547687768936157,0.37262779474258423,-0.2877175211906433
1782776445968791000,3.627791015625,-1.976759910583496,0.3787364661693573,-0.27488934993743896
1782776445978821600,3.637821533203125,-1.986533761024475,0.36713001132011414,-0.27000242471694946
1782776445988810800,3.647810791015625,-1.9804251194000244,0.33719760179519653,-0.2718350291252136
1782776445998811000,3.657810791015625,-1.9578231573104858,0.303600013256073,-0.2773328125476837
1782776446008799700,3.6677998046875,-1.9272798299789429,0.26450464129447937,-0.29077184200286865
1782776446018830300,3.677830322265625,-1.8961256742477417,0.21991148591041565,-0.3139847218990326
1782776446028819200,3.687819091796875,-1.8600846529006958,0.1875356286764145,-0.3384193480014801
1782776446038819300,3.6978193359375,-1.8209892511367798,0.16493362188339233,-0.3646865487098694
1782776446048808200,3.70780810546875,-1.7788395881652832,0.13439035415649414,-0.3897320330142975
1782776446058808300,3.717808349609375,-1.7324138879776,0.09773843735456467,-0.413555771112442
1782776446069692400,3.7286923828125,-1.6578882932662964,0.056810468435287476,-0.43799036741256714
1782776446088816600,3.747816650390625,-1.5986343622207642,0.027488935738801956,-0.41599923372268677
1782776446098817000,3.757817138671875,-1.5937473773956299,0.031154127791523933,-0.37079519033432007
1782776446108806000,3.767805908203125,-1.5974125862121582,0.030543262138962746,-0.31520646810531616
1782776446118836700,3.777836669921875,-1.605353832244873,0.031154127791523933,-0.25961771607398987
1782776446128795000,3.787794921875,-1.607797384262085,0.045204028487205505,-0.20586158335208893
1782776446138825500,3.797825439453125,-1.6004669666290283,0.06963863968849182,-0.15760323405265808
1782776446148814300,3.807814453125,-1.5729780197143555,0.09712757170200348,-0.11850785464048386
1782776446158784000,3.817783935546875,-1.5192219018936157,0.11911872029304504,-0.09224065393209457
1782776446168864300,3.8278642578125,-1.4391984939575195,0.13927727937698364,-0.07696902006864548
1782776446178803500,3.837803466796875,-1.3396275043487549,0.17043140530586243,-0.059864792972803116
1782776446188843800,3.84784375,-1.2272282838821411,0.20525072515010834,-0.03298672288656235
1782776446198885000,3.857885009765625,-1.1050552129745483,0.2321287989616394,0.005497787147760391
1782776446208812000,3.86781201171875,-0.9663888216018677,0.24434609711170197,0.051312681287527084
1782776446218813200,3.877813232421875,-0.8185594081878662,0.2528982162475586,0.10690141469240189
1782776446228801000,3.887801025390625,-0.6676757335662842,0.25595253705978394,0.17043140530586243
1782776446238832400,3.897832275390625,-0.5198463201522827,0.25595253705978394,0.242513507604599
1782776446248789800,3.907789794921875,-0.37690386176109314,0.22540926933288574,0.31031954288482666
1782776446258821000,3.917821044921875,-0.2431243658065796,0.14355333149433136,0.3628539443016052
1782776446268809200,3.927809326171875,-0.1417207419872284,0.01771509274840355,0.3732386529445648
1782776446278840300,3.93784033203125,-0.07880161702632904,-0.11667526513338089,0.3335324227809906
1782776446288798500,3.947798583984375,-0.022602014243602753,-0.21807889640331268,0.25473082065582275
1782776446298829300,3.957829345703125,0.04703662544488907,-0.2480112910270691,0.17470745742321014
1782776446308818000,3.96781787109375,0.11362093687057495,-0.22418753802776337,0.13011430203914642
1782776446318818800,3.97781884765625,0.16920967400074005,-0.1716531366109848,0.11911872029304504
1782776446328807000,3.987806884765625,0.21624629199504852,-0.09896016865968704,0.1270599663257599
1782776446338838500,3.997838623046875,0.2577851414680481,-0.012217304669320583,0.13439035415649414
1782776446348796200,4.007796142578125,0.2791654169559479,0.06291911751031876,0.13011430203914642
1782776446358796000,4.017796142578125,0.27977627515792847,0.09285151958465576,0.10506882518529892
1782776446368836400,4.02783642578125,0.26939156651496887,0.03481931984424591,0.05009094998240471
1782776446378907600,4.03790771484375,0.2626720666885376,-0.11178833991289139,-0.03176499158143997
1782776446388804400,4.047804443359375,0.25595253705978394,-0.29077184200286865,-0.11728613078594208
1782776446398835500,4.05783544921875,0.23335053026676178,-0.4612032473087311,-0.18325957655906677
1782776446408793600,4.067793701171875,0.18081611394882202,-0.5827654600143433,-0.2174680233001709
1782776446418825000,4.077824951171875,0.10323622822761536,-0.6334672570228577,-0.21991148591041565
1782776446428813300,4.087813232421875,0.013439035043120384,-0.5766568183898926,-0.1875356286764145
1782776446438814000,4.09781396484375,-0.08002334833145142,-0.42088615894317627,-0.1368338167667389
1782776446448802000,4.107802001953125,-0.1612684279680252,-0.21135938167572021,-0.0861319974064827
1782776446458833400,4.11783349609375,-0.2174680233001709,0.019547687843441963,-0.051312681287527084
1782776446468791000,4.127791015625,-0.24190263450145721,0.24678955972194672,-0.04214970022439957
1782776446478822400,4.137822509765625,-0.23151792585849762,0.45875978469848633,-0.042760565876960754
1782776446488810500,4.147810546875,-0.21013765037059784,0.6389650702476501,-0.03481931984424591
1782776446498811400,4.157811279296875,-0.1966986060142517,0.7812966704368591,-0.012217304669320583
1782776446508799700,4.1677998046875,-0.18020524084568024,0.9297369122505188,0.04337143152952194
1782776446518830800,4.177830810546875,-0.14294247329235077,0.9859365224838257,0.10384709388017654
1782776446528819200,4.187819091796875,-0.10201449692249298,1.0030407905578613,0.1771509200334549
1782776446538819800,4.19781982421875,-0.06169738993048668,0.9810495972633362,0.23151792585849762
1782776446548808200,4.20780810546875,-0.04092797264456749,0.9236282706260681,0.25106561183929443
1782776446558839600,4.217839599609375,-0.03787364438176155,0.8319984674453735,0.23029619455337524
1782776446568797200,4.227797119140625,-0.04459316283464432,0.7067710757255554,0.1814269721508026
1782776446578830600,4.23783056640625,-0.04948008432984352,0.5736024379730225,0.1258382350206375
1782776446588816600,4.247816650390625,-0.04581489413976669,0.46181413531303406,0.07941248267889023
1782776446598818800,4.25781884765625,-0.04153883829712868,0.36590829491615295,0.03726277872920036
1782776446608806000,4.267805908203125,-0.0507018156349659,0.2718350291252136,-0.01710422709584236
1782776446618839000,4.277839111328125,-0.08491026610136032,0.1618792861700058,-0.10751228034496307
1782776446628795000,4.287794921875,-0.12828169763088226,0.05314527451992035,-0.22113321721553802
1782776446638828000,4.297828125,-0.16310101747512817,-0.04459316283464432,-0.3323107063770294
1782776446648814300,4.307814453125,-0.20036379992961884,-0.12767083942890167,-0.42149701714515686
1782776446658815000,4.31781494140625,-0.2382374405860901,-0.1869247704744339,-0.475253164768219
1782776446668803300,4.32780322265625,-0.2816088795661926,-0.21135938167572021,-0.494189977645874
1782776446678834400,4.33783447265625,-0.33719760179519653,-0.20097467303276062,-0.48869219422340393
1782776446688792300,4.347792236328125,-0.38606682419776917,-0.17898350954055786,-0.4740314185619354
1782776446698823400,4.357823486328125,-0.43249258399009705,-0.14966198801994324,-0.4538728892803192
1782776446708811800,4.367811767578125,-0.4764748811721802,-0.12095131725072861,-0.4453207552433014
1782776446718812700,4.377812744140625,-0.5192354321479797,-0.10445795953273773,-0.43737950921058655
1782776446728801000,4.387801025390625,-0.5583308339118958,-0.09468411654233932,-0.42210787534713745
1782776446738832400,4.397832275390625,-0.6023131608963013,-0.07757988572120667,-0.40133845806121826
1782776446748790300,4.407790283203125,-0.6401867866516113,-0.0555887371301651,-0.3799581825733185
1782776446758821400,4.4178212890625,-0.6774495840072632,-0.05009094998240471,-0.37140607833862305
1782776446768809500,4.4278095703125,-0.7159340381622314,-0.060475658625364304,-0.37568211555480957
1782776446778840800,4.4378408203125,-0.7409795522689819,-0.07024950534105301,-0.3842342495918274
1782776446788798500,4.447798583984375,-0.7538077235221863,-0.09040805697441101,-0.39217549562454224
1782776446798829800,4.457829833984375,-0.770301103591919,-0.12950342893600464,-0.40072759985923767
1782776446808818200,4.467818115234375,-0.7776314616203308,-0.17531833052635193,-0.41172316670417786
1782776446818817800,4.47781787109375,-0.7831292152404785,-0.22663100063800812,-0.41599923372268677
1782776446828806700,4.487806640625,-0.7819074988365173,-0.26633724570274353,-0.4098905920982361
1782776446838837800,4.497837646484375,-0.7757988572120667,-0.2816088795661926,-0.3836233615875244
1782776446848795400,4.50779541015625,-0.7684684991836548,-0.2736676335334778,-0.34025195240974426
1782776446858826800,4.51782666015625,-0.7538077235221863,-0.2474004179239273,-0.2834414839744568
1782776446868815000,4.527815185546875,-0.7318165898323059,-0.22296582162380219,-0.22479841113090515
1782776446878815700,4.537815673828125,-0.7147123217582703,-0.21319197118282318,-0.16493362188339233
1782776446888804000,4.54780419921875,-0.7031059265136719,-0.23457226157188416,-0.11972958594560623
1782776446898835500,4.55783544921875,-0.6933320760726929,-0.29626965522766113,-0.08429940044879913
1782776446908793300,4.56779345703125,-0.6908885836601257,-0.38179078698158264,-0.04214970022439957
1782776446918825000,4.577824951171875,-0.684779942035675,-0.46181413531303406,0.00733038317412138
1782776446928813000,4.58781298828125,-0.6823364496231079,-0.5595525503158569,0.10751228034496307
1782776446938814000,4.59781396484375,-0.6957755088806152,-0.6126978397369385,0.17592918872833252
1782776446948802000,4.607802001953125,-0.6921103000640869,-0.637132465839386,0.2535090744495392
1782776446958833400,4.61783349609375,-0.6719517707824707,-0.626747727394104,0.32986724376678467
1782776446968791000,4.627791015625,-0.6352998614311218,-0.5583308339118958,0.38728857040405273
1782776446978822400,4.637822509765625,-0.5821545720100403,-0.4911356568336487,0.4129449129104614
1782776446988810800,4.647810791015625,-0.5259549617767334,-0.5320636034011841,0.394008070230484
1782776446998811400,4.657811279296875,-0.503963828086853,-0.7098253965377808,0.3194825351238251
1782776447008799700,4.6677998046875,-0.5448917746543884,-0.9822713136672974,0.1820378452539444
1782776447018830000,4.677830078125,-0.6481280326843262,-1.292590856552124,-0.02076941914856434
1782776447028819200,4.687819091796875,-0.7825183868408203,-1.540602207183838,-0.25473082065582275
1782776447038819000,4.697819091796875,-0.8998045325279236,-1.6267341375350952,-0.4337143301963806
1782776447048808200,4.70780810546875,-0.9871582388877869,-1.5454890727996826,-0.5180137157440186
1782776447058840000,4.717840087890625,-1.0445796251296997,-1.3487904071807861,-0.5167919993400574
1782776447068797200,4.727797119140625,-1.0323622226715088,-1.0671815872192383,-0.4331034719944
1782776447078828800,4.737828857421875,-0.949895441532135,-0.7568620443344116,-0.29138273000717163
1782776447088816600,4.747816650390625,-0.8093964457511902,-0.4746423065662384,-0.11789698898792267
1782776447098818000,4.757818115234375,-0.6481280326843262,-0.23884831368923187,0.05803219974040985
1782776447108806000,4.767805908203125,-0.5076290369033813,-0.07269296050071716,0.22357667982578278
1782776447118837500,4.77783740234375,-0.4245513379573822,0.02321287989616394,0.36651915311813354
1782776447128795000,4.787794921875,-0.38179078698158264,0.05742133408784866,0.4801400899887085
1782776447138825700,4.79782568359375,-0.3579670190811157,0.027488935738801956,0.5564982295036316
1782776447148814300,4.807814453125,-0.33719760179519653,-0.06108652427792549,0.588874101638794
1782776447158815000,4.81781494140625,-0.3182607889175415,-0.18570303916931152,0.5815436840057373
1782776447168803000,4.827802978515625,-0.28955012559890747,-0.3341432809829712,0.5491678714752197
1782776447178834400,4.83783447265625,-0.24862214922904968,-0.46853363513946533,0.5021312236785889
1782776447188792300,4.847792236328125,-0.20525072515010834,-0.5717698931694031,0.4642575979232788
1782776447198823700,4.85782373046875,-0.17348572611808777,-0.627358615398407,0.44776421785354614
1782776447208811800,4.867811767578125,-0.1563815027475357,-0.6389650702476501,0.44837507605552673
1782776447218812700,4.877812744140625,-0.15577064454555511,-0.637132465839386,0.44837507605552673
1782776447228801000,4.887801025390625,-0.182648703455925,-0.6304129362106323,0.4337143301963806
1782776447238861600,4.897861572265625,-0.23396138846874237,-0.5962044596672058,0.3830125033855438
1782776447248790000,4.9077900390625,-0.3084869384765625,-0.5204572081565857,0.2877175211906433
1782776447258820400,4.9178203125,-0.3732386529445648,-0.3927863538265228,0.17592918872833252
1782776447268809200,4.927809326171875,-0.4141666293144226,-0.22602014243602753,0.06169738993048668
1782776447278840800,4.9378408203125,-0.4239404797554016,-0.04092797264456749,-0.042760565876960754
1782776447288798500,4.947798583984375,-0.3995058834552765,0.12950342893600464,-0.13805554807186127
1782776447298829600,4.95782958984375,-0.33047810196876526,0.25961771607398987,-0.21319197118282318
1782776447308818200,4.967818115234375,-0.23090706765651703,0.34086281061172485,-0.2626720666885376
1782776447318818800,4.97781884765625,-0.12767083942890167,0.3799581825733185,-0.2822197377681732
1782776447328807000,4.987806884765625,-0.031154127791523933,0.3927863538265228,-0.2767219543457031
1782776447338838300,4.99783837890625,0.05009094998240471,0.40072759985923767,-0.24556782841682434
1782776447348796000,5.0077958984375,0.10262536257505417,0.39584067463874817,-0.20586158335208893
1782776447358827300,5.0178271484375,0.1417207419872284,0.37201693654060364,-0.15882496535778046
1782776447368815600,5.027815673828125,0.14905111491680145,0.34697145223617554,-0.1362229436635971
1782776447378816000,5.03781591796875,0.13255776464939117,0.32559117674827576,-0.13988813757896423
1782776447388804400,5.047804443359375,0.09834930300712585,0.32009339332580566,-0.17287486791610718
1782776447398835000,5.0578349609375,0.05253441259264946,0.34025195240974426,-0.2431243658065796
1782776447408793600,5.067793701171875,0.02382374368607998,0.3793473243713379,-0.32498031854629517
1782776447418824700,5.07782470703125,0.006719517521560192,0.4331034719944,-0.4056145250797272
1782776447428813000,5.08781298828125,0.006719517521560192,0.4893030524253845,-0.47219884395599365
1782776447438813700,5.097813720703125,0.01771509274840355,0.5363397002220154,-0.513737678527832
1782776447448802000,5.107802001953125,0.039095375686883926,0.5650503635406494,-0.5222898125648499
1782776447458833400,5.11783349609375,0.07208210229873657,0.5742133259773254,-0.49357911944389343
1782776447468791000,5.127791015625,0.10873401165008545,0.5699372887611389,-0.43737950921058655
1782776447478822100,5.137822265625,0.15515977144241333,0.5595525503158569,-0.3591887652873993
1782776447488810500,5.147810546875,0.19364428520202637,0.5400048494338989,-0.27550023794174194
1782776447498811400,5.157811279296875,0.21991148591041565,0.49296826124191284,-0.21319197118282318
1782776447508799700,5.1677998046875,0.24556782841682434,0.43799036741256714,-0.16004669666290283
1782776447518830800,5.177830810546875,0.2620611786842346,0.39645153284072876,-0.11423180252313614
1782776447528819200,5.187819091796875,0.2724458873271942,0.3701843321323395,-0.07391469180583954
1782776447538819800,5.19781982421875,0.2785545587539673,0.3579670190811157,-0.04398229718208313
1782776447548808200,5.20780810546875,0.30115658044815063,0.36102136969566345,-0.019547687843441963
1782776447558839600,5.217839599609375,0.3445279896259308,0.3744603991508484,0.0024434609804302454
1782776447568797200,5.227797119140625,0.3982841372489929,0.40133845806121826,0.031154127791523933
1782776447578828300,5.237828369140625,0.4502076804637909,0.4386012554168701,0.06108652427792549
1782776447588816600,5.247816650390625,0.50335294008255,0.48808133602142334,0.09712757170200348
1782776447598817300,5.2578173828125,0.5534439086914062,0.5797111392021179,0.13805554807186127
1782776447608806000,5.267805908203125,0.6120869517326355,0.7238753437995911,0.1814269721508026
1782776447618837000,5.2778369140625,0.6957755088806152,0.8093964457511902,0.2217440903186798
1782776447628795000,5.287794921875,0.7806857824325562,0.7305948138237,0.24617868661880493
1782776447638826200,5.297826171875,0.8093964457511902,0.5125159621238708,0.22663100063800812
1782776447648814300,5.307814453125,0.7538077235221863,0.24678955972194672,0.1612684279680252
1782776447658815200,5.317815185546875,0.6346889734268188,-0.0012217304902151227,0.0507018156349659
1782776447668803000,5.327802978515625,0.4899139404296875,-0.16249015927314758,-0.09224065393209457
1782776447678834700,5.337834716796875,0.36590829491615295,-0.22968533635139465,-0.23029619455337524
1782776447688792300,5.347792236328125,0.27977627515792847,-0.21441370248794556,-0.3237585723400116
1782776447698824000,5.357823974609375,0.22418753802776337,-0.15332718193531036,-0.3646865487098694
1782776447708812000,5.36781201171875,0.19792033731937408,-0.03298672288656235,-0.35613444447517395
1782776447718813000,5.37781298828125,0.1973094791173935,0.1667662113904953,-0.3090978264808655
1782776447728801000,5.387801025390625,0.24373523890972137,0.4343251883983612,-0.22602014243602753
1782776447738832600,5.39783251953125,0.342695415019989,0.7079927921295166,-0.12278391420841217
1782776447748790000,5.4077900390625,0.4893030524253845,0.949895441532135,-0.021991148591041565
1782776447758759400,5.417759521484375,0.6603453159332275,1.0965031385421753,0.04703662544488907
1782776447768870400,5.427870361328125,0.8778133392333984,1.120937705039978,0.05742133408784866
1782776447778839800,5.43783984375,0.9816604256629944,1.0378600358963013,0.03237585723400116
1782776447788798500,5.447798583984375,1.0500773191452026,0.8869763612747192,0.005497787147760391
1782776447798830300,5.457830322265625,1.0806206464767456,0.6921103000640869,-0.007941247895359993
1782776447808818200,5.467818115234375,1.0867292881011963,0.5021312236785889,0.007941247895359993
1782776447818818600,5.477818603515625,1.086118459701538,0.32070425152778625,0.04459316283464432
1782776447828806400,5.487806396484375,1.0757336616516113,0.15760323405265808,0.08857546001672745
1782776447838838500,5.497838623046875,1.0366383790969849,0.03726277872920036,0.12461651116609573
1782776447848795400,5.50779541015625,0.9651671051979065,-0.015271631069481373,0.1472185254096985
1782776447858827500,5.51782763671875,0.8827002644538879,-0.02076941914856434,0.1563815027475357
1782776447868815000,5.527815185546875,0.7922922372817993,-0.014049900695681572,0.15454891324043274
1782776447878816300,5.537816162109375,0.6957755088806152,0.00366519158706069,0.1472185254096985
1782776447888804000,5.54780419921875,0.608421802520752,0.031154127791523933,0.14416420459747314
1782776447898836000,5.5578359375,0.5393940210342407,0.04886921867728233,0.1362229436635971
1782776447908793300,5.56779345703125,0.49846604466438293,0.07147123664617538,0.11423180252313614
1782776447918825500,5.577825439453125,0.49296826124191284,0.11545353382825851,0.09651670604944229
1782776447928813000,5.58781298828125,0.5167919993400574,0.17043140530586243,0.08857546001672745
1782776447938814500,5.597814453125,0.5510004758834839,0.2217440903186798,0.1014036312699318
1782776447948802000,5.607802001953125,0.5949827432632446,0.27611109614372253,0.13439035415649414
1782776447958834000,5.617833984375,0.6395758986473083,0.34086281061172485,0.18020524084568024
1782776447968791000,5.627791015625,0.6762278079986572,0.41172316670417786,0.2278527319431305
1782776447978791200,5.637791259765625,0.7024950385093689,0.475253164768219,0.25961771607398987
1782776447991412500,5.65041259765625,0.7165449261665344,0.5369505286216736,0.23396138846874237
1782776448008799700,5.6677998046875,0.7226535677909851,0.5436700582504272,0.1264491081237793
1782776448018830800,5.677830810546875,0.7177666425704956,0.5345070958137512,0.04398229718208313
1782776448028819200,5.687819091796875,0.7067710757255554,0.5082398653030396,-0.039095375686883926
1782776448038820000,5.697820068359375,0.6713408827781677,0.4538728892803192,-0.10262536257505417
1782776448048808200,5.70780810546875,0.6120869517326355,0.37568211555480957,-0.15027284622192383
1782776448058839300,5.71783935546875,0.5491678714752197,0.2834414839744568,-0.18509216606616974
1782776448070035500,5.729035400390625,0.5021312236785889,0.19120082259178162,-0.19425514340400696
1782776448088817000,5.74781689453125,0.43799036741256714,0.07452555745840073,-0.12828169763088226
1782776448098817500,5.757817626953125,0.4001167416572571,0.033597588539123535,-0.05619960278272629
1782776448108806000,5.767805908203125,0.34208452701568604,-0.01771509274840355,0.025045474991202354
1782776448118837000,5.7778369140625,0.2638937830924988,-0.07819075137376785,0.08918632566928864
1782776448128795000,5.787794921875,0.1918116807937622,-0.15332718193531036,0.11972958594560623
1782776448138826200,5.797826171875,0.14355333149433136,-0.22113321721553802,0.13011430203914642
1782776448148814300,5.807814453125,0.11178833991289139,-0.25595253705978394,0.13988813757896423
1782776448158815000,5.81781494140625,0.0910189226269722,-0.2632829248905182,0.14538592100143433
1782776448168803000,5.827802978515625,0.07208210229873657,-0.2620611786842346,0.12828169763088226
1782776448178834400,5.83783447265625,0.05497787147760391,-0.2767219543457031,0.07696902006864548
1782776448188792300,5.847792236328125,0.03787364438176155,-0.3066543638706207,-0.006719517521560192
1782776448198823400,5.857823486328125,0.00366519158706069,-0.3683517575263977,-0.14844025671482086
1782776448208811800,5.867811767578125,-0.03176499158143997,-0.41599923372268677,-0.23029619455337524
1782776448218812400,5.8778125,-0.0806342139840126,-0.4502076804637909,-0.294437050819397
1782776448228801000,5.887801025390625,-0.13805554807186127,-0.46670106053352356,-0.3396410644054413
1782776448238801000,5.89780078125,-0.19853121042251587,-0.4746423065662384,-0.37751471996307373
1782776448248881400,5.90788134765625,-0.24617868661880493,-0.46303585171699524,-0.4080579876899719
1782776448258821000,5.917821044921875,-0.26939156651496887,-0.3830125033855438,-0.4129449129104614
1782776448268769300,5.927769287109375,-0.2571742534637451,-0.26511552929878235,-0.3805690407752991
1782776448278901500,5.937901611328125,-0.2376265823841095,-0.2474004179239273,-0.33047810196876526
1782776448288798500,5.947798583984375,-0.24190263450145721,-0.35063666105270386,-0.31459560990333557
1782776448298829600,5.95782958984375,-0.27611109614372253,-0.49235737323760986,-0.38117989897727966
1782776448308818000,5.96781787109375,-0.33047810196876526,-0.6395758986473083,-0.5259549617767334
1782776448318818600,5.977818603515625,-0.38667771220207214,-0.7513642311096191,-0.7024950385093689
1782776448328807000,5.987806884765625,-0.42638394236564636,-0.7855727076530457,-0.8759807348251343
1782776448338837500,5.99783740234375,-0.4593706727027893,-0.7715228199958801,-1.0213667154312134
1782776448348796000,6.0077958984375,-0.4966334402561188,-0.7195992469787598,-1.122159481048584
1782776448358826500,6.017826416015625,-0.5253441333770752,-0.6359107494354248,-1.149037480354309
1782776448368815400,6.0278154296875,-0.5424483418464661,-0.5210680365562439,-1.0977247953414917
1782776448378816500,6.03781640625,-0.5290092825889587,-0.35124751925468445,-0.9663888216018677
1782776448388804600,6.0478046875,-0.494189977645874,-0.1514945775270462,-0.7782423496246338
1782776448398836200,6.057836181640625,-0.43615779280662537,0.045204028487205505,-0.5479460954666138
1782776448408793600,6.067793701171875,-0.35674530267715454,0.1966986060142517,-0.29626965522766113
1782776448418825200,6.0778251953125,-0.2675589919090271,0.2773328125476837,-0.0507018156349659
1782776448428813000,6.08781298828125,-0.19120082259178162,0.2736676335334778,0.1466076523065567
1782776448438814200,6.097814208984375,-0.12889257073402405,0.1814269721508026,0.2681698501110077
1782776448448802000,6.107802001953125,-0.0757472887635231,0.0354301854968071,0.3219259977340698
1782776448458833000,6.1178330078125,-0.0354301854968071,-0.11667526513338089,0.3170390725135803
1782776448468791000,6.127791015625,-0.004886921960860491,-0.23396138846874237,0.2730567753314972
1782776448478822100,6.137822265625,0.01160643994808197,-0.31031954288482666,0.21441370248794556
1782776448488810500,6.147810546875,0.01710422709584236,-0.3689626157283783,0.14355333149433136
1782776448498810600,6.157810546875,0.0024434609804302454,-0.42210787534713745,0.04642575979232788
1782776448508799700,6.1677998046875,-0.031154127791523933,-0.46303585171699524,-0.0806342139840126
1782776448518829800,6.177829833984375,-0.07757988572120667,-0.455705463886261,-0.21013765037059784
1782776448528819200,6.187819091796875,-0.12767083942890167,-0.3677408695220947,-0.31520646810531616
1782776448538819000,6.197819091796875,-0.1722639948129654,-0.2070833146572113,-0.3701843321323395
1782776448548808200,6.20780810546875,-0.20097467303276062,-0.003054326167330146,-0.3530801236629486
1782776448558839800,6.21783984375,-0.20341812074184418,0.20341812074184418,-0.24923302233219147
1782776448568797200,6.227797119140625,-0.17592918872833252,0.3634648323059082,-0.0806342139840126
1782776448578829000,6.2378291015625,-0.1411098688840866,0.44593164324760437,0.11301007121801376
1782776448588816600,6.247816650390625,-0.09957103431224823,0.4440990388393402,0.2871066629886627
1782776448598818000,6.257818115234375,-0.04581489413976669,0.375071257352829,0.42638394236564636
1782776448608806000,6.267805908203125,0.01710422709584236,0.2626720666885376,0.5155702829360962
1782776448618806000,6.277805908203125,0.09834930300712585,0.0806342139840126,0.5320636034011841
1782776448628886500,6.287886474609375,0.14233160018920898,-0.003054326167330146,0.4703662395477295
1782776448638826000,6.297825927734375,0.1765400618314743,-0.04092797264456749,0.3683517575263977
1782776448648814300,6.307814453125,0.20830504596233368,-0.04153883829712868,0.25473082065582275
1782776448658814700,6.317814697265625,0.22968533635139465,-0.018325956538319588,0.152105450630188
1782776448668803300,6.32780322265625,0.23396138846874237,0.024434609338641167,0.08246681094169617
1782776448678834400,6.33783447265625,0.2278527319431305,0.06475171446800232,0.051312681287527084
1782776448688792300,6.347792236328125,0.21441370248794556,0.08918632566928864,0.05497787147760391
1782776448698823700,6.35782373046875,0.1973094791173935,0.10384709388017654,0.07696902006864548
1782776448708811800,6.367811767578125,0.1814269721508026,0.10201449692249298,0.11239920556545258
1782776448718812700,6.377812744140625,0.17348572611808777,0.0959058403968811,0.14782938361167908
1782776448728801000,6.387801025390625,0.18020524084568024,0.10751228034496307,0.17959438264369965
1782776448738832400,6.397832275390625,0.19425514340400696,0.15271630883216858,0.2064724564552307
1782776448748790000,6.4077900390625,0.21502456068992615,0.22296582162380219,0.22296582162380219
1782776448758821000,6.417821044921875,0.24190263450145721,0.3029891550540924,0.23396138846874237
1782776448768809200,6.427809326171875,0.2736676335334778,0.375071257352829,0.24373523890972137
1782776448778840600,6.437840576171875,0.30054569244384766,0.41661009192466736,0.24373523890972137
1782776448788798500,6.447798583984375,0.3194825351238251,0.4202753007411957,0.2272418737411499
1782776448798829600,6.45782958984375,0.3341432809829712,0.39767327904701233,0.19914206862449646
1782776448808818200,6.467818115234375,0.34513887763023376,0.3646865487098694,0.1661553531885147
1782776448818817500,6.477817626953125,0.35063666105270386,0.32986724376678467,0.13744467496871948
1782776448828806400,6.487806396484375,0.35124751925468445,0.303600013256073,0.10445795953273773
1782776448838837500,6.49783740234375,0.34758231043815613,0.30543261766433716,0.07330382615327835
1782776448848795400,6.50779541015625,0.3500257730484009,0.3274237811565399,0.05192354694008827
1782776448858796000,6.517796142578125,0.36590829491615295,0.3543018400669098,0.04153883829712868
1782776448868876000,6.5278759765625,0.39095374941825867,0.37690386176109314,0.04337143152952194
1782776448878815500,6.5378154296875,0.42271876335144043,0.39095374941825867,0.05375614017248154
1782776448888804000,6.54780419921875,0.4648684561252594,0.4434881806373596,0.06414084881544113
1782776448898835500,6.55783544921875,0.5338962078094482,0.5864306092262268,0.06841690838336945
1782776448908793300,6.56779345703125,0.6298020482063293,0.6640105247497559,0.05619960278272629
1782776448918824700,6.57782470703125,0.7244861721992493,0.5558874011039734,0.01038470957428217
1782776448928813000,6.58781298828125,0.7874053120613098,0.3194825351238251,-0.07269296050071716
1782776448938814200,6.597814208984375,0.7855727076530457,-0.0006108652451075613,-0.2217440903186798
1782776448948802000,6.607802001953125,0.7165449261665344,-0.28649580478668213,-0.4239404797554016
1782776448958832600,6.61783251953125,0.5845980644226074,-0.394008070230484,-0.6236934065818787
1782776448968791000,6.627791015625,0.4245513379573822,-0.2981022298336029,-0.7672467231750488
1782776448978822700,6.63782275390625,0.3121521472930908,-0.05803219974040985,-0.7929030656814575
1782776448988810800,6.647810791015625,0.26939156651496887,0.20525072515010834,-0.6957755088806152
1782776448998812000,6.65781201171875,0.2919935882091522,0.4349360466003418,-0.5002986192703247
1782776449008799700,6.6677998046875,0.37629300355911255,0.6145304441452026,-0.24434609711170197
1782776449018831000,6.6778310546875,0.5192354321479797,0.720820963382721,0.02076941914856434
1782776449028819200,6.687819091796875,0.7012733221054077,0.7654141783714294,0.2528982162475586
1782776449038818800,6.69781884765625,0.9816604256629944,0.7849618196487427,0.503963828086853
1782776449048808200,6.70780810546875,1.1172724962234497,0.7971791625022888,0.6065891981124878
1782776449058840000,6.717840087890625,1.2003501653671265,0.8246681094169617,0.6524040699005127
1782776449068797200,6.727797119140625,1.2327260971069336,0.8429940342903137,0.645684540271759
1782776449078828500,6.73782861328125,1.2223412990570068,0.8393288254737854,0.6004805564880371
1782776449088816600,6.747816650390625,1.1899654865264893,0.7959573864936829,0.5351179838180542
1782776449098817000,6.757817138671875,1.1496484279632568,0.6957755088806152,0.4544837474822998
1782776449108805600,6.7678056640625,1.102611780166626,0.5314527750015259,0.36590829491615295
1782776449118836700,6.777836669921875,1.0519099235534668,0.3072652220726013,0.2638937830924988
1782776449128795000,6.787794921875,0.988379955291748,0.03237585723400116,0.14782938361167908
1782776449138826800,6.79782666015625,0.902247965335846,-0.2785545587539673,0.006719517521560192
1782776449148814300,6.807814453125,0.797789990901947,-0.607200026512146,-0.17959438264369965
1782776449158815700,6.817815673828125,0.7037167549133301,-0.8991936445236206,-0.4001167416572571
1782776449168763100,6.82776318359375,0.636521577835083,-1.0482447147369385,-0.588874101638794
1782776449178864400,6.837864501953125,0.5448917746543884,-1.0476338863372803,-0.7257078886032104
1782776449189006600,6.848006591796875,0.44715335965156555,-0.9547823667526245,-0.7910705208778381
1782776449198824000,6.857823974609375,0.3830125033855438,-0.7806857824325562,-0.7611380815505981
1782776449208811800,6.867811767578125,0.3689626157283783,-0.5241223573684692,-0.6395758986473083
1782776449218813000,6.87781298828125,0.40683624148368835,-0.2272418737411499,-0.45875978469848633
1782776449228801000,6.887801025390625,0.504574716091156,0.04581489413976669,-0.24862214922904968
1782776449238861600,6.897861572265625,0.6334672570228577,0.24190263450145721,-0.04459316283464432
1782776449248789800,6.907789794921875,0.749531626701355,0.33292156457901,0.12400564551353455
1782776449258790000,6.917789794921875,0.8423831462860107,0.35674530267715454,0.2431243658065796
1782776449271489500,6.930489501953125,0.9437867999076843,0.313373863697052,0.3323107063770294
1782776449288798500,6.947798583984375,0.950506329536438,0.2779437005519867,0.31459560990333557
1782776449298830300,6.957830322265625,0.902247965335846,0.2681698501110077,0.2626720666885376
1782776449308818000,6.96781787109375,0.8319984674453735,0.26450464129447937,0.2028072625398636
1782776449318818600,6.977818603515625,0.7409795522689819,0.24434609711170197,0.14355333149433136
1782776449328807200,6.98780712890625,0.6444628238677979,0.20830504596233368,0.09346238523721695
1782776449338838300,6.99783837890625,0.5540547966957092,0.16371189057826996,0.06169738993048668
1782776449348796000,7.0077958984375,0.47219884395599365,0.10690141469240189,0.045204028487205505
1782776449358796000,7.017796142578125,0.4043927788734436,0.030543262138962746,0.03726277872920036
1782776449368876500,7.02787646484375,0.3500257730484009,-0.054367005825042725,0.039706241339445114
1782776449378816000,7.03781591796875,0.31093040108680725,-0.13255776464939117,0.05314527451992035
1782776449388804600,7.0478046875,0.2767219543457031,-0.19058994948863983,0.07819075137376785
1782776449398836200,7.057836181640625,0.2480112910270691,-0.22113321721553802,0.11301007121801376
1782776449408793600,7.067793701171875,0.22113321721553802,-0.22113321721553802,0.15393804013729095
1782776449418825000,7.077824951171875,0.19547687470912933,-0.20830504596233368,0.1820378452539444
1782776449428813000,7.08781298828125,0.17043140530586243,-0.21441370248794556,0.192422553896904
1782776449438813400,7.0978134765625,0.14905111491680145,-0.24007004499435425,0.1869247704744339
1782776449448802000,7.107802001953125,0.13377949595451355,-0.27061331272125244,0.18020524084568024
1782776449458833000,7.1178330078125,0.11301007121801376,-0.33658674359321594,0.16798794269561768
1782776449468750800,7.127750732421875,0.09834930300712585,-0.3891211748123169,0.16249015927314758
1782776449478852400,7.137852294921875,0.08246681094169617,-0.4306600093841553,0.16004669666290283
1782776449488871700,7.14787158203125,0.06169738993048668,-0.4508185386657715,0.15577064454555511
1782776449498811100,7.15781103515625,0.0354301854968071,-0.4489859640598297,0.14233160018920898
1782776449508799700,7.1677998046875,0.015271631069481373,-0.41233405470848083,0.12339477986097336
1782776449518830800,7.177830810546875,0.006719517521560192,-0.3072652220726013,0.1062905490398407
1782776449528819200,7.187819091796875,0.007941247895359993,-0.18814650177955627,0.0910189226269722
1782776449538819800,7.19781982421875,0.02626720629632473,-0.22052235901355743,0.06169738993048668
1782776449548808200,7.20780810546875,0.03298672288656235,-0.3903428912162781,-0.005497787147760391
1782776449558839300,7.21783935546875,-0.0006108652451075613,-0.6035348773002625,-0.1417207419872284
1782776449568797200,7.227797119140625,-0.05864306539297104,-0.8252789378166199,-0.33597588539123535
1782776449578797300,7.23779736328125,-0.1215621829032898,-0.9957103729248047,-0.5253441333770752
1782776449589648000,7.24864794921875,-0.17837265133857727,-1.0335839986801147,-0.6493497490882874
1782776449608806000,7.267805908203125,-0.27061331272125244,-0.8246681094169617,-0.655458390712738
1782776449618837500,7.27783740234375,-0.21319197118282318,-0.5968153476715088,-0.48808133602142334
1782776449628795000,7.287794921875,-0.06658431142568588,-0.304210901260376,-0.2125810980796814
1782776449638826500,7.297826416015625,0.14782938361167908,0.016493361443281174,0.12828169763088226
1782776449648814300,7.307814453125,0.3988949954509735,0.32986724376678467,0.4795292317867279
1782776449658815500,7.3178154296875,0.6352998614311218,0.5748242139816284,0.797789990901947
1782776449669207600,7.32820751953125,0.8203920125961304,0.749531626701355,1.0586295127868652
1782776449679239200,7.3382392578125,0.9474520087242126,0.8423831462860107,1.2278391122817993
1782776449689196500,7.348196533203125,1.0421360731124878,0.8283332586288452,1.2901474237442017
1782776449699226600,7.3582265625,1.1191051006317139,0.7446447610855103,1.2565498352050781
1782776449709216300,7.36821630859375,1.1966849565505981,0.6359107494354248,1.1527026891708374
1782776449719216000,7.378216064453125,1.2803735733032227,0.5283984541893005,1.0134254693984985
1782776449729205000,7.388205078125,1.3652838468551636,0.44165557622909546,0.8600982427597046
1782776449739235600,7.398235595703125,1.4501941204071045,0.3646865487098694,0.7177666425704956
1782776449749194000,7.408194091796875,1.5332717895507812,0.2681698501110077,0.6029239892959595
1782776449759225300,7.418225341796875,1.6035212278366089,0.13561208546161652,0.5210680365562439
1782776449769213400,7.42821337890625,1.6517796516418457,-0.028099801391363144,0.46792277693748474
1782776449779245000,7.4382451171875,1.6627751588821411,-0.2278527319431305,0.4001167416572571
1782776449789202700,7.44820263671875,1.6194037199020386,-0.4801400899887085,0.2681698501110077
1782776449799233300,7.4582333984375,1.5234979391098022,-0.7079927921295166,0.0708603709936142
1782776449809222100,7.46822216796875,1.3781119585037231,-0.8087855577468872,-0.1411098688840866
1782776449819221200,7.47822119140625,1.2021827697753906,-0.7367035150527954,-0.32070425152778625
1782776449829210600,7.488210693359375,1.0183123350143433,-0.5094616413116455,-0.44104471802711487
1782776449839241000,7.498240966796875,0.8784242272377014,-0.18020524084568024,-0.47708576917648315
1782776449849199600,7.50819970703125,0.8338310718536377,0.19975294172763824,-0.4129449129104614
1782776449859231500,7.5182314453125,0.901637077331543,0.5510004758834839,-0.2718350291252136
1782776449869219300,7.52821923828125,1.0574077367782593,0.8057312369346619,-0.10201449692249298
1782776449879220500,7.538220458984375,1.273043155670166,0.9553932547569275,0.06291911751031876
1782776449889208000,7.5482080078125,1.6267341375350952,0.9572258591651917,0.24556782841682434
1782776449899240200,7.558240234375,1.845423936843872,0.8051204085350037,0.31581732630729675
1782776449909197000,7.568197021484375,2.029905319213867,0.6145304441452026,0.3585779070854187
1782776449919229400,7.5782294921875,2.1624629497528076,0.48319441080093384,0.39156460762023926
1782776449929217000,7.588217041015625,2.2430970668792725,0.44776421785354614,0.423329621553421
1782776449939218700,7.59821875,2.295020818710327,0.48869219422340393,0.45631635189056396
1782776449949206300,7.608206298828125,2.3164010047912598,0.5473352670669556,0.4807509481906891
1782776449959236900,7.61823681640625,2.3072381019592285,0.5998696684837341,0.49724429845809937
1782776449969195300,7.6281953125,2.2736403942108154,0.6359107494354248,0.503963828086853
1782776449979225900,7.638225830078125,2.233323335647583,0.6603453159332275,0.5119050741195679
1782776449989214700,7.648214599609375,2.1960606575012207,0.6676757335662842,0.5057964324951172
1782776449999215000,7.658215087890625,2.1594085693359375,0.6499606370925903,0.484416127204895
1782776450009203700,7.66820361328125,2.129476308822632,0.6352998614311218,0.4612032473087311
1782776450019235800,7.67823583984375,2.1123719215393066,0.6633996367454529,0.44715335965156555
1782776450029223400,7.688223388671875,2.1123719215393066,0.7263187766075134,0.44104471802711487
1782776450039224600,7.698224609375,2.113593816757202,0.7898487448692322,0.4184426963329315
1782776450049212400,7.70821240234375,2.1148154735565186,0.8442157506942749,0.36224308609962463
1782776450059244000,7.718244140625,2.13314151763916,0.9138544201850891,0.2767219543457031
1782776450069201400,7.728201416015625,2.1642956733703613,1.0030407905578613,0.18081611394882202
1782776450079233000,7.73823291015625,2.1905627250671387,1.1001683473587036,0.07696902006864548
1782776450089220900,7.748220947265625,2.219273328781128,1.1759155988693237,-0.03848451003432274
1782776450099222300,7.75822216796875,2.2687535285949707,1.2113457918167114,-0.14538592100143433
1782776450109210000,7.768210205078125,2.331061840057373,1.1997393369674683,-0.24068090319633484
1782776450119241700,7.77824169921875,2.39520263671875,1.1606439352035522,-0.3194825351238251
1782776450129198800,7.78819873046875,2.456289052963257,1.1282681226730347,-0.3689626157283783
1782776450139231000,7.79823095703125,2.5173757076263428,1.1313223838806152,-0.3933972120285034
1782776450149218300,7.80821826171875,2.5815165042877197,1.1380419731140137,-0.39584067463874817
1782776450159219700,7.8182197265625,2.634661912918091,1.130711555480957,-0.37751471996307373
1782776450169207600,7.82820751953125,2.679865837097168,1.1447614431381226,-0.3323107063770294
1782776450179239400,7.838239501953125,2.7146852016448975,1.2211196422576904,-0.26022860407829285
1782776450189196500,7.848196533203125,2.7452285289764404,1.3353514671325684,-0.18570303916931152
1782776450199228400,7.858228515625,2.7739391326904297,1.4501941204071045,-0.1264491081237793
1782776450209216000,7.868216064453125,2.8075366020202637,1.518610954284668,-0.09224065393209457
1782776450219217400,7.878217529296875,2.853351593017578,1.5546520948410034,-0.056810468435287476
1782776450229205000,7.888205078125,2.9077186584472656,1.549154281616211,-0.018936822190880775
1782776450239235600,7.898235595703125,2.9498682022094727,1.4300355911254883,0.0024434609804302454
1782776450249194000,7.908194091796875,2.9749138355255127,1.225395679473877,0.005497787147760391
1782776450259226000,7.91822607421875,2.989574432373047,1.0231993198394775,0.018325956538319588
1782776450269213700,7.928213623046875,2.959642171859741,0.827111542224884,0.04581489413976669
1782776450279245600,7.93824560546875,2.880840539932251,0.7263187766075134,0.0910189226269722
1782776450289202700,7.94820263671875,2.752558708190918,0.6914994716644287,0.12461651116609573
1782776450299234300,7.958234375,2.546086311340332,0.7574729323387146,0.18570303916931152
1782776450309222100,7.96822216796875,2.14902400970459,0.4948008358478546,0.08674286305904388
1782776450319223600,7.9782236328125,1.9730947017669678,0.2528982162475586,-0.1508837193250656
1782776450329211000,7.9882109375,1.8875735998153687,0.13988813757896423,-0.3646865487098694
1782776450339243000,7.998242919921875,1.8179349899291992,0.19547687470912933,-0.4056145250797272
