time,seconds_elapsed,z,y,x
1782776442538038500,0.19703857421875,-2.39339542388916,-1.4877452850341797,-1.4293959140777588
1782776442548469500,0.207469482421875,-2.2159228324890137,-1.4526374340057373,-1.4814188480377197
1782776442558479000,0.21747900390625,-1.9927191734313965,-1.4569675922393799,-1.5154733657836914
1782776442568458500,0.22745849609375,-1.7069449424743652,-1.4581482410430908,-1.5663766860961914
1782776442578468400,0.23746826171875,-1.326735496520996,-1.4262962341308594,-1.5802505016326904
1782776442588478000,0.24747802734375,-1.0284852981567383,-1.3889505863189697,-1.5465373992919922
1782776442598457300,0.257457275390625,-0.8140420913696289,-1.342954158782959,-1.4996685981750488
1782776442608467200,0.26746728515625,-0.551722526550293,-1.3102400302886963,-1.4598315954208374
1782776442618476800,0.277476806640625,-0.23208045959472656,-1.2572124004364014,-1.3256889581680298
1782776442628456200,0.287456298828125,-0.012957572937011719,-1.1436872482299805,-1.2308838367462158
1782776442638466000,0.297466064453125,0.18272876739501953,-1.0834448337554932,-1.179654598236084
1782776442648475600,0.3074755859375,0.27837276458740234,-0.980961799621582,-1.1331291198730469
1782776442658454800,0.317454833984375,0.34382152557373047,-0.8679752349853516,-1.042011022567749
1782776442668464600,0.327464599609375,0.36719512939453125,-0.6536922454833984,-0.8609206676483154
1782776442678474200,0.33747412109375,0.3031015396118164,-0.41453981399536133,-0.5751698613166809
1782776442688453600,0.34745361328125,0.1276102066040039,-0.18174219131469727,-0.2769707441329956
1782776442698463500,0.35746337890625,0.03365135192871094,-0.019586563110351562,-0.05203336477279663
1782776442708473000,0.36747314453125,0.06879425048828125,0.15356826782226562,0.16659492254257202
1782776442718452500,0.377452392578125,0.1260852813720703,0.24830198287963867,0.36815541982650757
1782776442728462300,0.38746240234375,0.3319664001464844,0.3276855945587158,0.615776002407074
1782776442738472000,0.397471923828125,0.5903644561767578,0.3609890937805176,0.8441203832626343
1782776442748451300,0.407451416015625,0.7245826721191406,0.34197020530700684,0.9941791892051697
1782776442758461000,0.4174609375,0.7633762359619141,0.29410362243652344,1.0657519102096558
1782776442768470800,0.427470703125,0.7063465118408203,0.251476526260376,1.059122920036316
1782776442778480400,0.43748046875,0.6954450607299805,0.27345895767211914,0.8186818957328796
1782776442788459800,0.447459716796875,0.798344612121582,0.6303093433380127,0.24648237228393555
1782776442798469400,0.457469482421875,0.6150140762329102,0.8403308391571045,0.03100728988647461
1782776442808479200,0.467479248046875,0.4473896026611328,0.6607987880706787,0.30407679080963135
1782776442818458600,0.477458740234375,0.5978593826293945,0.521827220916748,0.9709388017654419
1782776442828468200,0.48746826171875,0.7838516235351562,0.45232343673706055,1.645220160484314
1782776442838478000,0.49747802734375,0.9495067596435547,0.37625551223754883,2.1788082122802734
1782776442848457200,0.507457275390625,1.221013069152832,0.13857698440551758,2.3004038333892822
1782776442858467000,0.517467041015625,1.5455656051635742,-0.18335270881652832,1.97629976272583
1782776442868476700,0.5274765625,1.7913312911987305,-0.5224387645721436,1.3860929012298584
1782776442878456000,0.5374560546875,1.8869199752807617,-0.8554264307022095,0.7199925184249878
1782776442888465700,0.547465576171875,1.8712759017944336,-1.0794795751571655,0.22149509191513062
1782776442898475500,0.5574755859375,1.5806779861450195,-1.2203119993209839,-0.06665623188018799
1782776442908455000,0.567454833984375,1.4282121658325195,-1.2547756433486938,-0.424366295337677
1782776442918464800,0.57746484375,1.428990364074707,-1.2193280458450317,-0.5648898482322693
1782776442928474400,0.587474365234375,1.425374984741211,-1.1314269304275513,-0.3723578453063965
1782776442938453500,0.59745361328125,1.1762256622314453,-0.9922516345977783,0.10200166702270508
1782776442948463400,0.60746337890625,0.7872705459594727,-0.7832163572311401,0.4208662509918213
1782776442958473200,0.61747314453125,0.3733787536621094,-0.5720995664596558,0.5913152098655701
1782776442968452400,0.627452392578125,-0.056593894958496094,-0.46619725227355957,0.7044168710708618
1782776442978462200,0.637462158203125,-0.3813953399658203,-0.4542696475982666,0.7702409029006958
1782776442988471800,0.647471923828125,-0.6015634536743164,-0.4734175205230713,0.8866252303123474
1782776442998451200,0.657451171875,-0.6241331100463867,-0.4373013973236084,1.1176328659057617
1782776443008461000,0.6674609375,-0.5714712142944336,-0.3920557498931885,1.3557050228118896
1782776443018470700,0.677470703125,-0.4605989456176758,-0.3554666042327881,1.631115198135376
1782776443028480500,0.68748046875,-0.33261775970458984,-0.34565019607543945,1.8406529426574707
1782776443038459600,0.697459716796875,-0.15699291229248047,-0.3734593391418457,2.0431573390960693
1782776443048469500,0.707469482421875,-0.02052593231201172,-0.3973202705383301,2.123013496398926
1782776443058479000,0.71747900390625,0.061676025390625,-0.5241222381591797,1.8982868194580078
1782776443068458500,0.72745849609375,0.10810470581054688,-0.6814367771148682,1.645984411239624
1782776443078468400,0.73746826171875,0.09645843505859375,-0.7989382743835449,1.2287964820861816
1782776443088478000,0.74747802734375,0.06261348724365234,-0.920585036277771,0.7901479005813599
1782776443098457300,0.757457275390625,-0.004979133605957031,-0.9945356845855713,0.4169273376464844
1782776443108467200,0.76746728515625,-0.16727542877197266,-1.0046851634979248,0.06250530481338501
1782776443118476800,0.777476806640625,-0.42273712158203125,-0.9978837966918945,-0.14790791273117065
1782776443128456200,0.787456298828125,-0.7984895706176758,-0.882968544960022,-0.1594446897506714
1782776443138466000,0.797466064453125,-1.283980369567871,-0.7337841987609863,-0.04088890552520752
1782776443148475600,0.8074755859375,-1.6476693153381348,-0.5591731071472168,0.10856646299362183
1782776443158454800,0.817454833984375,-1.9727635383605957,-0.40086889266967773,0.28464698791503906
1782776443168464600,0.827464599609375,-2.176154136657715,-0.24921774864196777,0.48478490114212036
1782776443178474200,0.83747412109375,-2.2566981315612793,-0.1237783432006836,0.6629874110221863
1782776443188453600,0.84745361328125,-2.265657901763916,-0.05332827568054199,0.7984409928321838
1782776443198463500,0.85746337890625,-2.2758679389953613,-0.03573179244995117,0.8183300495147705
1782776443208473000,0.86747314453125,-2.259061336517334,-0.03197479248046875,0.794429361820221
1782776443218452500,0.877452392578125,-2.2013444900512695,-0.007470369338989258,0.7756984233856201
1782776443228462300,0.88746240234375,-2.138892650604248,-0.007124662399291992,0.7650062441825867
1782776443238472200,0.89747216796875,-1.9783077239990234,-0.018978595733642578,0.735565185546875
1782776443248451300,0.907451416015625,-1.736231803894043,-0.021566152572631836,0.6886644959449768
1782776443258461000,0.9174609375,-1.4934864044189453,-0.004467487335205078,0.6712576746940613
1782776443268470800,0.927470703125,-1.2687740325927734,0.0094757080078125,0.6829992532730103
1782776443278480400,0.93748046875,-1.028106689453125,0.045296669006347656,0.6563354134559631
1782776443288459800,0.947459716796875,-0.8621730804443359,0.07790780067443848,0.611381471157074
1782776443298469600,0.9574697265625,-0.7083530426025391,0.11776852607727051,0.5662792325019836
1782776443308479200,0.967479248046875,-0.6694478988647461,0.14739537239074707,0.4837449789047241
1782776443318458600,0.977458740234375,-0.7285270690917969,0.19623231887817383,0.3671686053276062
1782776443328468500,0.987468505859375,-0.7674093246459961,0.2397902011871338,0.22391927242279053
1782776443338478000,0.99747802734375,-0.7707796096801758,0.29274606704711914,0.041849732398986816
1782776443348457200,1.007457275390625,-0.6745243072509766,0.28655457496643066,-0.10467123985290527
1782776443358467000,1.017467041015625,-0.4588289260864258,0.26735448837280273,-0.18871921300888062
1782776443368476700,1.0274765625,-0.1742992401123047,0.2665212154388428,-0.27922284603118896
1782776443378456000,1.0374560546875,0.1333770751953125,0.2329559326171875,-0.308552622795105
1782776443388466000,1.0474658203125,0.41958141326904297,0.2789747714996338,-0.24485737085342407
1782776443398475500,1.0574755859375,0.6859865188598633,0.31120800971984863,-0.13212090730667114
1782776443408455000,1.067454833984375,0.9785118103027344,0.3448452949523926,-0.06458324193954468
1782776443418464500,1.077464599609375,1.2834234237670898,0.3424820899963379,0.015716254711151123
1782776443428474400,1.087474365234375,1.6795578002929688,0.23247671127319336,0.07644784450531006
1782776443438453500,1.09745361328125,2.030780792236328,0.11898303031921387,0.09915375709533691
1782776443448463400,1.10746337890625,2.2871999740600586,0.06740164756774902,0.11187976598739624
1782776443458473000,1.117472900390625,2.3556127548217773,0.19314169883728027,-0.3426365852355957
1782776443468452400,1.127452392578125,2.116039276123047,0.5146148204803467,-0.8639033436775208
1782776443478462200,1.137462158203125,1.4936285018920898,0.639916181564331,-1.0116673707962036
1782776443488471800,1.147471923828125,0.8737936019897461,0.660602331161499,-0.8029674291610718
1782776443498451200,1.157451171875,0.4702110290527344,0.6412086486816406,-0.16122370958328247
1782776443508461000,1.1674609375,0.48394203186035156,0.5756111145019531,0.8254286050796509
1782776443518470700,1.177470703125,1.0527114868164062,0.34652090072631836,1.7833000421524048
1782776443528480500,1.18748046875,1.950392723083496,0.08449149131774902,2.423024892807007
1782776443538459600,1.197459716796875,2.8823299407958984,-0.09343552589416504,2.4817111492156982
1782776443548469500,1.207469482421875,3.645566940307617,-0.17919087409973145,2.0040736198425293
1782776443558479000,1.21747900390625,3.9053916931152344,-0.4847848415374756,1.359884262084961
1782776443568458500,1.22745849609375,3.485319137573242,-0.9748659133911133,0.6584482192993164
1782776443578468400,1.23746826171875,2.694791793823242,-1.3943411111831665,-0.08241742849349976
1782776443588478000,1.24747802734375,1.6754121780395508,-1.6807125806808472,-0.8051716089248657
1782776443598457300,1.257457275390625,0.7292909622192383,-1.7340112924575806,-1.2700811624526978
1782776443608467200,1.26746728515625,-0.09500312805175781,-1.6316559314727783,-1.4769078493118286
1782776443618476800,1.277476806640625,-0.6942939758300781,-1.5197724103927612,-1.531557321548462
1782776443628456200,1.287456298828125,-1.1785545349121094,-1.4189105033874512,-1.525244116783142
1782776443638466000,1.297466064453125,-1.4761123657226562,-1.3280776739120483,-1.5239416360855103
1782776443648475600,1.3074755859375,-1.6271553039550781,-1.285959005355835,-1.4027917385101318
1782776443658454800,1.317454833984375,-1.6028509140014648,-1.2844891548156738,-1.1183677911758423
1782776443668464600,1.327464599609375,-1.3897008895874023,-1.3955694437026978,-0.626110315322876
1782776443678474200,1.33747412109375,-0.9958868026733398,-1.461039423942566,-0.12027648091316223
1782776443688453600,1.34745361328125,-0.41289520263671875,-1.4613720178604126,0.35852405428886414
1782776443698463500,1.35746337890625,0.25011444091796875,-1.3657939434051514,0.8370252251625061
1782776443708473000,1.36747314453125,0.8145036697387695,-1.307218313217163,1.2024402618408203
1782776443718452500,1.377452392578125,1.3281183242797852,-1.274552822113037,1.459790825843811
1782776443728462300,1.38746240234375,1.6715259552001953,-1.2456943988800049,1.5642777681350708
1782776443738472000,1.397471923828125,1.8343915939331055,-1.320967197418213,1.3774677515029907
1782776443748451000,1.407451171875,1.739553451538086,-1.4655401706695557,1.0569710731506348
1782776443758461000,1.4174609375,1.3985633850097656,-1.5856196880340576,0.6328953504562378
1782776443768470800,1.427470703125,0.9789533615112305,-1.7092753648757935,0.2123119831085205
1782776443778480400,1.43748046875,0.46356773376464844,-1.7818149328231812,-0.09447920322418213
1782776443788726500,1.4477265625,0.02227497100830078,-1.7947171926498413,-0.2466193437576294
1782776443798736100,1.457736083984375,-0.3493385314941406,-1.721888542175293,-0.228162944316864
1782776443808746000,1.46774609375,-0.7380199432373047,-1.616452932357788,-0.05134224891662598
1782776443818725000,1.47772509765625,-1.095451831817627,-1.4782917499542236,0.12147057056427002
1782776443828735000,1.48773486328125,-1.3810839653015137,-1.352435827255249,0.2499961256980896
1782776443838744600,1.49774462890625,-1.6743087768554688,-1.3048381805419922,0.281649112701416
1782776443848724000,1.507723876953125,-1.948072910308838,-1.247809886932373,0.21324515342712402
1782776443858733600,1.517733642578125,-2.218233108520508,-1.2315375804901123,0.1317814588546753
1782776443868743400,1.527743408203125,-2.4720206260681152,-1.2231431007385254,0.030309677124023438
1782776443878722800,1.537722900390625,-2.7007713317871094,-1.239691972732544,-0.0652056336402893
1782776443888732700,1.547732666015625,-2.8117618560791016,-1.2988901138305664,-0.18170416355133057
1782776443898742300,1.5577421875,-2.7077412605285645,-1.3077034950256348,-0.3463938236236572
1782776443908721400,1.567721435546875,-2.4444775581359863,-1.3172767162322998,-0.4211582541465759
1782776443918731300,1.577731201171875,-2.1158127784729004,-1.314800500869751,-0.41277390718460083
1782776443928740900,1.587740966796875,-1.8026175498962402,-1.2419626712799072,-0.38916122913360596
1782776443938720300,1.59772021484375,-1.571180820465088,-1.17744779586792,-0.3602537214756012
1782776443948730000,1.607730224609375,-1.3988780975341797,-1.0542640686035156,-0.3305516242980957
1782776443958740000,1.617739990234375,-1.2847490310668945,-0.953488826751709,-0.29550403356552124
1782776443968719000,1.627718994140625,-1.1944146156311035,-0.8360302448272705,-0.1511927843093872
1782776443978729000,1.63772900390625,-1.1155648231506348,-0.7311925888061523,0.02020364999771118
1782776443988738600,1.647738525390625,-0.9690423011779785,-0.6294224262237549,0.12877684831619263
1782776443998718000,1.657718017578125,-0.8680334091186523,-0.5799882411956787,0.1599438190460205
1782776444008727800,1.667727783203125,-0.7886343002319336,-0.5466840267181396,0.189522385597229
1782776444018737400,1.6777373046875,-0.6806707382202148,-0.4645664691925049,0.24370384216308594
1782776444028747300,1.687747314453125,-0.5899333953857422,-0.3805561065673828,0.3622243404388428
1782776444038726400,1.697726318359375,-0.42105770111083984,-0.35105061531066895,0.5711197853088379
1782776444048736000,1.707736083984375,-0.02869129180908203,-0.29776930809020996,0.7938885688781738
1782776444058745900,1.717745849609375,0.641993522644043,-0.2673201560974121,1.0116876363754272
1782776444068725200,1.727725341796875,1.2633867263793945,-0.3270843029022217,1.240200400352478
1782776444078735000,1.737735107421875,1.7869348526000977,-0.4407482147216797,1.3410385847091675
1782776444088744700,1.74774462890625,2.0952529907226562,-0.5825626850128174,1.2155383825302124
1782776444098724000,1.75772412109375,2.1620092391967773,-0.588263988494873,0.7175004482269287
1782776444108734000,1.76773388671875,1.9428081512451172,-0.1943986415863037,-0.11630499362945557
1782776444118743600,1.77774365234375,1.2555103302001953,0.018621444702148438,-0.5854513645172119
1782776444128722700,1.78772265625,0.5352773666381836,-0.10792112350463867,-0.30284982919692993
1782776444138732500,1.797732666015625,-0.010377883911132812,-0.1795973777770996,0.34080278873443604
1782776444148742100,1.8077421875,-0.15419673919677734,-0.028436899185180664,0.9448482990264893
1782776444158721500,1.817721435546875,0.06957340240478516,0.15763282775878906,1.7329262495040894
1782776444168731400,1.8277314453125,0.5983457565307617,0.13228797912597656,2.716874122619629
1782776444178741000,1.837740966796875,1.0583419799804688,-0.16423654556274414,3.4821081161499023
1782776444188720400,1.847720458984375,1.432206153869629,-0.6186294555664062,3.7362003326416016
1782776444198730200,1.857730224609375,1.7759990692138672,-1.1114623546600342,3.5958220958709717
1782776444208739800,1.86773974609375,1.9395322799682617,-1.4707493782043457,3.2511138916015625
1782776444218719200,1.87771923828125,2.0097599029541016,-1.7199898958206177,2.8202056884765625
1782776444228728800,1.887728759765625,2.007054328918457,-1.9117423295974731,2.253589153289795
1782776444238738700,1.89773876953125,2.1009960174560547,-1.9883880615234375,1.6940149068832397
1782776444248717800,1.9077177734375,2.2847909927368164,-2.0381107330322266,1.1700164079666138
1782776444258727700,1.917727783203125,2.349118232727051,-2.063483715057373,0.7788026332855225
1782776444268737300,1.9277373046875,2.1809282302856445,-2.0379462242126465,0.4849776029586792
1782776444278747100,1.9377470703125,1.7694997787475586,-1.9146233797073364,0.4151099920272827
1782776444288726500,1.9477265625,1.1660633087158203,-1.7482068538665771,0.5350391864776611
1782776444298736400,1.957736328125,0.41002750396728516,-1.5829647779464722,0.7963238954544067
1782776444308746000,1.96774609375,-0.13263893127441406,-1.4644076824188232,1.2531839609146118
1782776444318725000,1.97772509765625,-0.4389791488647461,-1.2124032974243164,1.8030990362167358
1782776444328735000,1.98773486328125,-0.5861263275146484,-0.8921771049499512,2.584794282913208
1782776444338744600,1.99774462890625,-0.6456403732299805,-0.6021299362182617,3.504645347595215
1782776444348724000,2.007723876953125,-0.6678695678710938,-0.36029839515686035,4.473018646240234
1782776444358733800,2.01773388671875,-0.5526151657104492,-0.17209768295288086,5.263238906860352
1782776444368743400,2.027743408203125,-0.3166799545288086,-0.10670590400695801,5.732204437255859
1782776444378722800,2.037722900390625,-0.14369678497314453,-0.19937801361083984,5.766484260559082
1782776444388732400,2.047732421875,-0.047707557678222656,-0.558584451675415,5.313225746154785
1782776444398742300,2.0577421875,-0.0651693344116211,-1.003415584564209,4.409850597381592
1782776444408721400,2.067721435546875,-0.1960926055908203,-1.5577895641326904,3.1351518630981445
1782776444418731300,2.077731201171875,-0.3804035186767578,-2.0221896171569824,2.093419075012207
1782776444428740900,2.087740966796875,-0.5770931243896484,-2.2885947227478027,1.1366549730300903
1782776444438720300,2.09772021484375,-0.6999912261962891,-2.38804292678833,0.28023672103881836
1782776444448730000,2.107730224609375,-0.789982795715332,-2.3328659534454346,-0.3117098808288574
1782776444458739700,2.11773974609375,-0.8281221389770508,-2.157492160797119,-0.4841945767402649
1782776444468719000,2.127718994140625,-0.8637275695800781,-1.9034719467163086,-0.31818294525146484
1782776444478729000,2.13772900390625,-0.8807516098022461,-1.5927067995071411,0.14532041549682617
1782776444488738600,2.147738525390625,-0.9080047607421875,-1.2663545608520508,0.6678134202957153
1782776444498718000,2.157718017578125,-1.0577116012573242,-1.0171926021575928,1.0549612045288086
1782776444508727800,2.167727783203125,-1.2757525444030762,-0.803856611251831,1.2749994993209839
1782776444518737400,2.1777373046875,-1.594853401184082,-0.6787173748016357,1.412005066871643
1782776444528747300,2.187747314453125,-1.9070143699645996,-0.5701782703399658,1.5470589399337769
1782776444538726400,2.197726318359375,-2.2078118324279785,-0.5101463794708252,1.6190451383590698
1782776444548736000,2.207736083984375,-2.4686059951782227,-0.4863474369049072,1.6369715929031372
1782776444558745900,2.217745849609375,-2.6126842498779297,-0.4510033130645752,1.6374602317810059
1782776444568725200,2.227725341796875,-2.594135284423828,-0.4361724853515625,1.654130220413208
1782776444578735000,2.237735107421875,-2.409567356109619,-0.3670186996459961,1.659016728401184
1782776444588744700,2.24774462890625,-2.133694648742676,-0.3453712463378906,1.6546450853347778
1782776444598724000,2.25772412109375,-1.6778793334960938,-0.31173014640808105,1.5990959405899048
1782776444608734000,2.26773388671875,-1.1945791244506836,-0.29445409774780273,1.462723970413208
1782776444618743600,2.27774365234375,-0.814082145690918,-0.3278522491455078,1.083457589149475
1782776444628722700,2.28772265625,-0.6137886047363281,-0.31511712074279785,0.6704825162887573
1782776444638732500,2.297732666015625,-0.46950817108154297,-0.3079488277435303,0.26120829582214355
1782776444648742100,2.3077421875,-0.28655052185058594,-0.2724623680114746,-0.006693363189697266
1782776444658721500,2.317721435546875,-0.13743114471435547,-0.2068321704864502,-0.2298508882522583
1782776444668731400,2.3277314453125,0.0024566650390625,-0.09818267822265625,-0.4346363842487335
1782776444678741000,2.337740966796875,0.2556953430175781,0.018494606018066406,-0.5362465381622314
1782776444688720400,2.347720458984375,0.5673618316650391,0.09241008758544922,-0.4717858135700226
1782776444698730200,2.357730224609375,0.9279756546020508,0.10646390914916992,-0.3798784017562866
1782776444708739800,2.36773974609375,1.2962627410888672,0.020673751831054688,-0.43793582916259766
1782776444718719200,2.37771923828125,1.7082633972167969,-0.04648947715759277,-0.5858318209648132
1782776444728728800,2.387728759765625,2.039684295654297,-0.05547285079956055,-0.9317859411239624
1782776444738738700,2.39773876953125,2.11367130279541,0.062030792236328125,-1.4630095958709717
1782776444748717800,2.4077177734375,1.7843408584594727,0.23282909393310547,-1.970188021659851
1782776444758727700,2.417727783203125,1.1639585494995117,0.26808595657348633,-2.2968149185180664
1782776444768737300,2.4277373046875,0.5565652847290039,0.3435952663421631,-2.2165424823760986
1782776444778747100,2.4377470703125,-0.1847248077392578,0.46135377883911133,-1.602762222290039
1782776444788726500,2.4477265625,-0.8290929794311523,0.4490973949432373,-0.5418814420700073
1782776444798736400,2.457736328125,-0.837921142578125,0.3882737159729004,0.8542417287826538
1782776444808746000,2.46774609375,0.22363758087158203,0.4057784080505371,2.092921733856201
1782776444818725000,2.47772509765625,2.0293283462524414,0.39094996452331543,2.906066417694092
1782776444828735000,2.48773486328125,4.152890205383301,0.30173254013061523,3.5674540996551514
1782776444838744600,2.49774462890625,5.816769599914551,0.09535431861877441,3.442204236984253
1782776444848724000,2.507723876953125,6.68319034576416,-0.26418089866638184,2.593944549560547
1782776444858733600,2.517733642578125,6.400835990905762,-0.8631453514099121,1.395921230316162
1782776444868743400,2.527743408203125,5.189330101013184,-1.5380604267120361,0.1725030541419983
1782776444878722800,2.537722900390625,3.4691858291625977,-2.033062219619751,-0.9473297595977783
1782776444888732700,2.547732666015625,1.67926025390625,-2.2560935020446777,-1.7560114860534668
1782776444898742300,2.5577421875,0.13998031616210938,-2.2914810180664062,-2.0982961654663086
1782776444908721400,2.567721435546875,-0.9724407196044922,-2.128406047821045,-2.0272109508514404
1782776444918731300,2.577731201171875,-1.7169861793518066,-1.9076629877090454,-1.7936697006225586
1782776444928740900,2.587740966796875,-2.1666245460510254,-1.607879877090454,-1.4350266456604004
1782776444938720300,2.59772021484375,-2.464083194732666,-1.3798010349273682,-0.9037081599235535
1782776444948730000,2.607730224609375,-2.5803370475769043,-1.1681411266326904,-0.2512430250644684
1782776444958740000,2.617739990234375,-2.4708027839660645,-1.0133588314056396,0.4825155735015869
1782776444968719000,2.627718994140625,-2.0799741744995117,-0.773432731628418,1.3223621845245361
1782776444978729000,2.63772900390625,-1.4494781494140625,-0.5682358741760254,2.117478132247925
1782776444988738600,2.647738525390625,-0.4979581832885742,-0.31790852546691895,2.8339130878448486
1782776444998718000,2.657718017578125,0.6520509719848633,-0.1925959587097168,3.3279037475585938
1782776445008727800,2.667727783203125,1.8668889999389648,-0.2593381404876709,3.4592881202697754
1782776445018737400,2.6777373046875,2.910313606262207,-0.47489285469055176,3.064819097518921
1782776445028747300,2.687747314453125,3.4964847564697266,-0.8707892894744873,2.1708481311798096
1782776445038726400,2.697726318359375,3.4109153747558594,-1.4356358051300049,1.0363349914550781
1782776445048736000,2.707736083984375,2.7599048614501953,-1.9079620838165283,0.20051711797714233
1782776445058745900,2.717745849609375,1.7781143188476562,-2.3120999336242676,-0.3941090404987335
1782776445068725200,2.727725341796875,0.7381572723388672,-2.535945177078247,-0.7170458436012268
1782776445078735000,2.737735107421875,-0.18632984161376953,-2.4962925910949707,-0.7396875619888306
1782776445088744700,2.74774462890625,-0.9195041656494141,-2.333805561065674,-0.38885265588760376
1782776445098724000,2.75772412109375,-1.3716187477111816,-2.102501153945923,0.23909544944763184
1782776445108734000,2.76773388671875,-1.6698107719421387,-1.8878531455993652,0.8404862880706787
1782776445118743600,2.77774365234375,-1.859886646270752,-1.7085535526275635,1.251868724822998
1782776445128722700,2.78772265625,-2.0464906692504883,-1.6311864852905273,1.5268151760101318
1782776445138732500,2.797732666015625,-2.2339906692504883,-1.5920486450195312,1.6571353673934937
1782776445148742100,2.8077421875,-2.4154090881347656,-1.631678581237793,1.6995114088058472
1782776445158721500,2.817721435546875,-2.557765007019043,-1.7085061073303223,1.606899380683899
1782776445168731400,2.8277314453125,-2.51560115814209,-1.814326524734497,1.458234429359436
1782776445178741000,2.837740966796875,-2.438049793243408,-1.919111967086792,1.3545327186584473
1782776445188720400,2.847720458984375,-2.3684005737304688,-2.0153920650482178,1.3429439067840576
1782776445198730200,2.857730224609375,-2.2611799240112305,-2.0194590091705322,1.3547704219818115
1782776445208739800,2.86773974609375,-2.042295455932617,-1.9813930988311768,1.4353771209716797
1782776445218719200,2.87771923828125,-1.6786580085754395,-1.926698923110962,1.6462645530700684
1782776445228728800,2.887728759765625,-1.244396686553955,-1.8244030475616455,1.8993676900863647
1782776445238738400,2.897738525390625,-0.7940239906311035,-1.7329330444335938,2.063239336013794
1782776445248717800,2.9077177734375,-0.2679023742675781,-1.6708645820617676,2.1582822799682617
1782776445258727700,2.917727783203125,0.2548389434814453,-1.616044521331787,2.2849977016448975
1782776445268737500,2.927737548828125,0.8728132247924805,-1.5811476707458496,2.417963981628418
1782776445278747100,2.9377470703125,1.4338960647583008,-1.5371284484863281,2.552844762802124
1782776445288726500,2.9477265625,1.986973762512207,-1.4931769371032715,2.6096324920654297
1782776445298736000,2.957736083984375,2.420804977416992,-1.4280519485473633,2.636106252670288
1782776445308746000,2.96774609375,2.5846471786499023,-1.3677258491516113,2.657381534576416
1782776445318725000,2.97772509765625,2.4389476776123047,-1.3662991523742676,2.7294654846191406
1782776445328675000,2.987675048828125,1.995107650756836,-1.3462162017822266,2.8727023601531982
1782776445338805800,2.9978056640625,1.479201316833496,-1.2806308269500732,3.069977045059204
1782776445349942500,3.008942626953125,0.9211740493774414,-1.1381042003631592,3.3392465114593506
1782776445368804600,3.0278046875,0.14700984954833984,-1.1530592441558838,3.8134613037109375
1782776445378663200,3.0376630859375,0.005017280578613281,-1.2523109912872314,4.00705623626709
1782776445389582600,3.04858251953125,-0.04316902160644531,-1.4688897132873535,4.125932216644287
1782776445408721400,3.067721435546875,-0.031187057495117188,-2.0162243843078613,4.003024101257324
1782776445418731300,3.077731201171875,0.01120758056640625,-2.21636700630188,3.7650372982025146
1782776445428741000,3.0877412109375,0.20429515838623047,-2.3567168712615967,3.4464526176452637
1782776445438720300,3.09772021484375,0.18959331512451172,-2.4794087409973145,3.043415069580078
1782776445448730000,3.107730224609375,-0.1347675323486328,-2.567500591278076,2.5994622707366943
1782776445458739700,3.11773974609375,-0.847569465637207,-2.576167583465576,2.1683640480041504
1782776445468719000,3.127718994140625,-1.638556957244873,-2.6884493827819824,2.0634567737579346
1782776445478729000,3.13772900390625,-2.307091236114502,-2.8751626014709473,2.424718141555786
1782776445488738600,3.147738525390625,-2.5070128440856934,-3.0436344146728516,3.1414270401000977
1782776445498718000,3.157718017578125,-2.0585570335388184,-3.1508805751800537,4.089940547943115
1782776445509944000,3.168944091796875,-0.7046785354614258,-3.404041290283203,5.048675537109375
1782776445528747300,3.187747314453125,1.872328758239746,-4.448263168334961,5.697962760925293
1782776445538726400,3.197726318359375,3.0285749435424805,-5.036144733428955,5.216775894165039
1782776445548736300,3.207736328125,3.820643424987793,-5.534773826599121,4.209198474884033
1782776445558745900,3.217745849609375,3.9842424392700195,-6.0292463302612305,2.9193005561828613
1782776445568725200,3.227725341796875,3.678995132446289,-6.3871002197265625,1.5020583868026733
1782776445578734800,3.23773486328125,3.1610336303710938,-6.379179954528809,0.2684417963027954
1782776445588744700,3.24774462890625,2.606509208679199,-6.180381774902344,-0.6395543813705444
1782776445598724000,3.25772412109375,1.993565559387207,-5.892617702484131,-1.0875191688537598
1782776445608734000,3.26773388671875,1.3829975128173828,-5.553610324859619,-1.1732265949249268
1782776445618743600,3.27774365234375,0.8689899444580078,-5.177931785583496,-1.0755295753479004
1782776445628722700,3.28772265625,0.45159435272216797,-4.824281692504883,-0.9329646825790405
1782776445638732500,3.297732666015625,0.22418689727783203,-4.551327228546143,-0.7728120684623718
1782776445648742100,3.3077421875,0.30272579193115234,-4.312323093414307,-0.6296279430389404
1782776445658721500,3.317721435546875,0.6904201507568359,-4.091736316680908,-0.48974430561065674
1782776445668731400,3.3277314453125,1.1652402877807617,-3.9072227478027344,-0.3480348587036133
1782776445678741000,3.337740966796875,1.477360725402832,-3.7018842697143555,-0.1669377088546753
1782776445688720400,3.347720458984375,1.624739646911621,-3.4406206607818604,-0.08634400367736816
1782776445698730200,3.357730224609375,1.7667522430419922,-3.1279163360595703,0.008706331253051758
1782776445708739800,3.36773974609375,1.9712038040161133,-2.8109304904937744,0.17120146751403809
1782776445718719000,3.377718994140625,2.255772590637207,-2.478135824203491,0.41463375091552734
1782776445728728800,3.387728759765625,2.523421287536621,-2.193035125732422,0.7375519275665283
1782776445738738400,3.397738525390625,2.698084831237793,-1.908228874206543,0.9930734634399414
1782776445748717800,3.4077177734375,2.7588605880737305,-1.7322598695755005,0.9758543968200684
1782776445758727700,3.417727783203125,2.749558448791504,-1.5828559398651123,0.7078611850738525
1782776445768737300,3.4277373046875,2.5911617279052734,-1.505683422088623,0.2666478157043457
1782776445778747100,3.4377470703125,2.3107595443725586,-1.4046764373779297,-0.23230695724487305
1782776445788726500,3.4477265625,2.0729570388793945,-1.2806710004806519,-0.711005449295044
1782776445798736100,3.457736083984375,1.8941783905029297,-1.0561041831970215,-0.9981588125228882
1782776445808746000,3.46774609375,1.7162084579467773,-0.7672853469848633,-1.0774613618850708
1782776445818725000,3.47772509765625,1.5859870910644531,-0.3897351026535034,-0.9165678024291992
1782776445828735000,3.48773486328125,1.468522071838379,-0.044629573822021484,-0.6253824234008789
1782776445838744600,3.49774462890625,1.3042535781860352,0.2548491954803467,-0.311962366104126
1782776445848664300,3.507664306640625,1.0736513137817383,0.443253755569458,-0.03215146064758301
1782776445858794800,3.517794677734375,0.8354272842407227,0.5879659652709961,0.2030167579650879
1782776445868683800,3.527683837890625,0.5718202590942383,0.6954200267791748,0.41711950302124023
1782776445878814200,3.537814208984375,0.1973552703857422,0.7535748481750488,0.6234254837036133
1782776445888732700,3.547732666015625,-0.1980876922607422,0.7946169376373291,0.7576291561126709
1782776445898742300,3.5577421875,-0.5653762817382812,0.7924144268035889,0.7952864170074463
1782776445908721400,3.567721435546875,-0.9003362655639648,0.7527852058410645,0.7641499042510986
1782776445918731300,3.577731201171875,-1.1285076141357422,0.7179114818572998,0.6316399574279785
1782776445928681200,3.58768115234375,-1.3330340385437012,0.661491870880127,0.580432653427124
1782776445938812000,3.59781201171875,-1.5179080963134766,0.5863711833953857,0.5194644927978516
1782776445948730000,3.607730224609375,-1.6834301948547363,0.5063273906707764,0.4482569694519043
1782776445958739700,3.61773974609375,-1.878873348236084,0.45565032958984375,0.41361427307128906
1782776445968719000,3.627718994140625,-2.0394420623779297,0.3642888069152832,0.324993371963501
1782776445978729000,3.63772900390625,-2.1331472396850586,0.32877111434936523,0.1933913230895996
1782776445988738800,3.64773876953125,-2.1910829544067383,0.35709714889526367,0.08518695831298828
1782776445998718000,3.657718017578125,-2.1981453895568848,0.4166600704193115,0.04934096336364746
1782776446008727800,3.667727783203125,-2.1924099922180176,0.519453763961792,0.10616874694824219
1782776446018737400,3.6777373046875,-2.0925631523132324,0.6256263256072998,0.10390090942382812
1782776446028747300,3.687747314453125,-1.9946093559265137,0.7885770797729492,0.13804244995117188
1782776446038726400,3.697726318359375,-1.798233985900879,0.9438624382019043,0.1562976837158203
1782776446048736300,3.707736328125,-1.5827865600585938,1.0915606021881104,0.16932225227355957
1782776446058686200,3.717686279296875,-1.2163934707641602,1.2315254211425781,0.28861165046691895
1782776446069616600,3.72861669921875,-0.780735969543457,1.3816711902618408,0.5662616491317749
1782776446088744700,3.74774462890625,0.2343921661376953,1.5098800659179688,1.1480962038040161
1782776446098724000,3.75772412109375,0.6304178237915039,1.4688937664031982,1.3526828289031982
1782776446108734000,3.76773388671875,0.8957786560058594,1.3551335334777832,1.4588438272476196
1782776446118743600,3.77774365234375,1.0653018951416016,1.1587977409362793,1.4909863471984863
1782776446128722700,3.78772265625,1.181422233581543,0.6872844696044922,1.1815091371536255
1782776446138732500,3.797732666015625,1.1235980987548828,0.24783039093017578,0.8025375604629517
1782776446148742100,3.8077421875,0.9084272384643555,-0.16213440895080566,0.2572810649871826
1782776446158662000,3.817661865234375,0.6523170471191406,-0.4461405277252197,-0.2021489143371582
1782776446168792300,3.827792236328125,0.4969606399536133,-0.7015385627746582,-0.6416171789169312
1782776446178681300,3.837681396484375,0.38683128356933594,-0.9294096231460571,-1.008081316947937
1782776446188752100,3.847752197265625,0.2762613296508789,-1.1811856031417847,-1.3886774778366089
1782776446198791200,3.857791259765625,0.15550804138183594,-1.3068146705627441,-1.7262508869171143
1782776446208739800,3.86773974609375,0.03460693359375,-1.3669581413269043,-2.028951644897461
1782776446218719000,3.877718994140625,-0.08844947814941406,-1.361807107925415,-2.3176658153533936
1782776446228728800,3.887728759765625,-0.22234535217285156,-1.2915993928909302,-2.5570056438446045
1782776446238738400,3.897738525390625,-0.45717811584472656,-1.1365396976470947,-2.842434883117676
1782776446248717800,3.9077177734375,-0.7061662673950195,-0.938915491104126,-3.016693592071533
1782776446258727700,3.917727783203125,-1.0740470886230469,-0.7942793369293213,-2.866372585296631
1782776446268737300,3.9277373046875,-1.3232736587524414,-0.7761979103088379,-2.569033622741699
1782776446278747100,3.9377470703125,-1.2991037368774414,-0.873356819152832,-2.3556008338928223
1782776446288726500,3.9477265625,-0.9050960540771484,-1.0813796520233154,-2.1934115886688232
1782776446298736000,3.957736083984375,-0.3446674346923828,-1.223333716392517,-2.0510611534118652
1782776446308746000,3.96774609375,0.1724863052368164,-1.1214208602905273,-2.067080497741699
1782776446318725000,3.97772509765625,0.49784183502197266,-0.8837816715240479,-2.22322154045105
1782776446328735000,3.98773486328125,0.7468280792236328,-0.6333954334259033,-2.252633810043335
1782776446338744600,3.99774462890625,0.7547607421875,-0.4707043170928955,-2.0700864791870117
1782776446348724000,4.007723876953125,0.6559009552001953,-0.3245401382446289,-1.8692996501922607
1782776446358674200,4.017674072265625,0.46002674102783203,-0.12050676345825195,-1.730773687362671
1782776446368745000,4.027744873046875,0.4167804718017578,0.07986640930175781,-1.5858129262924194
1782776446378814500,4.037814453125,0.780705451965332,0.26687049865722656,-1.2911235094070435
1782776446388732700,4.047732666015625,1.504542350769043,0.40488457679748535,-0.8256990909576416
1782776446398742300,4.0577421875,2.276020050048828,0.5676271915435791,-0.32605886459350586
1782776446408721400,4.067721435546875,3.1630630493164062,0.7771275043487549,-0.002286553382873535
1782776446418731300,4.077731201171875,3.799807548522949,0.9219012260437012,0.22377228736877441
1782776446428741000,4.0877412109375,4.08575439453125,0.9174957275390625,0.2938932180404663
1782776446438720300,4.09772021484375,4.041729927062988,0.7649478912353516,0.21181142330169678
1782776446448730000,4.107730224609375,3.649716377258301,0.587029218673706,-0.04475140571594238
1782776446458739700,4.11773974609375,3.00673770904541,0.39106011390686035,-0.3634260892868042
1782776446468719000,4.127718994140625,2.35125732421875,0.2412097454071045,-0.7430109977722168
1782776446478729000,4.13772900390625,1.663492202758789,0.10450887680053711,-1.0317044258117676
1782776446488738600,4.147738525390625,0.9866037368774414,0.05193066596984863,-1.2817565202713013
1782776446498718000,4.157718017578125,0.3049774169921875,0.056560516357421875,-1.4849090576171875
1782776446508727800,4.167727783203125,-0.33940696716308594,-0.05784893035888672,-1.7613657712936401
1782776446518737400,4.1777373046875,-1.0506486892700195,-0.16500616073608398,-1.995887041091919
1782776446528747300,4.187747314453125,-1.7336835861206055,-0.21967029571533203,-2.0270814895629883
1782776446538726400,4.197726318359375,-2.401766300201416,-0.16070771217346191,-1.9097802639007568
1782776446548736000,4.207736083984375,-3.011915683746338,-0.020055532455444336,-1.819476842880249
1782776446558745900,4.217745849609375,-3.411623954772949,0.13584494590759277,-1.8165860176086426
1782776446568725200,4.227725341796875,-3.585193634033203,0.29123926162719727,-1.8961246013641357
1782776446578735000,4.237735107421875,-3.528620719909668,0.377044677734375,-2.009117841720581
1782776446588744700,4.24774462890625,-3.438661575317383,0.4822371006011963,-2.059600830078125
1782776446598724000,4.25772412109375,-3.341757297515869,0.5990173816680908,-2.0226266384124756
1782776446608734000,4.26773388671875,-3.3410110473632812,0.8179054260253906,-1.8365788459777832
1782776446618743600,4.27774365234375,-3.195101737976074,1.0513532161712646,-1.697307825088501
1782776446628722700,4.28772265625,-2.8069634437561035,1.1110270023345947,-1.646079421043396
1782776446638732500,4.297732666015625,-2.2802376747131348,1.1233797073364258,-1.5462396144866943
1782776446648742100,4.3077421875,-1.6365385055541992,1.1029300689697266,-1.3873569965362549
1782776446658721500,4.317721435546875,-1.0857839584350586,1.1119451522827148,-1.213576078414917
1782776446668731400,4.3277314453125,-0.5719718933105469,1.1425471305847168,-1.0275242328643799
1782776446678741000,4.337740966796875,-0.22589397430419922,1.1386725902557373,-0.9383522272109985
1782776446688720400,4.347720458984375,0.010801315307617188,1.127319097518921,-0.8522762656211853
1782776446698730200,4.357730224609375,0.11712646484375,1.0772864818572998,-0.7530997395515442
1782776446708740000,4.367739990234375,0.21010780334472656,1.051581859588623,-0.7390789985656738
1782776446718719000,4.377718994140625,0.36363697052001953,1.0393402576446533,-0.7388638854026794
1782776446728728800,4.387728759765625,0.4770221710205078,0.9671230316162109,-0.7204528450965881
1782776446738738400,4.397738525390625,0.4184141159057617,0.8982954025268555,-0.7004151940345764
1782776446748717800,4.4077177734375,0.35028934478759766,0.7789766788482666,-0.688611626625061
1782776446758727700,4.417727783203125,0.2130584716796875,0.7014853954315186,-0.6460890173912048
1782776446768737300,4.4277373046875,0.15004634857177734,0.6313109397888184,-0.7055994868278503
1782776446778747100,4.4377470703125,0.16353225708007812,0.5165557861328125,-0.751267671585083
1782776446788726500,4.4477265625,0.1743297576904297,0.4153892993927002,-0.6660059094429016
1782776446798736100,4.457736083984375,0.23291301727294922,0.34179067611694336,-0.7121304869651794
1782776446808746000,4.46774609375,0.4006977081298828,0.037555694580078125,-0.44103723764419556
1782776446818725000,4.47772509765625,0.5638771057128906,-0.13712334632873535,-0.27198565006256104
1782776446828735000,4.48773486328125,0.8046398162841797,-0.23971056938171387,-0.16327479481697083
1782776446838744600,4.49774462890625,0.9754781723022461,-0.2768588066101074,-0.11371859163045883
1782776446848724000,4.507723876953125,1.043527603149414,-0.26027631759643555,-0.15085318684577942
1782776446858733800,4.51773388671875,0.9968833923339844,-0.25339579582214355,-0.15371441841125488
1782776446868743400,4.527743408203125,0.8890447616577148,-0.22801685333251953,-0.10260777920484543
1782776446878722800,4.537722900390625,0.6247520446777344,-0.17165040969848633,-0.028311537578701973
1782776446888732700,4.547732666015625,0.46276283264160156,-0.11860299110412598,0.04390767589211464
1782776446898742300,4.5577421875,0.47632598876953125,-0.07393407821655273,0.10318060964345932
1782776446908721400,4.567721435546875,0.5555267333984375,-0.049353837966918945,0.0820322334766388
1782776446918731300,4.577731201171875,0.6598987579345703,-0.06715703010559082,0.14138364791870117
1782776446928741000,4.5877412109375,0.6795387268066406,-0.0944979190826416,0.2790223956108093
1782776446938720300,4.59772021484375,0.6589927673339844,-0.1600961685180664,0.18010669946670532
1782776446948730000,4.607730224609375,0.6142196655273438,-0.20113515853881836,0.052737608551979065
1782776446958739700,4.61773974609375,0.3299875259399414,-0.1824190616607666,-0.263309508562088
1782776446968719000,4.627718994140625,-0.15779685974121094,0.0469355583190918,-0.7576433420181274
1782776446978729000,4.63772900390625,-0.8378705978393555,0.2494661808013916,-1.086426019668579
1782776446988738800,4.64773876953125,-1.5788836479187012,0.23286199569702148,-0.8623121976852417
1782776446998718000,4.657718017578125,-2.1596336364746094,0.10332703590393066,-0.10931451618671417
1782776447008727800,4.667727783203125,-2.336904525756836,-0.03853201866149902,0.8085750937461853
1782776447018737400,4.6777373046875,-1.9131860733032227,-0.12967443466186523,1.5732098817825317
1782776447028747300,4.687747314453125,-0.8536710739135742,-0.35852789878845215,1.8040691614151
1782776447038726400,4.697726318359375,0.5945949554443359,-0.7634451389312744,1.7240688800811768
1782776447048736300,4.707736328125,1.5638179779052734,-1.2205181121826172,1.4547648429870605
1782776447058745900,4.717745849609375,2.189663887023926,-1.640481948852539,0.8314157128334045
1782776447068725200,4.727725341796875,2.415628433227539,-1.9758070707321167,0.1075127124786377
1782776447078734800,4.73773486328125,2.260507583618164,-2.1702847480773926,-0.5327159762382507
1782776447088744700,4.74774462890625,1.7844352722167969,-2.199124574661255,-0.9818031787872314
1782776447098724000,4.75772412109375,1.2086124420166016,-2.0435004234313965,-1.0411957502365112
1782776447108734000,4.76773388671875,0.57464599609375,-1.776676893234253,-0.9029045104980469
1782776447118743600,4.77774365234375,-0.07430744171142578,-1.5256690979003906,-0.8069807291030884
1782776447128722700,4.78772265625,-0.713047981262207,-1.3541524410247803,-0.8023906946182251
1782776447138732300,4.797732177734375,-1.2865991592407227,-1.2712992429733276,-0.74788498878479
1782776447148742100,4.8077421875,-1.7662482261657715,-1.1859581470489502,-0.7276793718338013
1782776447158721500,4.817721435546875,-1.9396357536315918,-1.0982379913330078,-0.6850308775901794
1782776447168731400,4.8277314453125,-1.853513240814209,-0.9793143272399902,-0.6488313674926758
1782776447178741000,4.837740966796875,-1.5455427169799805,-0.8967931270599365,-0.507954478263855
1782776447188720400,4.847720458984375,-1.1053438186645508,-0.7881002426147461,-0.29687178134918213
1782776447198730200,4.857730224609375,-0.6385068893432617,-0.7037851810455322,-0.060230374336242676
1782776447208739800,4.86773974609375,-0.28611183166503906,-0.6482119560241699,0.1034238338470459
1782776447218719000,4.877718994140625,-0.058073997497558594,-0.46666932106018066,0.32845914363861084
1782776447228728800,4.887728759765625,0.01688861846923828,-0.2746284008026123,0.5011805295944214
1782776447238738400,4.897738525390625,-0.042514801025390625,-0.10255908966064453,0.6658526659011841
1782776447248717800,4.9077177734375,-0.03893280029296875,-0.07985472679138184,0.5787285566329956
1782776447258727700,4.917727783203125,-0.02052593231201172,-0.1998741626739502,0.2765730619430542
1782776447268737300,4.9277373046875,-0.10881233215332031,-0.1802065372467041,-0.12546956539154053
1782776447278747100,4.9377470703125,-0.23125839233398438,-0.3094046115875244,-0.5795156359672546
1782776447288726500,4.9477265625,-0.2905616760253906,-0.39833593368530273,-1.089646816253662
1782776447298736000,4.957736083984375,-0.28613948822021484,-0.38024115562438965,-1.4668515920639038
1782776447308746000,4.96774609375,-0.26215553283691406,-0.3016810417175293,-1.6249852180480957
1782776447318725000,4.97772509765625,-0.20002079010009766,-0.17670583724975586,-1.54364013671875
1782776447328735000,4.98773486328125,-0.13878822326660156,0.018277406692504883,-1.3009045124053955
1782776447338744600,4.99774462890625,-0.18962860107421875,0.23266053199768066,-0.9688369035720825
1782776447348724000,5.007723876953125,-0.2893657684326172,0.45655202865600586,-0.6409715414047241
1782776447358733800,5.01773388671875,-0.4205942153930664,0.6643581390380859,-0.35422027111053467
1782776447368743400,5.027743408203125,-0.5470952987670898,0.8051738739013672,-0.01405489444732666
1782776447378722800,5.037722900390625,-0.7173919677734375,0.9691925048828125,0.2959383726119995
1782776447388732700,5.047732666015625,-0.9683456420898438,1.0964365005493164,0.5313552618026733
1782776447398742300,5.0577421875,-1.1311874389648438,1.089128017425537,0.5531033277511597
1782776447408721400,5.067721435546875,-1.0614337921142578,0.7636892795562744,0.4646484851837158
1782776447418731300,5.077731201171875,-0.9013738632202148,0.48594164848327637,0.3202650547027588
1782776447428741000,5.0877412109375,-0.668243408203125,0.24190521240234375,0.10421550273895264
1782776447438720300,5.09772021484375,-0.4767189025878906,0.19602727890014648,-0.04420185089111328
1782776447448730000,5.107730224609375,-0.20532894134521484,0.13958096504211426,-0.24118661880493164
1782776447458739700,5.11773974609375,0.022907257080078125,0.08402252197265625,-0.31399381160736084
1782776447468719000,5.127718994140625,0.23089599609375,0.059906721115112305,-0.405631422996521
1782776447478729000,5.13772900390625,0.33129119873046875,0.04041004180908203,-0.3719831705093384
1782776447488738600,5.147738525390625,0.28153038024902344,-0.04911947250366211,-0.2288120985031128
1782776447498718000,5.157718017578125,0.2493915557861328,-0.09069418907165527,-0.14147132635116577
1782776447508727800,5.167727783203125,0.34086132049560547,-0.10073447227478027,-0.03486698865890503
1782776447518737400,5.1777373046875,0.4347982406616211,-0.15129351615905762,0.10174238681793213
1782776447528747300,5.187747314453125,0.5019998550415039,-0.246504545211792,0.14549612998962402
1782776447538726400,5.197726318359375,0.6378870010375977,-0.3763234615325928,0.03789776563644409
1782776447548736000,5.207736083984375,0.7772026062011719,-0.5132052898406982,-0.09733313322067261
1782776447558745900,5.217745849609375,0.9219036102294922,-0.6777510643005371,-0.17316460609436035
1782776447568725200,5.227725341796875,0.9881191253662109,-0.7932472229003906,-0.14608168601989746
1782776447578735000,5.237735107421875,1.05035400390625,-0.8749237060546875,-0.08496558666229248
1782776447588744700,5.24774462890625,1.0352163314819336,-0.7363162040710449,-0.12649929523468018
1782776447598724000,5.25772412109375,0.9989995956420898,-0.42749571800231934,-0.4919475018978119
1782776447608734000,5.26773388671875,0.7674627304077148,-0.05030512809753418,-1.0662249326705933
1782776447618743600,5.27774365234375,0.4123687744140625,0.21268153190612793,-1.322211503982544
1782776447628723000,5.287722900390625,-0.03473663330078125,0.38081932067871094,-0.9021140933036804
1782776447638732300,5.297732177734375,-0.21445465087890625,0.4149131774902344,-0.20529168844223022
1782776447648742100,5.3077421875,-0.08457374572753906,0.2968130111694336,0.6058805584907532
1782776447658721500,5.317721435546875,0.31966114044189453,-0.04081845283508301,1.2788589000701904
1782776447668731100,5.327731201171875,0.8791961669921875,-0.6511545181274414,1.5378122329711914
1782776447678741000,5.337740966796875,1.757883071899414,-1.131441593170166,1.3821372985839844
1782776447688720400,5.347720458984375,2.4480113983154297,-1.4724067449569702,1.0399298667907715
1782776447698730200,5.357730224609375,2.9747934341430664,-1.7501606941223145,0.6017001867294312
1782776447708740000,5.367739990234375,3.263003349304199,-1.973785400390625,0.01517254114151001
1782776447718719000,5.377718994140625,3.352341651916504,-2.217568874359131,-0.6957072615623474
1782776447728728800,5.387728759765625,3.183659553527832,-2.499148368835449,-1.4071638584136963
1782776447738738400,5.397738525390625,2.74344539642334,-2.6541683673858643,-2.131147623062134
1782776447748717800,5.4077177734375,2.0300817489624023,-2.6770853996276855,-2.5811359882354736
1782776447758668000,5.41766796875,1.2499885559082031,-2.6324496269226074,-2.6233859062194824
1782776447768798500,5.427798583984375,0.6949663162231445,-2.4096906185150146,-2.4968338012695312
1782776447778747100,5.4377470703125,0.5217447280883789,-2.2095041275024414,-2.3114497661590576
1782776447788726500,5.4477265625,0.4516429901123047,-1.9307961463928223,-2.025569438934326
1782776447798736100,5.457736083984375,0.6160898208618164,-1.7267035245895386,-1.7271203994750977
1782776447808746000,5.46774609375,0.7755146026611328,-1.645399808883667,-1.420532464981079
1782776447818725000,5.47772509765625,0.8707027435302734,-1.6534335613250732,-0.9613132476806641
1782776447828735000,5.48773486328125,0.9453191757202148,-1.6569809913635254,-0.3701592981815338
1782776447838744600,5.49774462890625,0.9900274276733398,-1.604062795639038,0.15113215148448944
1782776447848724000,5.507723876953125,0.9759130477905273,-1.5370947122573853,0.3916347622871399
1782776447858733800,5.51773388671875,0.9695806503295898,-1.5098499059677124,0.4857982099056244
1782776447868743400,5.527743408203125,0.9083757400512695,-1.53799569606781,0.593467116355896
1782776447878722800,5.537722900390625,0.7989902496337891,-1.6106420755386353,0.527296781539917
1782776447888732700,5.547732666015625,0.5476408004760742,-1.7411153316497803,0.41533511877059937
1782776447898742300,5.5577421875,0.2954864501953125,-1.8406938314437866,0.24875995516777039
1782776447908721700,5.5677216796875,0.09974384307861328,-1.9637165069580078,-0.002553194761276245
1782776447918731300,5.577731201171875,0.0029439926147460938,-2.072657585144043,-0.25722479820251465
1782776447928741000,5.5877412109375,-0.1264810562133789,-2.1176700592041016,-0.4735110402107239
1782776447938720300,5.59772021484375,-0.1348867416381836,-2.090402126312256,-0.6533814668655396
1782776447948730000,5.607730224609375,-0.24108314514160156,-1.9759284257888794,-0.8215510845184326
1782776447958740000,5.617739990234375,-0.4126291275024414,-1.8571090698242188,-0.86844801902771
1782776447968719000,5.627718994140625,-0.7183198928833008,-1.7526034116744995,-0.8653589487075806
1782776447978669300,5.63766943359375,-1.1363372802734375,-1.6200358867645264,-0.8265348672866821
1782776447991340500,5.650340576171875,-1.7839765548706055,-1.4257302284240723,-0.8628623485565186
1782776448008727800,5.667727783203125,-2.099208354949951,-1.24953293800354,-0.8846596479415894
1782776448018737400,5.6777373046875,-2.1147799491882324,-1.1336548328399658,-0.8434060215950012
1782776448028747300,5.687747314453125,-2.049008369445801,-0.9936978816986084,-0.6301641464233398
1782776448038726400,5.697726318359375,-1.921126365661621,-0.8701655864715576,-0.474177747964859
1782776448048736000,5.707736083984375,-1.7592530250549316,-0.7959675788879395,-0.43931713700294495
1782776448058745900,5.717745849609375,-1.491074562072754,-0.772545576095581,-0.4863463044166565
1782776448069963300,5.72896337890625,-1.058781623840332,-0.7865777015686035,-0.5134304761886597
1782776448088744700,5.74774462890625,-0.5317697525024414,-0.7714052200317383,-0.35642215609550476
1782776448098724000,5.75772412109375,-0.42324161529541016,-0.6446800231933594,-0.20999504625797272
1782776448108734000,5.76773388671875,-0.5231571197509766,-0.4934694766998291,-0.09967544674873352
1782776448118743600,5.77774365234375,-0.6995458602905273,-0.4527139663696289,-0.1622789055109024
1782776448128722700,5.78772265625,-0.7206792831420898,-0.4729738235473633,-0.22334668040275574
1782776448138732300,5.797732177734375,-0.7241277694702148,-0.5341248512268066,-0.27451616525650024
1782776448148742100,5.8077421875,-0.7846231460571289,-0.5746784210205078,-0.2922552525997162
1782776448158721500,5.817721435546875,-0.9907503128051758,-0.5443172454833984,-0.25950857996940613
1782776448168731400,5.8277314453125,-1.2348556518554688,-0.5265870094299316,-0.2221842259168625
1782776448178741000,5.837740966796875,-1.5009722709655762,-0.5168263912200928,-0.18889620900154114
1782776448188720400,5.847720458984375,-1.5315842628479004,-0.48319435119628906,-0.1110449880361557
1782776448198730200,5.857730224609375,-1.3612432479858398,-0.4370150566101074,0.015072405338287354
1782776448208739800,5.86773974609375,-1.1281719207763672,-0.44475293159484863,0.2392803132534027
1782776448218719000,5.877718994140625,-0.8255758285522461,-0.4570193290710449,0.42920321226119995
1782776448228728800,5.887728759765625,-0.5773687362670898,-0.5592129230499268,0.6150144934654236
1782776448238678800,5.8976787109375,-0.30153656005859375,-0.7028670310974121,0.6693803071975708
1782776448248809500,5.9078095703125,0.0475311279296875,-0.7590205669403076,0.4229564368724823
1782776448258727700,5.917727783203125,0.4507293701171875,-0.4861183166503906,-0.40527233481407166
1782776448268677600,5.927677734375,0.5256929397583008,-0.12440896034240723,-0.9749406576156616
1782776448278808300,5.937808349609375,0.105621337890625,-0.3185763359069824,-0.788670539855957
1782776448288726500,5.9477265625,-0.556788444519043,-0.5242824554443359,-0.18827639520168304
1782776448298736000,5.957736083984375,-0.9386577606201172,-0.5708897113800049,0.27452364563941956
1782776448308746000,5.96774609375,-0.8258094787597656,-0.7023863792419434,0.7759037613868713
1782776448318725000,5.97772509765625,-0.37305355072021484,-1.007920265197754,1.145628809928894
1782776448328735000,5.98773486328125,0.20761871337890625,-1.3893272876739502,1.5310180187225342
1782776448338744600,5.99774462890625,0.8947582244873047,-1.6762043237686157,1.789778232574463
1782776448348724000,6.007723876953125,1.6664361953735352,-1.816790223121643,1.797525405883789
1782776448358733800,6.01773388671875,2.389066696166992,-1.9368717670440674,1.6504878997802734
1782776448368743400,6.027743408203125,2.9394655227661133,-2.0706350803375244,1.2691938877105713
1782776448378722800,6.037722900390625,3.185182571411133,-2.097308397293091,0.8245096802711487
1782776448388732700,6.047732666015625,3.194033622741699,-2.042870044708252,0.29454153776168823
1782776448398742300,6.0577421875,2.8180179595947266,-1.8744616508483887,-0.35397103428840637
1782776448408721700,6.0677216796875,2.1149215698242188,-1.6674087047576904,-0.8462095856666565
1782776448418731300,6.077731201171875,1.0159130096435547,-1.495936393737793,-1.026496410369873
1782776448428741000,6.0877412109375,0.02159404754638672,-1.2154028415679932,-1.064119577407837
1782776448438720300,6.09772021484375,-0.698272705078125,-0.9315813779830933,-1.0318511724472046
1782776448448730000,6.107730224609375,-1.1827821731567383,-0.6924570798873901,-0.8467555046081543
1782776448458739700,6.11773974609375,-1.3682336807250977,-0.493951678276062,-0.5737240314483643
1782776448468719000,6.127718994140625,-1.3416776657104492,-0.3333473205566406,-0.21018868684768677
1782776448478729000,6.13772900390625,-1.1829051971435547,-0.24230444431304932,0.17177045345306396
1782776448488738600,6.147738525390625,-1.052842140197754,-0.1476353406906128,0.6524327993392944
1782776448498718000,6.157718017578125,-0.8155994415283203,-0.12140512466430664,1.1502083539962769
1782776448508727800,6.167727783203125,-0.368865966796875,-0.1199045181274414,1.522033452987671
1782776448518737400,6.1777373046875,0.32732677459716797,-0.13979005813598633,1.7498092651367188
1782776448528747300,6.187747314453125,1.0023469924926758,-0.24246704578399658,1.7005500793457031
1782776448538726400,6.197726318359375,1.6052217483520508,-0.33330047130584717,1.3687424659729004
1782776448548736300,6.207736328125,2.035654067993164,-0.4695761203765869,0.7969005703926086
1782776448558745900,6.217745849609375,2.0120019912719727,-0.6166437864303589,0.15094006061553955
1782776448568725200,6.227725341796875,1.5072593688964844,-0.7503000497817993,-0.29488688707351685
1782776448578734800,6.23773486328125,0.7912912368774414,-0.8304309844970703,-0.642366886138916
1782776448588744700,6.24774462890625,0.02093982696533203,-0.8066345453262329,-1.034959077835083
1782776448598724000,6.25772412109375,-0.7314519882202148,-0.6960768699645996,-1.2754677534103394
1782776448608734000,6.26773388671875,-1.4012718200683594,-0.5720775127410889,-1.293717861175537
1782776448618683600,6.27768359375,-1.974764347076416,-0.4320763349533081,-1.1707942485809326
1782776448628814300,6.287814453125,-2.1799235343933105,-0.3265714645385742,-0.9687819480895996
1782776448638732500,6.297732666015625,-2.172633171081543,-0.1973884105682373,-0.8154412508010864
1782776448648742100,6.3077421875,-1.9179439544677734,-0.07999157905578613,-0.5714689493179321
1782776448658721500,6.317721435546875,-1.4955205917358398,0.0074825286865234375,-0.3381187915802002
1782776448668731400,6.3277314453125,-1.0850410461425781,0.07616996765136719,-0.11982882022857666
1782776448678741000,6.337740966796875,-0.7195243835449219,0.08455252647399902,0.05944991111755371
1782776448688720400,6.347720458984375,-0.4555692672729492,0.06712841987609863,0.16616731882095337
1782776448698730200,6.357730224609375,-0.2779054641723633,0.01812911033630371,0.2586488127708435
1782776448708739800,6.36773974609375,-0.19561290740966797,-0.0523076057434082,0.3169099688529968
1782776448718719000,6.377718994140625,-0.11730575561523438,-0.14295721054077148,0.2603435516357422
1782776448728728800,6.387728759765625,-0.030008316040039062,-0.16952753067016602,0.23242586851119995
1782776448738738400,6.397738525390625,-0.038840293884277344,-0.16694998741149902,0.15776163339614868
1782776448748717800,6.4077177734375,-0.09818840026855469,-0.13309025764465332,0.05926865339279175
1782776448758727700,6.417727783203125,-0.23384761810302734,-0.06519556045532227,-0.06163829565048218
1782776448768737300,6.4277373046875,-0.46234798431396484,-0.04798316955566406,-0.0897570252418518
1782776448778747100,6.4377470703125,-0.7594976425170898,-0.00016021728515625,-0.07985460758209229
1782776448788726500,6.4477265625,-0.9747333526611328,0.0672919750213623,-0.06859761476516724
1782776448798736100,6.457736083984375,-1.0393552780151367,0.12446045875549316,-0.05538052320480347
1782776448808746000,6.46774609375,-0.9318866729736328,0.1984407901763916,-0.1019754409790039
1782776448818725000,6.47772509765625,-0.8152389526367188,0.249131441116333,-0.06360918283462524
1782776448828734700,6.487734619140625,-0.5959568023681641,0.2353053092956543,-0.031151771545410156
1782776448838744600,6.49774462890625,-0.26040172576904297,0.15990734100341797,-0.1332789659500122
1782776448848724000,6.507723876953125,-0.0023794174194335938,0.055631399154663086,-0.22300228476524353
1782776448858674200,6.517674072265625,0.23081588745117188,-0.05853414535522461,-0.2866904139518738
1782776448868804600,6.5278046875,0.43595409393310547,-0.1642444133758545,-0.36493027210235596
1782776448878722800,6.537722900390625,0.6215724945068359,-0.21392321586608887,-0.5303204655647278
1782776448888732700,6.547732666015625,0.7880859375,0.055388689041137695,-1.0700440406799316
1782776448898742300,6.5577421875,0.6658906936645508,0.5026593208312988,-1.6151206493377686
1782776448908721700,6.5677216796875,0.4339323043823242,0.6586673259735107,-1.5629223585128784
1782776448918731300,6.577731201171875,0.1436786651611328,0.48955869674682617,-1.0293632745742798
1782776448928741000,6.5877412109375,-0.011006355285644531,0.2022993564605713,-0.049099400639534
1782776448938720300,6.59772021484375,0.4640169143676758,0.09819912910461426,1.3865658044815063
1782776448948730000,6.607730224609375,1.3492774963378906,-0.0850675106048584,2.533414840698242
1782776448958739700,6.61773974609375,2.3827877044677734,-0.5529040098190308,2.955918550491333
1782776448968719000,6.627718994140625,3.4429931640625,-1.0417635440826416,2.511873960494995
1782776448978729000,6.63772900390625,4.194157600402832,-1.4763836860656738,1.645521879196167
1782776448988738800,6.64773876953125,4.38492488861084,-1.9102098941802979,0.6514260172843933
1782776448998718000,6.657718017578125,4.0036821365356445,-2.336785078048706,-0.2349182516336441
1782776449008727800,6.667727783203125,3.157628059387207,-2.6503024101257324,-0.9462894201278687
1782776449018737400,6.6777373046875,2.089771270751953,-2.6652960777282715,-1.4840691089630127
1782776449028747300,6.687747314453125,1.0014114379882812,-2.435473680496216,-1.750895619392395
1782776449038726400,6.697726318359375,0.1074209213256836,-2.0991456508636475,-1.655998706817627
1782776449048736000,6.707736083984375,-0.7879438400268555,-1.69205641746521,-1.3402811288833618
1782776449058745900,6.717745849609375,-1.5247774124145508,-1.4463517665863037,-0.9743280410766602
1782776449068725200,6.727725341796875,-2.1207823753356934,-1.2084333896636963,-0.754237711429596
1782776449078735000,6.737735107421875,-2.5629138946533203,-0.9915591478347778,-0.7954275608062744
1782776449088744700,6.74774462890625,-2.8686633110046387,-0.8695068359375,-0.9498018026351929
1782776449098724000,6.75772412109375,-3.089416027069092,-0.7982412576675415,-1.127479076385498
1782776449108734000,6.76773388671875,-3.2376513481140137,-0.8374944925308228,-1.2188682556152344
1782776449118743600,6.77774365234375,-3.3239145278930664,-0.9832746982574463,-1.0260069370269775
1782776449128722700,6.78772265625,-3.361056327819824,-1.2319000959396362,-0.5781553387641907
1782776449138732500,6.797732666015625,-3.2996716499328613,-1.5311698913574219,-0.03516107797622681
1782776449148742100,6.8077421875,-2.728670597076416,-1.7326158285140991,0.30070918798446655
1782776449158721500,6.817721435546875,-1.517226219177246,-1.7550060749053955,0.4240967929363251
1782776449168671700,6.827671630859375,-0.2375621795654297,-1.934999704360962,0.802363395690918
1782776449178742500,6.837742431640625,1.0598583221435547,-2.1011905670166016,0.9654598832130432
1782776449188934700,6.8479345703125,2.381575584411621,-2.178241491317749,0.7653742432594299
1782776449198730200,6.857730224609375,3.444777488708496,-2.2934439182281494,0.3081740438938141
1782776449208739800,6.86773974609375,3.988619804382324,-2.430161237716675,-0.23557665944099426
1782776449218719000,6.877718994140625,4.008801460266113,-2.5577216148376465,-0.8922862410545349
1782776449228728800,6.887728759765625,3.522892951965332,-2.6088101863861084,-1.406437635421753
1782776449238738400,6.897738525390625,2.6675777435302734,-2.543257713317871,-1.549235224723816
1782776449248717800,6.9077177734375,1.7323732376098633,-2.3700098991394043,-1.5489541292190552
1782776449258668000,6.91766796875,0.7718420028686523,-2.0211775302886963,-1.4324657917022705
1782776449271417600,6.93041748046875,-0.09034252166748047,-1.6095457077026367,-0.9134626388549805
1782776449288726500,6.9477265625,-0.9362859725952148,-1.0674113035202026,-0.07451996952295303
1782776449298736000,6.957736083984375,-1.1768884658813477,-0.7915842533111572,0.186446413397789
1782776449308746000,6.96774609375,-1.292245864868164,-0.5755916833877563,0.3231329321861267
1782776449318725000,6.97772509765625,-1.3312005996704102,-0.4519397020339966,0.2986786365509033
1782776449328735000,6.98773486328125,-1.2581071853637695,-0.3883746862411499,0.16313618421554565
1782776449338744600,6.99774462890625,-1.207087516784668,-0.37750041484832764,0.03772161155939102
1782776449348724000,7.007723876953125,-1.1156749725341797,-0.4513591527938843,-0.12126374244689941
1782776449358674200,7.017674072265625,-0.954960823059082,-0.5196940898895264,-0.2743074297904968
1782776449368804600,7.0278046875,-0.6889495849609375,-0.5612008571624756,-0.42100417613983154
1782776449378722800,7.037722900390625,-0.42998218536376953,-0.6029051542282104,-0.4595291316509247
1782776449388732700,7.047732666015625,-0.13481998443603516,-0.59269118309021,-0.5015631318092346
1782776449398742300,7.0577421875,0.07468795776367188,-0.5579533576965332,-0.5286957621574402
1782776449408721700,7.0677216796875,0.1173715591430664,-0.5045397281646729,-0.5456007719039917
1782776449418731300,7.077731201171875,0.06274700164794922,-0.5072472095489502,-0.5348162055015564
1782776449428741000,7.0877412109375,0.03267955780029297,-0.5292365550994873,-0.5913279056549072
1782776449438720300,7.09772021484375,0.050716400146484375,-0.5040627717971802,-0.6232974529266357
1782776449448730000,7.107730224609375,0.03193378448486328,-0.2872469425201416,-0.3433608114719391
1782776449458739700,7.11773974609375,0.11260604858398438,-0.12207317352294922,-0.13460880517959595
1782776449468659500,7.127659423828125,0.26480770111083984,-0.048209309577941895,0.03774213790893555
1782776449478730200,7.137730224609375,0.3931150436401367,-0.007531404495239258,0.18636830151081085
1782776449488799700,7.1477998046875,0.4859342575073242,0.04378211498260498,0.33015578985214233
1782776449498718000,7.157718017578125,0.560633659362793,0.06146359443664551,0.3545341491699219
1782776449508727800,7.167727783203125,0.7511320114135742,0.20722830295562744,0.0982513353228569
1782776449518737400,7.1777373046875,0.8058986663818359,0.5460411310195923,-0.5464993119239807
1782776449528747300,7.187747314453125,0.5221920013427734,0.7950999736785889,-1.0285582542419434
1782776449538726400,7.197726318359375,0.05774497985839844,0.591179609298706,-0.9248652458190918
1782776449548736000,7.207736083984375,-0.3613929748535156,0.33801841735839844,-0.31735366582870483
1782776449558745900,7.217745849609375,-0.35765838623046875,0.26690876483917236,0.291782021522522
1782776449568725200,7.227725341796875,0.4827728271484375,0.12735521793365479,0.9278727769851685
1782776449578675200,7.23767529296875,1.5812807083129883,-0.3121829032897949,1.522657871246338
1782776449589575700,7.24857568359375,2.629612922668457,-0.8292831182479858,1.9605233669281006
1782776449608734000,7.26773388671875,4.655423164367676,-1.6056663990020752,1.0649815797805786
1782776449618743600,7.27774365234375,5.216046333312988,-1.9940882921218872,0.19769620895385742
1782776449628722700,7.28772265625,5.163623809814453,-2.345414161682129,-0.5701781511306763
1782776449638732500,7.297732666015625,4.455812454223633,-2.528862953186035,-1.1538598537445068
1782776449648742100,7.3077421875,3.0666942596435547,-2.506875514984131,-1.37484872341156
1782776449658721500,7.317721435546875,1.5687999725341797,-2.3783750534057617,-1.3852874040603638
1782776449669135600,7.328135498046875,-0.06366920471191406,-2.2818222045898438,-1.266080617904663
1782776449679145200,7.338145263671875,-1.793870449066162,-2.23986554145813,-1.2202014923095703
1782776449689124400,7.348124267578125,-3.0246658325195312,-2.0931575298309326,-1.3360211849212646
1782776449699134200,7.35813427734375,-3.7903051376342773,-1.8820897340774536,-1.5836752653121948
1782776449709143800,7.368143798828125,-4.108912467956543,-1.65191650390625,-1.8611234426498413
1782776449719123200,7.378123291015625,-4.150140285491943,-1.310741901397705,-2.049318790435791
1782776449729133000,7.388133056640625,-3.919987678527832,-1.0256882905960083,-2.1743690967559814
1782776449739142700,7.398142578125,-3.5702357292175293,-0.8382707834243774,-2.136129856109619
1782776449749122000,7.4081220703125,-3.165618896484375,-0.7737925052642822,-1.892849087715149
1782776449759132000,7.4181318359375,-2.741806983947754,-0.8292737007141113,-1.3025243282318115
1782776449769141500,7.4281416015625,-2.448678493499756,-0.9773379564285278,-0.3300356864929199
1782776449779151400,7.4381513671875,-2.2209577560424805,-1.0212241411209106,0.8502317667007446
1782776449789130500,7.448130615234375,-1.685215950012207,-0.8830671310424805,2.07515549659729
1782776449799140000,7.45814013671875,-0.7063560485839844,-0.7551069259643555,2.940054416656494
1782776449809150000,7.46814990234375,0.4964609146118164,-0.7488007545471191,3.4285097122192383
1782776449819129300,7.47812939453125,1.692652702331543,-0.922936201095581,3.4475250244140625
1782776449829139000,7.488138916015625,2.8198490142822266,-1.1829395294189453,2.779141902923584
1782776449839148800,7.498148681640625,3.624391555786133,-1.537480354309082,1.5940086841583252
1782776449849128200,7.508128173828125,3.7791051864624023,-2.0877647399902344,0.2785518169403076
1782776449859138000,7.518137939453125,3.34090518951416,-2.6254825592041016,-0.8174165487289429
1782776449869147600,7.528147705078125,2.5463409423828125,-2.8859972953796387,-1.574925184249878
1782776449879127000,7.538126953125,1.581634521484375,-2.994112491607666,-1.962393045425415
1782776449889136600,7.54813671875,0.5770292282104492,-2.939487934112549,-2.0772476196289062
1782776449899146500,7.558146484375,0.04899883270263672,-2.720640182495117,-1.841386318206787
1782776449909125600,7.568125732421875,-0.06161212921142578,-2.3591957092285156,-1.2134941816329956
1782776449919135500,7.578135498046875,0.05517864227294922,-2.022444725036621,-0.36449092626571655
1782776449929145000,7.58814501953125,0.20272159576416016,-1.7741572856903076,0.3106107711791992
1782776449939124500,7.59812451171875,0.1885051727294922,-1.554300308227539,0.8098791837692261
1782776449949134300,7.60813427734375,0.038417816162109375,-1.3967777490615845,1.1985670328140259
1782776449959144000,7.61814404296875,-0.17496109008789062,-1.2891042232513428,1.4510517120361328
1782776449969123300,7.628123291015625,-0.3548612594604492,-1.2849235534667969,1.4693398475646973
1782776449979133200,7.63813330078125,-0.5901689529418945,-1.2846696376800537,1.3481298685073853
1782776449989143000,7.64814306640625,-0.8390531539916992,-1.3717451095581055,1.2103054523468018
1782776449999122200,7.6581220703125,-0.8217563629150391,-1.436728596687317,1.009364366531372
1782776450009131800,7.6681318359375,-0.7605857849121094,-1.0558290481567383,0.5009448528289795
1782776450019141400,7.678141357421875,-0.7263984680175781,-0.9001924991607666,0.13788509368896484
1782776450029151200,7.688151123046875,-0.8918190002441406,-0.9189887642860413,-0.06944704055786133
1782776450039130600,7.698130615234375,-1.1179914474487305,-0.9546205997467041,-0.2552245855331421
1782776450049140500,7.708140380859375,-1.2495489120483398,-0.9994845390319824,-0.49985724687576294
1782776450059150000,7.718150146484375,-1.2571773529052734,-1.0948234796524048,-0.7046430110931396
1782776450069129500,7.72812939453125,-1.1967763900756836,-1.2441363334655762,-0.7376439571380615
1782776450079139300,7.738139404296875,-1.1787309646606445,-1.4419535398483276,-0.8004608154296875
1782776450089149000,7.74814892578125,-1.0282039642333984,-1.5905400514602661,-1.0089973211288452
1782776450099128000,7.758128173828125,-0.7687673568725586,-1.7796568870544434,-1.155266523361206
1782776450109138000,7.768137939453125,-0.4262380599975586,-1.8632478713989258,-1.1730605363845825
1782776450119147500,7.7781474609375,0.05020427703857422,-1.8463280200958252,-1.210334300994873
1782776450129127000,7.788126953125,0.5530853271484375,-1.746175765991211,-1.292426347732544
1782776450139136800,7.79813671875,0.9439420700073242,-1.6543720960617065,-1.299268126487732
1782776450149146400,7.808146484375,1.2371711730957031,-1.7281193733215332,-1.0441994667053223
1782776450159125800,7.818125732421875,1.5153026580810547,-1.9186511039733887,-0.5620448589324951
1782776450169135600,7.828135498046875,1.7019052505493164,-2.082662582397461,-0.1220165565609932
1782776450179145200,7.838145263671875,1.6701116561889648,-2.1436798572540283,0.06527645885944366
1782776450189124400,7.848124267578125,1.41754150390625,-1.9981729984283447,-0.10314635932445526
1782776450199134200,7.85813427734375,1.0544586181640625,-1.7392420768737793,-0.4762730598449707
1782776450209143800,7.868143798828125,0.7581729888916016,-1.5801608562469482,-0.9975082874298096
1782776450219123200,7.878123291015625,0.42353153228759766,-1.3720206022262573,-1.409838080406189
1782776450229133000,7.888133056640625,-0.01888751983642578,-1.1256155967712402,-1.5986618995666504
1782776450239142700,7.898142578125,-0.26785755157470703,-0.8288501501083374,-1.5241519212722778
1782776450249122000,7.9081220703125,-0.2736673355102539,-0.5945509672164917,-1.173646092414856
1782776450259132000,7.9181318359375,-0.1406421661376953,-0.5045173168182373,-0.47830700874328613
1782776450269141500,7.9281416015625,0.051761627197265625,-0.27271175384521484,0.28256893157958984
1782776450279151400,7.9381513671875,-0.06984615325927734,-0.068614661693573,1.0751428604125977
1782776450289130500,7.948130615234375,0.052680015563964844,0.05118095874786377,1.8051095008850098
1782776450299140000,7.95814013671875,-0.7462997436523438,0.146453857421875,2.5194544792175293
1782776450309150000,7.96814990234375,-1.2323417663574219,0.020884811878204346,2.35068416595459
1782776450319129300,7.97812939453125,-0.7081203460693359,-0.2024891972541809,1.812600016593933
1782776450329139200,7.98813916015625,0.6966876983642578,-0.40760982036590576,1.5470962524414062
1782776450339148800,7.998148681640625,2.327333450317383,-0.4543989300727844,1.3692595958709717
