time,seconds_elapsed,z,y,x
1782774779686299000,0.179298828125,-0.09972429275512695,-0.3078022003173828,-0.19020909070968628
1782774779696308700,0.189308837890625,-0.1878223419189453,-0.29231929779052734,-0.05399680137634277
1782774779706318300,0.199318359375,-0.29851746559143066,-0.28687477111816406,-0.007912933826446533
1782774779716297500,0.20929736328125,-0.3348538875579834,-0.24791908264160156,0.02088010311126709
1782774779726307300,0.219307373046875,-0.3055431842803955,-0.17717361450195312,0.11156439781188965
1782774779736317000,0.22931689453125,-0.2252962589263916,-0.17510318756103516,0.09716808795928955
1782774779746296300,0.23929638671875,-0.15592193603515625,-0.19167327880859375,0.04037958383560181
1782774779756306200,0.24930615234375,-0.11855411529541016,-0.16956710815429688,-0.0017300248146057129
1782774779766315800,0.259315673828125,-0.017295360565185547,-0.14955520629882812,0.004475831985473633
1782774779776295200,0.269295166015625,0.07095098495483398,-0.16501998901367188,-0.04888176918029785
1782774779786305000,0.279304931640625,0.12091588973999023,-0.1805105209350586,-0.0637274980545044
1782774779796314600,0.289314697265625,0.1496715545654297,-0.19376850128173828,-0.12875747680664062
1782774779806294000,0.2992939453125,0.1241922378540039,-0.20977497100830078,-0.12459737062454224
1782774779816303600,0.3093037109375,0.06949234008789062,-0.16422557830810547,0.07180148363113403
1782774779826313500,0.3193134765625,-0.06186485290527344,-0.1172027587890625,0.1326732039451599
1782774779836292900,0.32929296875,-0.2061319351196289,-0.1379222869873047,0.06242865324020386
1782774779846302500,0.339302490234375,-0.23608183860778809,-0.14889144897460938,0.07937115430831909
1782774779856312300,0.349312255859375,-0.21773648262023926,-0.1757793426513672,0.06574851274490356
1782774779866291500,0.35929150390625,-0.21527695655822754,-0.20924949645996094,-0.061935365200042725
1782774779876301300,0.36930126953125,-0.13235044479370117,-0.1417388916015625,-0.002902090549468994
1782774779886311200,0.379311279296875,-0.07862567901611328,-0.10744762420654297,0.06003814935684204
1782774779896290300,0.389290283203125,-0.07478094100952148,-0.1379251480102539,0.029049456119537354
1782774779906300200,0.399300048828125,-0.07756328582763672,-0.14951038360595703,0.04846137762069702
1782774779916310000,0.40931005859375,-0.08478498458862305,-0.07507514953613281,0.075214684009552
1782774779926289200,0.4192890625,-0.1418132781982422,-0.07270622253417969,0.011271476745605469
1782774779936298800,0.429298828125,-0.135650634765625,-0.12348365783691406,-0.013883054256439209
1782774779946308400,0.439308349609375,-0.0934443473815918,-0.147979736328125,-0.007926702499389648
1782774779956318200,0.449318115234375,-0.05656576156616211,-0.15067768096923828,0.026678144931793213
1782774779966297600,0.459297607421875,-0.09116983413696289,-0.18947887420654297,-0.043726444244384766
1782774779976307500,0.469307373046875,-0.19399118423461914,-0.1881122589111328,-0.08068835735321045
1782774779986317000,0.479317138671875,-0.22603702545166016,-0.12024402618408203,0.03728508949279785
1782774779996296400,0.48929638671875,-0.26670169830322266,-0.09100818634033203,0.09439414739608765
1782774780006306300,0.499306396484375,-0.28542494773864746,-0.0763101577758789,0.08687937259674072
1782774780016316000,0.50931591796875,-0.2216489315032959,-0.06112384796142578,0.03481101989746094
1782774780026295300,0.51929541015625,-0.10275125503540039,-0.07376289367675781,-0.042197346687316895
1782774780036305000,0.529304931640625,-0.014455556869506836,-0.08324813842773438,-0.07054299116134644
1782774780046314500,0.539314453125,0.018102645874023438,-0.09003639221191406,-0.0247153639793396
1782774780056294000,0.5492939453125,0.038635969161987305,-0.0752725601196289,-0.03614085912704468
1782774780066303700,0.5593037109375,0.13313865661621094,-0.07243537902832031,-0.04928630590438843
1782774780076313300,0.569313232421875,0.14085602760314941,-0.12448883056640625,-0.11661118268966675
1782774780086292700,0.579292724609375,0.12000441551208496,-0.20070457458496094,-0.21598070859909058
1782774780096302600,0.589302490234375,0.14505553245544434,-0.19324588775634766,-0.09805101156234741
1782774780106312200,0.599312255859375,0.11608481407165527,-0.18610668182373047,0.018383383750915527
1782774780116291300,0.609291259765625,0.03311610221862793,-0.2464733123779297,0.02457505464553833
1782774780126301200,0.61930126953125,-0.06365513801574707,-0.28562164306640625,-0.09771543741226196
1782774780136311000,0.62931103515625,-0.16224122047424316,-0.2868385314941406,-0.23320478200912476
1782774780146290200,0.639290283203125,-0.12215948104858398,-0.21133136749267578,-0.19889777898788452
1782774780156300000,0.649300048828125,-0.054117441177368164,-0.1377105712890625,-0.05132478475570679
1782774780166310000,0.659309814453125,0.08727025985717773,-0.06124591827392578,0.028625905513763428
1782774780176289000,0.6692890625,0.1129302978515625,-0.015546798706054688,0.05590617656707764
1782774780186299000,0.679298828125,0.018908262252807617,-0.08009624481201172,-0.01392596960067749
1782774780196308500,0.68930859375,-0.005232810974121094,-0.15209674835205078,-0.09502631425857544
1782774780206318300,0.699318359375,-0.06487345695495605,-0.20511627197265625,-0.0326082706451416
1782774780216297500,0.70929736328125,-0.07837057113647461,-0.1961069107055664,0.0626104474067688
1782774780226307300,0.719307373046875,-0.15323543548583984,-0.20182323455810547,0.10002779960632324
1782774780236317000,0.72931689453125,-0.25866246223449707,-0.22215747833251953,0.09439313411712646
1782774780246296300,0.73929638671875,-0.3229038715362549,-0.22841835021972656,-0.03737783432006836
1782774780256306200,0.74930615234375,-0.3539903163909912,-0.2153635025024414,-0.006284177303314209
1782774780266315800,0.759315673828125,-0.2979409694671631,-0.17525863647460938,0.05522751808166504
1782774780276295200,0.769295166015625,-0.15714311599731445,-0.1440286636352539,0.09456682205200195
1782774780286305000,0.779304931640625,-0.06992220878601074,-0.1602182388305664,0.07102644443511963
1782774780296315000,0.78931494140625,-0.04290294647216797,-0.20261287689208984,-0.026492714881896973
1782774780306294000,0.7992939453125,0.0033588409423828125,-0.21634769439697266,-0.08537846803665161
1782774780316303600,0.8093037109375,0.09076380729675293,-0.16083526611328125,-0.003125429153442383
1782774780326313500,0.8193134765625,0.08779215812683105,-0.11509037017822266,0.04478198289871216
1782774780336292600,0.829292724609375,0.022045135498046875,-0.08211517333984375,0.02770256996154785
1782774780346302500,0.839302490234375,-0.12054657936096191,-0.10998058319091797,-0.008367002010345459
1782774780356312000,0.84931201171875,-0.24728894233703613,-0.13134002685546875,-0.03222590684890747
1782774780366291500,0.85929150390625,-0.34061670303344727,-0.1574535369873047,-0.029614686965942383
1782774780376301300,0.86930126953125,-0.35355091094970703,-0.17353534698486328,-0.06056112051010132
1782774780386311000,0.879310791015625,-0.27420616149902344,-0.13405799865722656,0.004225492477416992
1782774780396290300,0.889290283203125,-0.1701810359954834,-0.09377002716064453,0.06821179389953613
1782774780406300200,0.899300048828125,-0.07725763320922852,-0.09829902648925781,0.0556221604347229
1782774780416310000,0.90931005859375,0.06449079513549805,-0.0807485580444336,0.01546013355255127
1782774780426289200,0.9192890625,0.13606882095336914,-0.0701131820678711,-0.036010146141052246
1782774780436298800,0.929298828125,0.09364867210388184,-0.07906150817871094,-0.08009392023086548
1782774780446308600,0.93930859375,0.0482792854309082,-0.1438751220703125,-0.09321951866149902
1782774780456318200,0.949318115234375,0.03771066665649414,-0.12542057037353516,-0.030179738998413086
1782774780466297600,0.959297607421875,0.06360816955566406,-0.049736976623535156,0.054290056228637695
1782774780476307500,0.969307373046875,0.0011439323425292969,-0.06514644622802734,0.05988985300064087
1782774780486317000,0.979317138671875,-0.02970743179321289,-0.1430950164794922,-0.06062382459640503
1782774780496296400,0.98929638671875,-0.046196699142456055,-0.1971883773803711,-0.07483893632888794
1782774780506306300,0.999306396484375,-0.043569326400756836,-0.2344808578491211,-0.09648090600967407
1782774780516316000,1.00931591796875,-0.15276861190795898,-0.25766468048095703,-0.09712386131286621
1782774780526295000,1.019294921875,-0.18544912338256836,-0.23524761199951172,-0.08651202917098999
1782774780536305000,1.029304931640625,-0.19502854347229004,-0.27948570251464844,-0.10236364603042603
1782774780546314500,1.039314453125,-0.17502903938293457,-0.2990713119506836,-0.06581926345825195
1782774780556294000,1.0492939453125,-0.1492595672607422,-0.2676887512207031,0.003534555435180664
1782774780566303700,1.0593037109375,-0.09806323051452637,-0.21672916412353516,-0.001577913761138916
1782774780576313300,1.069313232421875,0.038519859313964844,-0.1821746826171875,0.036430180072784424
1782774780586292700,1.079292724609375,0.2125096321105957,-0.1185150146484375,0.1680586338043213
1782774780596302600,1.089302490234375,0.24963712692260742,-0.09779739379882812,0.1275530457496643
1782774780606312400,1.0993125,0.1497511863708496,-0.13547801971435547,-0.057756125926971436
1782774780616291600,1.10929150390625,-0.02385544776916504,-0.17209815979003906,-0.1515083909034729
1782774780626301200,1.11930126953125,-0.15449810028076172,-0.19046592712402344,-0.11940550804138184
1782774780636311000,1.12931103515625,-0.2462451457977295,-0.19937896728515625,-0.028929531574249268
1782774780646290200,1.139290283203125,-0.3123464584350586,-0.2438364028930664,-0.03726106882095337
1782774780656300000,1.149300048828125,-0.313093900680542,-0.28038501739501953,-0.08613908290863037
1782774780666310000,1.159309814453125,-0.3127295970916748,-0.2756528854370117,-0.12076014280319214
1782774780676289000,1.1692890625,-0.21997785568237305,-0.2369241714477539,-0.0792384147644043
1782774780686299000,1.179298828125,-0.08472704887390137,-0.12597942352294922,0.06148850917816162
1782774780696308700,1.189308837890625,0.054956674575805664,0.0043659210205078125,0.19410693645477295
1782774780706318300,1.199318359375,0.11075425148010254,0.08442115783691406,0.22432655096054077
1782774780716297500,1.20929736328125,0.09952378273010254,0.035012245178222656,0.11273366212844849
1782774780726307300,1.219307373046875,0.10500621795654297,-0.0409393310546875,-0.06587928533554077
1782774780736317000,1.22931689453125,0.1084442138671875,-0.09082412719726562,-0.14037466049194336
1782774780746296300,1.23929638671875,0.07929229736328125,-0.14350223541259766,-0.1550910472869873
1782774780756306200,1.24930615234375,0.03689265251159668,-0.11759662628173828,-0.06760281324386597
1782774780766315800,1.259315673828125,-0.04462146759033203,-0.07311820983886719,0.04735279083251953
1782774780776295200,1.269295166015625,-0.21286249160766602,-0.09883308410644531,0.05393475294113159
1782774780786305000,1.279304931640625,-0.33429861068725586,-0.1514453887939453,0.014864146709442139
1782774780796314600,1.289314697265625,-0.38840699195861816,-0.19461441040039062,-0.045655667781829834
1782774780806294000,1.2992939453125,-0.32428479194641113,-0.22040653228759766,-0.10577845573425293
1782774780816303600,1.3093037109375,-0.09509468078613281,-0.19240665435791016,0.003962278366088867
1782774780826313500,1.3193134765625,0.08906126022338867,-0.14430522918701172,0.14146465063095093
1782774780836292900,1.32929296875,0.08437919616699219,-0.1202392578125,0.12051200866699219
1782774780846302500,1.339302490234375,-0.08563375473022461,-0.11159610748291016,0.009259581565856934
1782774780856312300,1.349312255859375,-0.25304341316223145,-0.14487552642822266,-0.10116034746170044
1782774780866291500,1.35929150390625,-0.16162419319152832,-0.13758277893066406,-0.06769824028015137
1782774780876301300,1.36930126953125,-0.07167816162109375,-0.14159202575683594,0.056521058082580566
1782774780886311200,1.379311279296875,-0.1861112117767334,-0.13561153411865234,-0.03265470266342163
1782774780896290300,1.389290283203125,-0.21557044982910156,-0.07750415802001953,0.0054084062576293945
1782774780906300200,1.399300048828125,-0.18753814697265625,-0.09119796752929688,0.04549562931060791
1782774780916310000,1.40931005859375,-0.1080939769744873,-0.1211080551147461,0.044943153858184814
1782774780926289200,1.4192890625,-0.0068511962890625,-0.10230636596679688,0.004793345928192139
1782774780936298800,1.429298828125,0.09694385528564453,-0.1545248031616211,-0.1317397952079773
1782774780946308400,1.439308349609375,0.13886094093322754,-0.2715778350830078,-0.21768569946289062
1782774780956318200,1.449318115234375,0.15100502967834473,-0.2694377899169922,-0.16551703214645386
1782774780966297600,1.459297607421875,0.14800262451171875,-0.18883132934570312,-0.0025229454040527344
1782774780976307500,1.469307373046875,0.07014846801757812,-0.11127471923828125,0.0946887731552124
1782774780986317000,1.479317138671875,-0.07089519500732422,-0.17326927185058594,-0.0014426708221435547
1782774780996296400,1.48929638671875,-0.0877845287322998,-0.25919437408447266,-0.17269086837768555
1782774781006306300,1.499306396484375,-0.02922368049621582,-0.18900203704833984,0.015337109565734863
1782774781016316000,1.50931591796875,-0.20173048973083496,-0.20064735412597656,-0.07987916469573975
1782774781026295300,1.51929541015625,-0.1730945110321045,-0.2529735565185547,-0.053342580795288086
1782774781036305000,1.529304931640625,-0.31827831268310547,-0.2615375518798828,-0.024850070476531982
1782774781046314500,1.539314453125,-0.26441097259521484,-0.1735067367553711,-0.01006317138671875
1782774781056294000,1.5492939453125,-0.1886298656463623,-0.19224166870117188,0.061129748821258545
1782774781066303700,1.5593037109375,-0.12071347236633301,-0.19387245178222656,0.17488312721252441
1782774781076313300,1.569313232421875,-0.05559897422790527,-0.17854690551757812,0.15673410892486572
1782774781086292700,1.579292724609375,-0.007828950881958008,-0.2181243896484375,0.04138076305389404
1782774781096302600,1.589302490234375,0.03258919715881348,-0.26732826232910156,-0.053518593311309814
1782774781106312200,1.599312255859375,0.061493635177612305,-0.2879981994628906,-0.10530608892440796
1782774781116291300,1.609291259765625,0.026719093322753906,-0.2946615219116211,-0.12659907341003418
1782774781126301200,1.61930126953125,0.007825613021850586,-0.23961639404296875,0.008894085884094238
1782774781136310800,1.629310791015625,-0.06223893165588379,-0.16110897064208984,0.12586098909378052
1782774781146290200,1.639290283203125,-0.19321250915527344,-0.16691017150878906,0.17028027772903442
1782774781156300000,1.649300048828125,-0.2762176990509033,-0.15122032165527344,0.157476544380188
1782774781166310000,1.659309814453125,-0.3361387252807617,-0.12802886962890625,0.10693013668060303
1782774781176289000,1.6692890625,-0.34012722969055176,-0.20244979858398438,-0.04301035404205322
1782774781186299000,1.679298828125,-0.29105210304260254,-0.29766845703125,-0.23487728834152222
1782774781196308500,1.68930859375,-0.13167452812194824,-0.27945709228515625,-0.30880260467529297
1782774781206318300,1.699318359375,0.11620545387268066,-0.14275550842285156,-0.16593146324157715
1782774781216297500,1.70929736328125,0.36008524894714355,-0.038700103759765625,-0.012821614742279053
1782774781226307300,1.719307373046875,0.4344651699066162,0.02929973602294922,0.06298822164535522
1782774781236317000,1.72931689453125,0.35513949394226074,0.029417037963867188,0.07915383577346802
1782774781246296300,1.73929638671875,0.21654391288757324,0.0018033981323242188,0.007753491401672363
1782774781256306200,1.74930615234375,0.09993243217468262,-0.01275634765625,0.06885093450546265
1782774781266315800,1.759315673828125,-0.06468057632446289,-0.00917816162109375,0.07032912969589233
1782774781276295200,1.769295166015625,-0.2701413631439209,-0.04016399383544922,-0.04475682973861694
1782774781286305000,1.779304931640625,-0.3645792007446289,-0.09078121185302734,-0.11580651998519897
1782774781296314600,1.789314697265625,-0.3904261589050293,-0.19613170623779297,-0.1290004849433899
1782774781306294000,1.7992939453125,-0.32956981658935547,-0.20494651794433594,-0.17282283306121826
1782774781316304000,1.809303955078125,-0.2848687171936035,-0.1603069305419922,-0.07065612077713013
1782774781326313500,1.8193134765625,-0.22645282745361328,-0.1248321533203125,0.058892786502838135
1782774781336292600,1.829292724609375,-0.1701526641845703,-0.039035797119140625,0.19872593879699707
1782774781346302500,1.839302490234375,-0.14721345901489258,-0.05863380432128906,0.13964509963989258
1782774781356312000,1.84931201171875,-0.17759943008422852,-0.13323402404785156,-0.02732902765274048
1782774781366291500,1.85929150390625,-0.14912128448486328,-0.22190380096435547,-0.1689831018447876
1782774781376301300,1.86930126953125,-0.05717921257019043,-0.24782943725585938,-0.24823695421218872
1782774781386311000,1.879310791015625,0.08448266983032227,-0.26863861083984375,-0.2134460210800171
1782774781396290300,1.889290283203125,0.16615033149719238,-0.2797222137451172,-0.15324300527572632
1782774781406300200,1.899300048828125,0.14048194885253906,-0.21910572052001953,-0.09114903211593628
1782774781416310000,1.90931005859375,0.06821942329406738,-0.18297386169433594,-0.04837942123413086
1782774781426289200,1.9192890625,-0.054979562759399414,-0.16668319702148438,0.041642069816589355
1782774781436298800,1.929298828125,-0.18419122695922852,-0.13889122009277344,0.1049494743347168
1782774781446308600,1.93930859375,-0.28712940216064453,-0.13744640350341797,0.0154227614402771
1782774781456318200,1.949318115234375,-0.33594393730163574,-0.21233177185058594,-0.15184170007705688
1782774781466297600,1.959297607421875,-0.27187323570251465,-0.2265462875366211,-0.16521000862121582
1782774781476307500,1.969307373046875,-0.12392044067382812,-0.1870746612548828,-0.1691564917564392
1782774781486317000,1.979317138671875,-0.0015947818756103516,-0.20668888092041016,-0.13040071725845337
1782774781496296400,1.98929638671875,0.2155001163482666,-0.14197063446044922,-0.02805382013320923
1782774781506306300,1.999306396484375,0.27995991706848145,-0.07743167877197266,0.04718738794326782
1782774781516316000,2.00931591796875,0.24062514305114746,-0.04950714111328125,0.017409801483154297
1782774781526295000,2.019294921875,0.12637042999267578,-0.06552696228027344,-0.05191218852996826
1782774781536305000,2.029304931640625,0.004209756851196289,-0.10388374328613281,-0.13252747058868408
1782774781546314500,2.039314453125,-0.06653666496276855,-0.15234375,-0.19130098819732666
1782774781556294000,2.0492939453125,-0.0723421573638916,-0.1769542694091797,-0.12831813097000122
1782774781566303700,2.0593037109375,-0.1472630500793457,-0.16568946838378906,-0.059204936027526855
1782774781576313300,2.069313232421875,-0.20491957664489746,-0.1521930694580078,0.011730611324310303
1782774781586292700,2.079292724609375,-0.20273494720458984,-0.0787973403930664,0.10623043775558472
1782774781596302600,2.089302490234375,-0.23187780380249023,-0.043631553649902344,0.12901413440704346
1782774781606312400,2.0993125,-0.25374269485473633,0.0010309219360351562,0.1354408860206604
1782774781616291600,2.10929150390625,-0.2666788101196289,0.03297233581542969,0.1370455026626587
1782774781626301200,2.11930126953125,-0.2191476821899414,0.032057762145996094,0.1014363169670105
1782774781636311000,2.12931103515625,-0.1728379726409912,0.029203414916992188,0.07619839906692505
1782774781646290200,2.139290283203125,-0.12061500549316406,-0.009136199951171875,-0.010045886039733887
1782774781656300000,2.149300048828125,-0.007451057434082031,-0.09010505676269531,-0.04735523462295532
1782774781666310000,2.159309814453125,0.040489912033081055,-0.19239521026611328,-0.043728530406951904
1782774781676289000,2.1692890625,-0.002357006072998047,-0.23492717742919922,-0.15003752708435059
1782774781686299000,2.179298828125,-0.06346797943115234,-0.2826213836669922,-0.18462210893630981
1782774781696308700,2.189308837890625,-0.03757143020629883,-0.2515754699707031,-0.059674978256225586
1782774781706318300,2.199318359375,-0.011187076568603516,-0.2038440704345703,0.0470426082611084
1782774781716297500,2.20929736328125,-0.09421920776367188,-0.20426177978515625,0.01922786235809326
1782774781726307300,2.219307373046875,-0.1598515510559082,-0.19545364379882812,-0.10118067264556885
1782774781736317000,2.22931689453125,-0.11564517021179199,-0.20815658569335938,-0.1990780234336853
1782774781746296300,2.23929638671875,0.05647563934326172,-0.15085220336914062,-0.1602722406387329
1782774781756306200,2.24930615234375,0.2317662239074707,-0.05210685729980469,-0.009373962879180908
1782774781766315800,2.259315673828125,0.3204765319824219,0.010987281799316406,0.09026682376861572
1782774781776295200,2.269295166015625,0.35601019859313965,0.032558441162109375,0.12771016359329224
1782774781786305000,2.279304931640625,0.23020529747009277,-0.013615608215332031,0.08691823482513428
1782774781796314600,2.289314697265625,0.034494638442993164,-0.14456462860107422,-0.06006002426147461
1782774781806294000,2.2992939453125,-0.14517641067504883,-0.23803138732910156,-0.20828139781951904
1782774781816303900,2.309303955078125,-0.2948880195617676,-0.2673072814941406,-0.13701903820037842
1782774781826313500,2.3193134765625,-0.4295947551727295,-0.2583656311035156,-0.015066325664520264
1782774781836292900,2.32929296875,-0.4785323143005371,-0.2706575393676758,0.08394593000411987
1782774781846302500,2.339302490234375,-0.45210814476013184,-0.27035045623779297,0.1509111523628235
1782774781856312300,2.349312255859375,-0.4105706214904785,-0.3004608154296875,0.10058146715164185
1782774781866291500,2.35929150390625,-0.2941782474517822,-0.27478981018066406,0.050672054290771484
1782774781876301300,2.36930126953125,-0.1603844165802002,-0.2651205062866211,0.03183966875076294
1782774781886311200,2.379311279296875,0.0009226799011230469,-0.2190074920654297,0.055972933769226074
1782774781896290300,2.389290283203125,0.09261536598205566,-0.2063131332397461,0.029619932174682617
1782774781906300200,2.399300048828125,0.12812256813049316,-0.1271343231201172,0.012911796569824219
1782774781916310000,2.40931005859375,0.0907745361328125,-0.0820474624633789,0.04155832529067993
1782774781926289200,2.4192890625,0.0016973018646240234,-0.04216480255126953,0.03678691387176514
1782774781936298800,2.429298828125,-0.06525039672851562,-0.009764671325683594,0.051744043827056885
1782774781946308400,2.439308349609375,-0.11313581466674805,0.020261764526367188,0.08128935098648071
1782774781956318200,2.449318115234375,-0.15392732620239258,0.012003898620605469,0.12536853551864624
1782774781966297600,2.459297607421875,-0.16647124290466309,0.025484085083007812,0.14329689741134644
1782774781976307500,2.469307373046875,-0.13016343116760254,-0.013141632080078125,0.10426557064056396
1782774781986317000,2.479317138671875,-0.07645344734191895,-0.11099052429199219,-0.0029039382934570312
1782774781996296400,2.48929638671875,-0.014436483383178711,-0.17725181579589844,-0.06368571519851685
1782774782006306300,2.499306396484375,0.07814812660217285,-0.2313213348388672,-0.07871609926223755
1782774782016316000,2.50931591796875,0.12970447540283203,-0.2732553482055664,-0.08204597234725952
1782774782026295300,2.51929541015625,0.17652344703674316,-0.2936515808105469,-0.08547884225845337
1782774782036305000,2.529304931640625,0.10411548614501953,-0.3022346496582031,-0.06786531209945679
1782774782046314500,2.539314453125,0.02342844009399414,-0.3688011169433594,-0.07221150398254395
1782774782056294000,2.5492939453125,-0.08641195297241211,-0.4169607162475586,-0.0034645795822143555
1782774782066303700,2.5593037109375,-0.18265843391418457,-0.3867158889770508,0.03071838617324829
1782774782076313300,2.569313232421875,-0.2590658664703369,-0.3639068603515625,0.03569573163986206
1782774782086292700,2.579292724609375,-0.26161909103393555,-0.3217763900756836,0.07167482376098633
1782774782096302600,2.589302490234375,-0.24355149269104004,-0.2815999984741211,0.07844263315200806
1782774782106312200,2.599312255859375,-0.15235304832458496,-0.25292301177978516,0.03728628158569336
1782774782116291300,2.609291259765625,-0.09612846374511719,-0.25237369537353516,-0.0012476444244384766
1782774782126301200,2.61930126953125,-0.03884410858154297,-0.24412059783935547,-0.08467352390289307
1782774782136310800,2.629310791015625,-0.03942275047302246,-0.22852420806884766,-0.1080847978591919
1782774782146290200,2.639290283203125,-0.07059955596923828,-0.27771759033203125,-0.1348230242729187
1782774782156300000,2.649300048828125,-0.03406953811645508,-0.25049400329589844,-0.09791290760040283
1782774782166310000,2.659309814453125,-0.026033639907836914,-0.21609020233154297,0.016881227493286133
1782774782176289000,2.6692890625,-0.0036513805389404297,-0.069091796875,0.1405666470527649
1782774782186299000,2.679298828125,0.002392292022705078,0.022703170776367188,0.21590328216552734
1782774782196308500,2.68930859375,0.006428956985473633,-0.04371833801269531,0.17909151315689087
1782774782206318300,2.699318359375,-0.020853042602539062,-0.10071754455566406,0.02764594554901123
1782774782216297700,2.709297607421875,0.03958272933959961,-0.11439895629882812,-0.12208938598632812
1782774782226307300,2.719307373046875,-0.003168821334838867,-0.22137832641601562,-0.17337137460708618
1782774782236317000,2.72931689453125,-0.026398658752441406,-0.2734041213989258,-0.21556192636489868
1782774782246296300,2.73929638671875,-0.09654116630554199,-0.3042135238647461,-0.2108689546585083
1782774782256306200,2.74930615234375,-0.15130233764648438,-0.24196434020996094,-0.15251415967941284
1782774782266315800,2.759315673828125,-0.12180685997009277,-0.09834575653076172,0.023716211318969727
1782774782276295200,2.769295166015625,-0.06166481971740723,0.03841686248779297,0.2225736379623413
1782774782286305000,2.779304931640625,-0.052545785903930664,0.08926010131835938,0.2974972128868103
1782774782296314600,2.789314697265625,-0.06820535659790039,0.0732564926147461,0.1588255763053894
1782774782306294000,2.7992939453125,-0.005960226058959961,-0.057417869567871094,-0.03714972734451294
1782774782316304000,2.809303955078125,0.0430757999420166,-0.17810916900634766,-0.13834881782531738
1782774782326313500,2.8193134765625,0.06555032730102539,-0.23885440826416016,-0.2178877592086792
1782774782336292600,2.829292724609375,0.06943893432617188,-0.27825260162353516,-0.15903455018997192
1782774782346302500,2.839302490234375,0.06472229957580566,-0.22458648681640625,-0.04398411512374878
1782774782356312000,2.84931201171875,0.023577213287353516,-0.17161941528320312,0.12728124856948853
1782774782366291500,2.85929150390625,-0.056488990783691406,-0.11456871032714844,0.2139795422554016
1782774782376301300,2.86930126953125,-0.20689630508422852,-0.12764358520507812,0.10013359785079956
1782774782386311000,2.879310791015625,-0.35889410972595215,-0.16750431060791016,-0.03892308473587036
1782774782396290300,2.889290283203125,-0.36311912536621094,-0.19994258880615234,-0.11757850646972656
1782774782406300200,2.899300048828125,-0.33806514739990234,-0.22194862365722656,-0.1225925087928772
1782774782416310000,2.90931005859375,-0.1646440029144287,-0.2428455352783203,-0.10893940925598145
1782774782426289200,2.9192890625,0.035053253173828125,-0.2051534652709961,-0.03376561403274536
1782774782436298800,2.929298828125,0.12359333038330078,-0.20766639709472656,0.021690011024475098
1782774782446308600,2.93930859375,0.08882546424865723,-0.1340646743774414,0.012380480766296387
1782774782456318200,2.949318115234375,0.02025890350341797,-0.10927581787109375,0.029532313346862793
1782774782466297600,2.959297607421875,-0.09897875785827637,-0.06860160827636719,0.03955620527267456
1782774782476307500,2.969307373046875,-0.25759243965148926,-0.047687530517578125,-0.03150075674057007
1782774782486317000,2.979317138671875,-0.2555105686187744,-0.0724191665649414,-0.1141398549079895
1782774782496296400,2.98929638671875,-0.18522357940673828,-0.1038198471069336,-0.08403253555297852
1782774782506306300,2.999306396484375,-0.04303789138793945,-0.0647745132446289,-0.06360870599746704
1782774782516316000,3.00931591796875,0.10374975204467773,-0.04137420654296875,-0.02872335910797119
1782774782526295000,3.019294921875,0.18718409538269043,-0.08696460723876953,-0.06281536817550659
1782774782536305000,3.029304931640625,0.20437026023864746,-0.14011192321777344,-0.09176903963088989
1782774782546314500,3.039314453125,0.14008235931396484,-0.06972980499267578,0.01053011417388916
1782774782556294000,3.0492939453125,0.04506659507751465,-0.026823043823242188,0.04732388257980347
1782774782566303700,3.0593037109375,-0.06720590591430664,-0.06615829467773438,0.04834914207458496
1782774782576313300,3.069313232421875,-0.18581914901733398,-0.06758499145507812,-0.04842764139175415
1782774782586292700,3.079292724609375,-0.31632328033447266,-0.12180805206298828,-0.13224971294403076
1782774782596302600,3.089302490234375,-0.32061171531677246,-0.19015121459960938,-0.1341264843940735
1782774782606312400,3.0993125,-0.2597692012786865,-0.17386341094970703,-0.042678773403167725
1782774782616291600,3.10929150390625,-0.16802501678466797,-0.12530803680419922,0.024754643440246582
1782774782626301200,3.11930126953125,-0.12206315994262695,-0.10676765441894531,0.054513514041900635
1782774782636311000,3.12931103515625,-0.11533355712890625,-0.11904144287109375,-0.005680263042449951
1782774782646290200,3.139290283203125,-0.07084512710571289,-0.13109874725341797,-0.0751599669456482
1782774782656300000,3.149300048828125,-0.08347439765930176,-0.16724205017089844,-0.14942902326583862
1782774782666310000,3.159309814453125,0.0809319019317627,-0.2631397247314453,-0.12834948301315308
1782774782676289000,3.1692890625,0.1685171127319336,-0.2487354278564453,-0.0338405966758728
1782774782686299000,3.179298828125,0.2017498016357422,-0.12451553344726562,-0.04218435287475586
1782774782696308700,3.189308837890625,0.203521728515625,-0.08980274200439453,-0.02636575698852539
1782774782706318300,3.199318359375,0.11557912826538086,-0.11644649505615234,0.06966209411621094
1782774782716297500,3.20929736328125,-0.04968881607055664,-0.11124420166015625,0.06624341011047363
1782774782726307300,3.219307373046875,-0.21026396751403809,-0.04240226745605469,0.06043499708175659
1782774782736317000,3.22931689453125,-0.3060445785522461,-0.07182693481445312,0.021579384803771973
1782774782746296300,3.23929638671875,-0.36725473403930664,-0.16775131225585938,-0.009495079517364502
1782774782756306200,3.24930615234375,-0.3321082592010498,-0.24856281280517578,-0.09512287378311157
1782774782766315800,3.259315673828125,-0.2535386085510254,-0.33567047119140625,-0.1375119686126709
1782774782776295200,3.269295166015625,-0.13386297225952148,-0.2782154083251953,-0.024769246578216553
1782774782786305000,3.279304931640625,-0.00583648681640625,-0.1746826171875,0.032324373722076416
1782774782796314600,3.289314697265625,0.10506296157836914,-0.16434860229492188,0.05813097953796387
1782774782806294000,3.2992939453125,0.12778329849243164,-0.1565999984741211,0.029035568237304688
1782774782816303900,3.309303955078125,0.06278634071350098,-0.1516885757446289,-0.03524065017700195
1782774782826313500,3.3193134765625,0.04665207862854004,-0.20234298706054688,-0.10116827487945557
1782774782836292900,3.32929296875,0.054862022399902344,-0.2555818557739258,-0.15014266967773438
1782774782846302500,3.339302490234375,0.0487215518951416,-0.2393484115600586,-0.05119067430496216
1782774782856312300,3.349312255859375,0.011824607849121094,-0.2280101776123047,-0.04859262704849243
1782774782866291500,3.35929150390625,-0.007708311080932617,-0.1834259033203125,0.0043860673904418945
1782774782876301300,3.36930126953125,-0.07435464859008789,-0.19658565521240234,0.09510225057601929
1782774782886311200,3.379311279296875,-0.17611074447631836,-0.16939926147460938,0.07818275690078735
1782774782896290300,3.389290283203125,-0.2703213691711426,-0.17355060577392578,0.025967836380004883
1782774782906300200,3.399300048828125,-0.36232566833496094,-0.23508739471435547,-0.04293006658554077
1782774782916310000,3.40931005859375,-0.3045675754547119,-0.23151493072509766,-0.04238247871398926
1782774782926289200,3.4192890625,-0.17730355262756348,-0.1838054656982422,0.020013034343719482
1782774782936298800,3.429298828125,-0.05482339859008789,-0.2164783477783203,-0.04192084074020386
1782774782946308400,3.439308349609375,0.09700584411621094,-0.20291519165039062,0.0017687678337097168
1782774782956318200,3.449318115234375,0.24303174018859863,-0.1194610595703125,0.1051148772239685
1782774782966297600,3.459297607421875,0.29829931259155273,-0.09114360809326172,0.12443500757217407
1782774782976247800,3.469247802734375,0.26879262924194336,-0.03952217102050781,0.10805970430374146
1782774782986378200,3.479378173828125,0.08408021926879883,-0.013106346130371094,0.09932851791381836
1782774782997341400,3.490341552734375,-0.1571657657623291,0.016559600830078125,-0.00415414571762085
1782774783016316000,3.50931591796875,-0.26523733139038086,-0.11151599884033203,-0.05014461278915405
1782774783026295000,3.519294921875,-0.13825035095214844,-0.14543819427490234,-0.10114318132400513
1782774783036245200,3.529245361328125,0.05756402015686035,-0.20439720153808594,0.0370597243309021
1782774783046375700,3.539375732421875,0.16989493370056152,-0.16422176361083984,0.10267990827560425
1782774783056294000,3.5492939453125,0.14141392707824707,-0.18174362182617188,0.10181015729904175
1782774783066303700,3.5593037109375,0.12126946449279785,-0.1973886489868164,0.05566436052322388
1782774783076313300,3.569313232421875,-0.009527444839477539,-0.19951534271240234,0.04816484451293945
1782774783086292700,3.579292724609375,-0.18377232551574707,-0.29594898223876953,-0.12157481908798218
1782774783096302600,3.589302490234375,-0.36429595947265625,-0.39521217346191406,-0.21420854330062866
1782774783106312400,3.5993125,-0.36358022689819336,-0.3168458938598633,-0.19838321208953857
1782774783116291300,3.609291259765625,-0.3274376392364502,-0.23329925537109375,-0.07212066650390625
1782774783126301200,3.61930126953125,-0.18238377571105957,-0.23763751983642578,0.07373017072677612
1782774783136311000,3.62931103515625,-0.07021880149841309,-0.2555427551269531,0.10192912817001343
1782774783146290200,3.639290283203125,0.06702494621276855,-0.22509765625,0.028167545795440674
1782774783156300000,3.649300048828125,0.14731788635253906,-0.2068490982055664,0.028657197952270508
1782774783166310000,3.659309814453125,0.09364962577819824,-0.2255382537841797,0.004368185997009277
1782774783176289000,3.6692890625,-0.01931929588317871,-0.2167377471923828,-0.008516490459442139
1782774783186299000,3.679298828125,-0.14723968505859375,-0.14883708953857422,-0.0265885591506958
1782774783196308700,3.689308837890625,-0.24174237251281738,-0.16709518432617188,-0.044506192207336426
1782774783206258700,3.6992587890625,-0.22061944007873535,-0.15351390838623047,-0.016673505306243896
1782774783216389000,3.70938916015625,-0.19935297966003418,-0.15332317352294922,-0.058159589767456055
1782774783226247700,3.71924755859375,-0.13186073303222656,-0.15001869201660156,0.005733907222747803
1782774783236318500,3.729318359375,-0.01984882354736328,-0.08635997772216797,0.11184728145599365
1782774783246388000,3.739387939453125,0.11829042434692383,-0.05368232727050781,0.17667537927627563
1782774783256306200,3.74930615234375,0.13663864135742188,-0.049706459045410156,0.18894612789154053
1782774783266315800,3.759315673828125,0.031192302703857422,-0.11080455780029297,0.02784132957458496
1782774783276235500,3.769235595703125,-0.11373090744018555,-0.16059303283691406,-0.10068362951278687
1782774783286366000,3.779365966796875,-0.12141966819763184,-0.2562589645385742,-0.19983899593353271
1782774783296314600,3.789314697265625,-0.12189221382141113,-0.28962135314941406,-0.17053759098052979
1782774783306294000,3.7992939453125,-0.10579991340637207,-0.27971649169921875,-0.11827754974365234
1782774783316304000,3.809303955078125,-0.04890751838684082,-0.1476449966430664,-0.028913795948028564
1782774783326313500,3.8193134765625,-0.022705554962158203,-0.034844398498535156,0.17928749322891235
1782774783336233000,3.82923291015625,-0.04127383232116699,0.04421234130859375,0.27156001329421997
1782774783346273300,3.839273193359375,-0.11881446838378906,0.053409576416015625,0.18952494859695435
1782774783357346600,3.8503466796875,-0.21769165992736816,-0.03342628479003906,-0.01980757713317871
1782774783376301300,3.86930126953125,-0.09383988380432129,-0.15781402587890625,-0.1662721037864685
1782774783386311200,3.879311279296875,-0.024085283279418945,-0.2287750244140625,-0.1609935760498047
1782774783396290300,3.889290283203125,0.021929264068603516,-0.20635318756103516,-0.008401870727539062
1782774783406300200,3.899300048828125,-0.014868974685668945,-0.15791988372802734,0.1286228895187378
1782774783416310000,3.90931005859375,-0.04806661605834961,-0.13151931762695312,0.24359506368637085
1782774783426289200,3.9192890625,-0.1714003086090088,-0.1222543716430664,0.20062494277954102
1782774783436298800,3.929298828125,-0.28212857246398926,-0.17322444915771484,0.06305700540542603
1782774783446308600,3.93930859375,-0.31362342834472656,-0.200439453125,-0.008845925331115723
1782774783456318200,3.949318115234375,-0.23392510414123535,-0.2055521011352539,-0.04212379455566406
1782774783466297600,3.959297607421875,-0.0915842056274414,-0.20018482208251953,-0.05894595384597778
1782774783476247800,3.969247802734375,0.08683347702026367,-0.1722087860107422,-0.012038767337799072
1782774783486378200,3.979378173828125,0.20043468475341797,-0.13933086395263672,0.020088672637939453
1782774783496296400,3.98929638671875,0.20962953567504883,-0.12599563598632812,-0.017472803592681885
1782774783506306300,3.999306396484375,0.19620537757873535,-0.11323070526123047,0.02627187967300415
1782774783516256300,4.00925634765625,0.11252379417419434,-0.06758499145507812,0.08621376752853394
1782774783526386700,4.01938671875,-0.04583740234375,-0.06588554382324219,0.062346577644348145
1782774783536305000,4.029304931640625,-0.20783114433288574,-0.13413715362548828,0.05060851573944092
1782774783546314500,4.039314453125,-0.3074631690979004,-0.1593456268310547,0.048492252826690674
1782774783557355000,4.05035498046875,-0.2881491184234619,-0.16027164459228516,0.05349820852279663
1782774783576313300,4.069313232421875,-0.19312262535095215,-0.2012643814086914,0.01040661334991455
1782774783586292700,4.079292724609375,-0.21764802932739258,-0.21519756317138672,-0.12082386016845703
1782774783596302600,4.089302490234375,-0.10248494148254395,-0.21652984619140625,-0.14605635404586792
1782774783606312400,4.0993125,0.07713031768798828,-0.19754409790039062,-0.05670201778411865
1782774783616291600,4.10929150390625,0.2458035945892334,-0.1587820053100586,-0.03699600696563721
1782774783626301200,4.11930126953125,0.32683587074279785,-0.09405994415283203,0.03979790210723877
1782774783636311000,4.12931103515625,0.25741028785705566,-0.07122325897216797,0.030057132244110107
1782774783646230500,4.13923046875,0.06459665298461914,-0.11698722839355469,-0.03457534313201904
1782774783656301300,4.14930126953125,-0.1753218173980713,-0.18334007263183594,-0.12750381231307983
1782774783666370800,4.159370849609375,-0.29917168617248535,-0.2118844985961914,-0.1917237639427185
1782774783676289000,4.1692890625,-0.2872352600097656,-0.13228416442871094,-0.02480947971343994
1782774783686299000,4.179298828125,-0.15741610527038574,-0.046967506408691406,0.21022546291351318
1782774783696308700,4.189308837890625,-0.17560815811157227,-0.02064800262451172,0.2561836838722229
1782774783706318300,4.199318359375,-0.09525203704833984,-0.005619049072265625,0.09597659111022949
1782774783716297500,4.20929736328125,-0.019448280334472656,-0.08324050903320312,-0.08099007606506348
1782774783726307300,4.219307373046875,0.03572440147399902,-0.14356136322021484,-0.18018406629562378
1782774783736317200,4.229317138671875,0.12196087837219238,-0.17751693725585938,-0.18600958585739136
1782774783746296300,4.23929638671875,0.20636820793151855,-0.21881484985351562,-0.10654348134994507
1782774783756306200,4.24930615234375,0.09839820861816406,-0.22240829467773438,-0.11891555786132812
1782774783766315800,4.259315673828125,-0.007333040237426758,-0.2509450912475586,-0.20774292945861816
1782774783776295200,4.269295166015625,-0.06358504295349121,-0.22026538848876953,-0.08417689800262451
1782774783786305000,4.279304931640625,-0.078277587890625,-0.1084146499633789,0.13599157333374023
1782774783796314600,4.289314697265625,-0.16136574745178223,-0.10466480255126953,0.10379570722579956
1782774783806294000,4.2992939453125,-0.17882657051086426,-0.08703231811523438,0.12482857704162598
1782774783816303900,4.309303955078125,-0.23651623725891113,-0.08159542083740234,0.09335935115814209
1782774783826313500,4.3193134765625,-0.24884891510009766,-0.040251731872558594,0.005184471607208252
1782774783836292900,4.32929296875,-0.2399001121520996,-0.013241767883300781,-0.03660482168197632
1782774783846302500,4.339302490234375,-0.1986234188079834,-0.009684562683105469,-0.05648016929626465
1782774783856312300,4.349312255859375,-0.07089018821716309,-0.05549335479736328,-0.03543972969055176
1782774783866291500,4.35929150390625,0.03516411781311035,-0.07149791717529297,-0.061953604221343994
1782774783876301300,4.36930126953125,0.16342496871948242,-0.03174114227294922,0.01994645595550537
1782774783886311200,4.379311279296875,0.193436861038208,-0.020677566528320312,0.07793694734573364
1782774783896290300,4.389290283203125,0.07594490051269531,-0.09966659545898438,0.054598450660705566
1782774783906300200,4.399300048828125,-0.09595561027526855,-0.12731456756591797,0.03597384691238403
1782774783916250000,4.40925,-0.20086359977722168,-0.06738662719726562,0.12251055240631104
1782774783926380800,4.419380859375,-0.3479173183441162,-0.08446884155273438,0.07001376152038574
1782774783936298800,4.429298828125,-0.46848464012145996,-0.2046833038330078,-0.09133023023605347
1782774783946249000,4.4392490234375,-0.3662841320037842,-0.2449932098388672,-0.1582205891609192
1782774783956441600,4.449441650390625,-0.1906719207763672,-0.24077701568603516,-0.1512243151664734
1782774783966323700,4.45932373046875,0.021132230758666992,-0.23314666748046875,-0.05429565906524658
1782774783976338000,4.469337890625,0.11341094970703125,-0.19432735443115234,0.057856857776641846
1782774783986257400,4.47925732421875,0.1068735122680664,-0.17060184478759766,0.06436383724212646
1782774783997247000,4.4902470703125,-0.02465343475341797,-0.19324779510498047,-0.08421891927719116
1782774784016316000,4.50931591796875,-0.1728227138519287,-0.25405025482177734,-0.21960246562957764
1782774784026295000,4.519294921875,-0.14653587341308594,-0.2431192398071289,-0.20737683773040771
1782774784036245200,4.529245361328125,0.04039788246154785,-0.21206378936767578,-0.07344388961791992
1782774784046375700,4.539375732421875,0.18431329727172852,-0.17035484313964844,0.06454581022262573
1782774784056234200,4.549234130859375,0.19814634323120117,-0.14748573303222656,0.025708794593811035
1782774784066323700,4.55932373046875,0.08664751052856445,-0.17563533782958984,-0.0292128324508667
1782774784077316400,4.57031640625,-0.022817611694335938,-0.19988727569580078,-0.07689648866653442
1782774784096333000,4.5893330078125,-0.11362409591674805,-0.1804637908935547,-0.0460972785949707
1782774784106312200,4.599312255859375,-0.12092018127441406,-0.19575119018554688,-0.03243762254714966
1782774784116291300,4.609291259765625,-0.1551661491394043,-0.19164276123046875,-0.09754061698913574
1782774784126301200,4.61930126953125,-0.06824874877929688,-0.14884662628173828,-0.03303074836730957
1782774784136311000,4.62931103515625,0.05831503868103027,-0.024135589599609375,0.13381457328796387
1782774784146290200,4.639290283203125,0.12208867073059082,-0.05002403259277344,0.05645036697387695
1782774784156300000,4.649300048828125,0.10939621925354004,-0.06411170959472656,0.016121983528137207
1782774784166310000,4.659309814453125,0.06812596321105957,-0.06159210205078125,-0.03765857219696045
1782774784176289000,4.6692890625,0.006254673004150391,-0.09063148498535156,-0.08401906490325928
1782774784186269700,4.679269775390625,-0.11836814880371094,-0.15153884887695312,-0.07852363586425781
1782774784197224000,4.690223876953125,-0.17936444282531738,-0.15070247650146484,0.02181142568588257
1782774784216297500,4.70929736328125,-0.23279190063476562,-0.15331554412841797,-0.015858173370361328
1782774784226307300,4.719307373046875,-0.1292424201965332,-0.18471145629882812,0.012993216514587402
1782774784236257300,4.72925732421875,0.00086212158203125,-0.1816701889038086,0.0061969757080078125
1782774784246388000,4.739387939453125,0.14188528060913086,-0.12312126159667969,0.1192130446434021
1782774784256306200,4.74930615234375,0.14452290534973145,-0.050354957580566406,0.16939425468444824
1782774784266315800,4.759315673828125,-0.037400245666503906,-0.09346294403076172,0.07359421253204346
1782774784276235500,4.769235595703125,-0.17562317848205566,-0.12118053436279297,0.036024510860443115
1782774784286306300,4.779306396484375,-0.2578160762786865,-0.10859870910644531,0.05336260795593262
1782774784296375800,4.789375732421875,-0.26831769943237305,-0.1989269256591797,-0.02004939317703247
1782774784306294000,4.7992939453125,-0.21766400337219238,-0.2577171325683594,-0.08326160907745361
1782774784316304000,4.809303955078125,-0.13792204856872559,-0.2653379440307617,-0.0604134202003479
1782774784326313500,4.8193134765625,-0.13953399658203125,-0.2489919662475586,-0.09313637018203735
1782774784336292600,4.829292724609375,-0.16445398330688477,-0.2712125778198242,-0.15948504209518433
1782774784346302500,4.839302490234375,-0.15565061569213867,-0.2049112319946289,-0.12556755542755127
1782774784356252400,4.84925244140625,-0.15653109550476074,-0.13852882385253906,-0.08240503072738647
1782774784366323500,4.859323486328125,-0.12636637687683105,-0.1056060791015625,-0.06106632947921753
1782774784376362200,4.8693623046875,-0.07957577705383301,-0.051082611083984375,0.010571062564849854
1782774784386251500,4.87925146484375,-0.05191159248352051,-0.027724266052246094,0.03943490982055664
1782774784397116700,4.89011669921875,-0.04389810562133789,0.0173187255859375,0.09785854816436768
1782774784416371000,4.909370849609375,0.010634899139404297,-0.05242347717285156,-0.004097640514373779
1782774784426289200,4.9192890625,-0.03748154640197754,-0.11737060546875,-0.04283958673477173
1782774784436298800,4.929298828125,-0.04646110534667969,-0.149169921875,-0.08619445562362671
1782774784446249000,4.9392490234375,-0.05971336364746094,-0.20514392852783203,-0.09109699726104736
1782774784456379400,4.94937939453125,-0.08695411682128906,-0.17983436584472656,0.0017446279525756836
1782774784466297600,4.959297607421875,-0.1329643726348877,-0.14747905731201172,-0.003874063491821289
1782774784476247800,4.969247802734375,-0.09022903442382812,-0.16545963287353516,0.05026531219482422
1782774784486318600,4.979318603515625,-0.026800870895385742,-0.113616943359375,0.1903586983680725
1782774784496388000,4.98938818359375,-0.03595161437988281,-0.11885356903076172,0.1646198034286499
1782774784506306300,4.999306396484375,-0.10476160049438477,-0.19849872589111328,0.02031618356704712
1782774784516316000,5.00931591796875,-0.1277787685394287,-0.29512882232666016,-0.07257527112960815
1782774784526295000,5.019294921875,-0.1393427848815918,-0.3221311569213867,-0.1268412470817566
1782774784536305000,5.029304931640625,-0.12242388725280762,-0.37052345275878906,-0.1744803786277771
1782774784546254800,5.0392548828125,-0.11999940872192383,-0.3996086120605469,-0.19928765296936035
1782774784556385300,5.04938525390625,-0.06780600547790527,-0.3948545455932617,-0.15579819679260254
1782774784566303700,5.0593037109375,-0.040291786193847656,-0.3465690612792969,0.0299222469329834
1782774784576313300,5.069313232421875,-0.08220934867858887,-0.3077821731567383,0.14770859479904175
1782774784586292700,5.079292724609375,-0.14262056350708008,-0.2859992980957031,0.193243145942688
1782774784596302600,5.089302490234375,-0.24983429908752441,-0.2934246063232422,0.052182555198669434
1782774784606312200,5.099312255859375,-0.2800471782684326,-0.4040050506591797,-0.1171533465385437
1782774784616291300,5.109291259765625,-0.18184971809387207,-0.3346395492553711,-0.21947789192199707
1782774784626301200,5.11930126953125,-0.07583022117614746,-0.28122520446777344,-0.1453515887260437
1782774784636311000,5.12931103515625,0.1487715244293213,-0.16737842559814453,-0.12493729591369629
1782774784646290200,5.139290283203125,0.26949095726013184,-0.11284732818603516,0.032725632190704346
1782774784656300000,5.149300048828125,0.36307740211486816,-0.0076618194580078125,0.070304274559021
1782774784666310000,5.159309814453125,0.3513507843017578,0.07349967956542969,0.02733016014099121
1782774784676289000,5.1692890625,0.25493621826171875,0.0893402099609375,0.025410771369934082
1782774784686299000,5.179298828125,0.11573195457458496,0.06090354919433594,0.035716235637664795
1782774784696308700,5.189308837890625,-0.037825584411621094,0.026613235473632812,0.0032344460487365723
1782774784706318300,5.199318359375,-0.1945323944091797,-0.022744178771972656,-0.005337357521057129
1782774784716297500,5.20929736328125,-0.32002973556518555,-0.021890640258789062,0.000849604606628418
1782774784726307300,5.219307373046875,-0.25746965408325195,-0.03252601623535156,0.016426801681518555
1782774784736317200,5.229317138671875,-0.23723435401916504,-0.06633853912353516,0.13421720266342163
1782774784746296300,5.23929638671875,-0.20311403274536133,-0.08559322357177734,0.10370182991027832
1782774784756306200,5.24930615234375,-0.1479203701019287,-0.12146759033203125,0.04277998208999634
1782774784766315800,5.259315673828125,-0.10772275924682617,-0.1451129913330078,0.08976119756698608
1782774784776295200,5.269295166015625,-0.1245269775390625,-0.12106800079345703,0.10557824373245239
1782774784786305000,5.279304931640625,-0.13281798362731934,-0.07840442657470703,0.12819337844848633
1782774784796314600,5.289314697265625,-0.2299034595489502,-0.09886360168457031,0.15964627265930176
1782774784806294000,5.2992939453125,-0.36115217208862305,-0.1775369644165039,0.06189882755279541
1782774784816303900,5.309303955078125,-0.44698452949523926,-0.28018856048583984,-0.06139129400253296
1782774784826313500,5.3193134765625,-0.44605278968811035,-0.3797321319580078,-0.1288585662841797
1782774784836292900,5.32929296875,-0.37580347061157227,-0.4303264617919922,-0.16274285316467285
1782774784846302500,5.339302490234375,-0.3024280071258545,-0.4394102096557617,-0.14267879724502563
1782774784856312300,5.349312255859375,-0.09170699119567871,-0.39981555938720703,-0.035660505294799805
1782774784866291500,5.35929150390625,0.09817004203796387,-0.29235267639160156,0.07020896673202515
1782774784876301300,5.36930126953125,0.2632009983062744,-0.1510152816772461,0.10943299531936646
1782774784886311200,5.379311279296875,0.3229639530181885,-0.048084259033203125,0.08239525556564331
1782774784896290300,5.389290283203125,0.2503204345703125,-0.005756378173828125,0.017413854598999023
1782774784906300200,5.399300048828125,0.1633296012878418,-0.08179378509521484,-0.04019975662231445
1782774784916310000,5.40931005859375,0.01528167724609375,-0.15595531463623047,-0.1264778971672058
1782774784926289200,5.4192890625,-0.03332924842834473,-0.19141769409179688,-0.1854156255722046
1782774784936298800,5.429298828125,0.04950261116027832,-0.1922750473022461,-0.11220532655715942
1782774784946308600,5.43930859375,0.11160516738891602,-0.17800617218017578,0.03196793794631958
1782774784956318200,5.449318115234375,0.09079217910766602,-0.14248275756835938,0.06032371520996094
1782774784966297600,5.459297607421875,-0.01849198341369629,-0.17744922637939453,0.014235615730285645
1782774784976307500,5.469307373046875,-0.11377334594726562,-0.1271381378173828,-0.031477272510528564
1782774784986317000,5.479317138671875,-0.10101747512817383,-0.06978988647460938,0.00682377815246582
1782774784996296400,5.48929638671875,-0.09092473983764648,-0.06017112731933594,0.06386345624923706
1782774785006306300,5.499306396484375,-0.09522485733032227,-0.04333972930908203,0.15186083316802979
1782774785016316000,5.50931591796875,-0.18061017990112305,-0.038620948791503906,0.1297805905342102
1782774785026295300,5.51929541015625,-0.2586021423339844,-0.0771942138671875,-0.008504688739776611
1782774785036305000,5.529304931640625,-0.2821834087371826,-0.12519168853759766,-0.1478213667869568
1782774785046314500,5.539314453125,-0.211625337600708,-0.11747932434082031,-0.07820814847946167
1782774785056294000,5.5492939453125,-0.04754948616027832,-0.06563663482666016,0.007505536079406738
1782774785066303700,5.5593037109375,0.02651810646057129,-0.0921478271484375,0.04491257667541504
1782774785076313300,5.569313232421875,0.031103849411010742,-0.14981365203857422,-0.032005906105041504
1782774785086292700,5.579292724609375,0.06744742393493652,-0.11686992645263672,-0.05283993482589722
1782774785096302600,5.589302490234375,0.07852983474731445,-0.14665508270263672,-0.10703206062316895
1782774785106312400,5.5993125,0.09367489814758301,-0.18668651580810547,-0.09954392910003662
1782774785116291600,5.60929150390625,0.027609586715698242,-0.17988109588623047,-0.07128316164016724
1782774785126301200,5.61930126953125,-0.10097694396972656,-0.13805389404296875,-0.1175420880317688
1782774785136310800,5.629310791015625,-0.2046513557434082,-0.1374063491821289,-0.12247961759567261
1782774785146290200,5.639290283203125,-0.32277846336364746,-0.1199636459350586,-0.060323119163513184
1782774785156300000,5.649300048828125,-0.34818553924560547,-0.14534473419189453,-0.07468408346176147
1782774785166310000,5.659309814453125,-0.2710459232330322,-0.1599588394165039,-0.016998589038848877
1782774785176289000,5.6692890625,-0.15997076034545898,-0.13060951232910156,0.021407246589660645
1782774785186299000,5.679298828125,-0.0020411014556884766,-0.08166694641113281,0.000025570392608642578
1782774785196308500,5.68930859375,0.05775141716003418,-0.08779621124267578,0.00010603666305541992
1782774785206318300,5.699318359375,0.01827716827392578,-0.14957141876220703,-0.11447113752365112
1782774785216297500,5.70929736328125,-0.04398751258850098,-0.21909713745117188,-0.19003140926361084
1782774785226307300,5.719307373046875,-0.06508922576904297,-0.2217874526977539,-0.20092791318893433
1782774785236317200,5.729317138671875,0.016972780227661133,-0.1766223907470703,-0.11912107467651367
1782774785246296300,5.73929638671875,-0.0011174678802490234,-0.1291332244873047,-0.004867374897003174
1782774785256306200,5.74930615234375,0.010240554809570312,-0.04838371276855469,0.08487635850906372
1782774785266315800,5.759315673828125,-0.044783830642700195,0.02009296417236328,0.13414031267166138
1782774785276295200,5.769295166015625,-0.16825103759765625,-0.034026145935058594,0.03800094127655029
1782774785286305000,5.779304931640625,-0.3147852420806885,-0.12215709686279297,-0.06645292043685913
1782774785296314600,5.789314697265625,-0.27541279792785645,-0.14778614044189453,-0.15536922216415405
1782774785306294000,5.7992939453125,-0.16455841064453125,-0.1746845245361328,-0.17187035083770752
1782774785316304000,5.809303955078125,0.019626140594482422,-0.1762218475341797,-0.10460442304611206
1782774785326313500,5.8193134765625,0.14487600326538086,-0.16029739379882812,-0.0021369457244873047
1782774785336292600,5.829292724609375,0.1875920295715332,-0.14483070373535156,0.08747953176498413
1782774785346302500,5.839302490234375,0.07504129409790039,-0.13292312622070312,0.0451662540435791
1782774785356312000,5.84931201171875,-0.10650014877319336,-0.15584087371826172,-0.12795668840408325
1782774785366291500,5.85929150390625,-0.3005847930908203,-0.1867837905883789,-0.22861599922180176
1782774785376301300,5.86930126953125,-0.29376649856567383,-0.19129085540771484,-0.22160732746124268
1782774785386311000,5.879310791015625,-0.1880476474761963,-0.17583560943603516,-0.09827852249145508
1782774785396290300,5.889290283203125,-0.053380727767944336,-0.10187149047851562,0.043036699295043945
1782774785406300200,5.899300048828125,0.0675351619720459,-0.05825614929199219,0.11236381530761719
1782774785416310000,5.90931005859375,0.19054675102233887,0.011776924133300781,0.23726648092269897
1782774785426289200,5.9192890625,0.14425444602966309,-0.04302978515625,0.14241838455200195
1782774785436298800,5.929298828125,-0.02434062957763672,-0.060611724853515625,0.02988499402999878
1782774785446308400,5.939308349609375,-0.17360997200012207,-0.09371376037597656,-0.03894728422164917
1782774785456318200,5.949318115234375,-0.3000500202178955,-0.15126609802246094,-0.0363767147064209
1782774785466297600,5.959297607421875,-0.31928491592407227,-0.20613479614257812,0.01585942506790161
1782774785476307500,5.969307373046875,-0.23256564140319824,-0.2098827362060547,0.08161306381225586
1782774785486317000,5.979317138671875,-0.07842397689819336,-0.15045547485351562,0.22808736562728882
1782774785496296400,5.98929638671875,-0.04003477096557617,-0.1480417251586914,0.2466433048248291
1782774785506306300,5.999306396484375,-0.027601957321166992,-0.18169116973876953,0.17407965660095215
1782774785516316000,6.00931591796875,-0.04531979560852051,-0.15351104736328125,0.19014787673950195
1782774785526295000,6.019294921875,-0.1602764129638672,-0.15685749053955078,0.09137415885925293
1782774785536305000,6.029304931640625,-0.2220151424407959,-0.21798324584960938,-0.04955774545669556
1782774785546314500,6.039314453125,-0.18638873100280762,-0.27641868591308594,-0.01761019229888916
1782774785556294000,6.0492939453125,-0.06208682060241699,-0.2596263885498047,-0.01704949140548706
1782774785566303700,6.0593037109375,0.11023116111755371,-0.21312427520751953,0.026451289653778076
1782774785576313300,6.069313232421875,0.1667628288269043,-0.16135787963867188,0.1645631194114685
1782774785586292700,6.079292724609375,0.10521888732910156,-0.17009735107421875,0.09627938270568848
1782774785596302600,6.089302490234375,0.028483867645263672,-0.21309757232666016,0.000012218952178955078
1782774785606312200,6.099312255859375,-0.07107067108154297,-0.23511600494384766,-0.09289366006851196
1782774785616291300,6.109291259765625,-0.13428831100463867,-0.25493812561035156,-0.1281539797782898
1782774785626301200,6.11930126953125,-0.1496899127960205,-0.26270294189453125,-0.15206921100616455
1782774785636311000,6.12931103515625,-0.18666315078735352,-0.2631826400756836,-0.15304183959960938
1782774785646290200,6.139290283203125,-0.21176552772521973,-0.26114654541015625,-0.11178499460220337
1782774785656300000,6.149300048828125,-0.18481826782226562,-0.2157144546508789,-0.08045816421508789
1782774785666310000,6.159309814453125,-0.11836433410644531,-0.19132137298583984,-0.0778619647026062
1782774785676289000,6.1692890625,-0.021747350692749023,-0.18088531494140625,-0.04171121120452881
1782774785686299000,6.179298828125,0.0056340694427490234,-0.17292118072509766,-0.031960129737854004
1782774785696308700,6.189308837890625,-0.026071548461914062,-0.17727947235107422,-0.11530441045761108
1782774785706318300,6.199318359375,-0.08832764625549316,-0.19631576538085938,-0.20990341901779175
1782774785716297700,6.209297607421875,-0.20052742958068848,-0.22269916534423828,-0.2276517152786255
1782774785726307300,6.219307373046875,-0.17415738105773926,-0.14119434356689453,-0.16665160655975342
1782774785736317200,6.229317138671875,0.013009786605834961,-0.0803232192993164,0.0637543797492981
1782774785746296300,6.23929638671875,0.1741020679473877,-0.04709339141845703,0.19172066450119019
1782774785756306200,6.24930615234375,0.18716931343078613,-0.04042530059814453,0.16221249103546143
1782774785766315800,6.259315673828125,0.09718060493469238,-0.04923248291015625,0.02636849880218506
1782774785776295200,6.269295166015625,0.01885509490966797,-0.12367630004882812,-0.12758100032806396
1782774785786305000,6.279304931640625,-0.11100244522094727,-0.19385051727294922,-0.15432727336883545
1782774785796314600,6.289314697265625,-0.21201705932617188,-0.18744659423828125,-0.126126229763031
1782774785806294000,6.2992939453125,-0.2367548942565918,-0.1808309555053711,-0.06988614797592163
1782774785816303900,6.309303955078125,-0.25025343894958496,-0.14508056640625,0.07636600732803345
1782774785826313500,6.3193134765625,-0.1954941749572754,-0.13273143768310547,0.14799314737319946
1782774785836292900,6.32929296875,-0.08994102478027344,-0.1124420166015625,0.1722514033317566
1782774785846302500,6.339302490234375,-0.007667064666748047,-0.14176464080810547,0.1805408000946045
1782774785856312300,6.349312255859375,-0.009650707244873047,-0.2116870880126953,0.07252025604248047
1782774785866291500,6.35929150390625,-0.09193038940429688,-0.2510414123535156,-0.0681527853012085
1782774785876301300,6.36930126953125,-0.1009824275970459,-0.2191629409790039,-0.07721364498138428
1782774785886311200,6.379311279296875,-0.035507917404174805,-0.1681690216064453,-0.010622084140777588
1782774785896290300,6.389290283203125,-0.05202794075012207,-0.13842391967773438,-0.004356861114501953
1782774785906300200,6.399300048828125,0.0026772022247314453,-0.15398597717285156,-0.12418681383132935
1782774785916310000,6.40931005859375,0.10892844200134277,-0.13559627532958984,-0.08063709735870361
1782774785926289200,6.4192890625,0.17132830619812012,-0.11924266815185547,-0.01107245683670044
1782774785936298800,6.429298828125,0.12210512161254883,-0.07445430755615234,0.11738687753677368
1782774785946308600,6.43930859375,-0.013740301132202148,-0.04483509063720703,0.09694385528564453
1782774785956258600,6.449258544921875,-0.05490398406982422,0.005702972412109375,0.11549782752990723
1782774785966389000,6.459388916015625,-0.12472248077392578,-0.05877113342285156,0.0627814531326294
1782774785976307500,6.469307373046875,-0.24998068809509277,-0.1255636215209961,-0.0345117449760437
1782774785986317000,6.479317138671875,-0.2750422954559326,-0.16838550567626953,-0.17837315797805786
1782774785996296400,6.48929638671875,-0.18888282775878906,-0.21065425872802734,-0.15209943056106567
1782774786006306300,6.499306396484375,-0.1306471824645996,-0.242584228515625,-0.04518306255340576
1782774786016316000,6.50931591796875,-0.04714393615722656,-0.17575740814208984,0.04124248027801514
1782774786026235400,6.5192353515625,-0.015735387802124023,-0.13066673278808594,0.1701694130897522
1782774786036366000,6.529365966796875,-0.11904144287109375,-0.12708473205566406,0.0433354377746582
1782774786046254800,6.5392548828125,-0.16110444068908691,-0.21280574798583984,-0.1732330322265625
1782774786056325600,6.54932568359375,-0.1885080337524414,-0.21487140655517578,-0.2197103500366211
1782774786066364700,6.55936474609375,-0.20919203758239746,-0.2358865737915039,-0.25660574436187744
1782774786076253700,6.569253662109375,-0.05894660949707031,-0.20593929290771484,-0.15038526058197021
1782774786086384400,6.57938427734375,0.05197620391845703,-0.0437164306640625,0.054825544357299805
1782774786096302600,6.589302490234375,0.12037277221679688,0.08239173889160156,0.11353576183319092
1782774786106312200,6.599312255859375,0.07341599464416504,0.018459320068359375,0.11040723323822021
1782774786116291300,6.609291259765625,-0.03608560562133789,-0.0009660720825195312,0.026573121547698975
1782774786126301200,6.61930126953125,-0.16826319694519043,-0.0138702392578125,-0.10882383584976196
1782774786136310800,6.629310791015625,-0.12580347061157227,0.01634502410888672,-0.05947232246398926
1782774786146290200,6.639290283203125,0.020535945892333984,-0.0150299072265625,-0.02944052219390869
1782774786156240400,6.649240478515625,0.10845160484313965,-0.15613555908203125,-0.08783656358718872
1782774786166311200,6.659311279296875,0.08639860153198242,-0.18964195251464844,-0.14072257280349731
1782774786176380700,6.669380615234375,0.08455681800842285,-0.1374073028564453,-0.08116161823272705
1782774786186239200,6.6792392578125,0.026760101318359375,-0.0952901840209961,0.07288068532943726
1782774786197074200,6.69007421875,-0.10821676254272461,-0.07783126831054688,0.11118090152740479
1782774786216297700,6.709297607421875,-0.22430086135864258,-0.0672445297241211,0.11479741334915161
1782774786226307300,6.719307373046875,-0.23882842063903809,-0.11386585235595703,0.051864564418792725
1782774786236317200,6.729317138671875,-0.2001960277557373,-0.1836843490600586,-0.1011551022529602
1782774786246236700,6.739236572265625,-0.024955272674560547,-0.22387123107910156,-0.1719161868095398
1782774786256367000,6.7493671875,0.11011242866516113,-0.22489166259765625,-0.013313233852386475
1782774786266315800,6.759315673828125,0.21580171585083008,-0.24469375610351562,-0.07832217216491699
1782774786276295200,6.769295166015625,0.2902493476867676,-0.2333059310913086,0.0002353191375732422
1782774786286305000,6.779304931640625,0.253216028213501,-0.2198638916015625,0.16373252868652344
1782774786296314600,6.789314697265625,0.04206037521362305,-0.10231590270996094,0.18018001317977905
1782774786306294000,6.7992939453125,-0.1156775951385498,-0.05080127716064453,0.19204318523406982
1782774786316304000,6.809303955078125,-0.2528047561645508,-0.15317630767822266,0.17064428329467773
1782774786326253600,6.819253662109375,-0.3328869342803955,-0.20282745361328125,-0.03843879699707031
1782774786336384300,6.82938427734375,-0.2641623020172119,-0.31638050079345703,-0.20286619663238525
1782774786346242800,6.839242919921875,-0.1100606918334961,-0.313629150390625,-0.1612491011619568
1782774786356464600,6.849464599609375,0.05107879638671875,-0.25696659088134766,-0.006115555763244629
1782774786366291500,6.85929150390625,0.08671951293945312,-0.2810859680175781,0.0847732424736023
1782774786376301300,6.86930126953125,0.09698200225830078,-0.2623939514160156,0.13113725185394287
1782774786386311200,6.879311279296875,-0.019957304000854492,-0.2924528121948242,-0.004938066005706787
1782774786396290300,6.889290283203125,-0.17486786842346191,-0.3045682907104492,-0.07379180192947388
1782774786406300200,6.899300048828125,-0.3112640380859375,-0.2718944549560547,-0.12659811973571777
1782774786416310000,6.90931005859375,-0.2991349697113037,-0.19367408752441406,-0.0702710747718811
1782774786426289200,6.9192890625,-0.05876803398132324,-0.045157432556152344,0.19502407312393188
1782774786436298800,6.929298828125,-0.03189444541931152,0.049630165100097656,0.21492552757263184
1782774786446308600,6.93930859375,0.48389172554016113,-0.09673500061035156,0.1074063777923584
1782774786456318200,6.949318115234375,0.1546638011932373,-0.1464395523071289,-0.10850071907043457
1782774786466297600,6.959297607421875,0.35948920249938965,-0.09532833099365234,-0.37731078267097473
1782774786476307500,6.969307373046875,-0.0818483829498291,-0.18249130249023438,-0.12362241744995117
1782774786486317000,6.979317138671875,-0.21423029899597168,-0.06309986114501953,0.13336294889450073
1782774786496296400,6.98929638671875,-0.3974339962005615,-0.10140800476074219,0.11927884817123413
1782774786506306300,6.999306396484375,-0.49729061126708984,-0.10987472534179688,0.1689501404762268
1782774786516316000,7.00931591796875,-0.6459329128265381,-0.08684253692626953,0.31714320182800293
1782774786526295300,7.01929541015625,-0.631749153137207,0.03951263427734375,0.4999794363975525
1782774786536305000,7.029304931640625,-0.4699862003326416,0.009510993957519531,0.5319729447364807
1782774786546314500,7.039314453125,-0.27557945251464844,-0.036757469177246094,0.19378095865249634
1782774786556294000,7.0492939453125,-0.040204763412475586,-0.1739044189453125,-0.09945142269134521
1782774786566303700,7.0593037109375,0.18324756622314453,-0.26462745666503906,-0.3460211753845215
1782774786576313300,7.069313232421875,0.40564846992492676,-0.36295127868652344,-0.31129151582717896
1782774786586292700,7.079292724609375,0.5751607418060303,-0.3982696533203125,-0.3060489296913147
