time,seconds_elapsed,z,y,x
1782774769946582800,0.180582763671875,-0.28495121002197266,-0.013875007629394531,0.2659786343574524
1782774769956773600,0.190773681640625,-0.4131186008453369,-0.10148048400878906,0.017844438552856445
1782774769966753000,0.2007529296875,-0.36325502395629883,-0.2124166488647461,-0.013430953025817871
1782774769976762600,0.2107626953125,-0.3403806686401367,-0.21657848358154297,-0.018128037452697754
1782774769986772500,0.2207724609375,-0.3218069076538086,-0.2486743927001953,-0.17970305681228638
1782774769996751600,0.230751708984375,-0.2184734344482422,-0.2250080108642578,-0.21451741456985474
1782774770006761500,0.240761474609375,-0.1019439697265625,-0.18862152099609375,-0.04328048229217529
1782774770016771000,0.25077099609375,-0.04773664474487305,-0.13526248931884766,0.023012161254882812
1782774770026750500,0.26075048828125,0.09033823013305664,-0.033997535705566406,0.11504560708999634
1782774770036760300,0.27076025390625,0.32651662826538086,0.1343240737915039,0.2885907292366028
1782774770046770000,0.28077001953125,0.4312911033630371,0.05341053009033203,0.1903989315032959
1782774770056749300,0.290749267578125,0.32889556884765625,-0.08098411560058594,-0.05078357458114624
1782774770066759200,0.30075927734375,0.11394929885864258,-0.16399097442626953,-0.15849226713180542
1782774770076768800,0.310768798828125,-0.11229896545410156,-0.20056724548339844,-0.1535738706588745
1782774770086748200,0.320748046875,-0.2620415687561035,-0.24050235748291016,-0.14026695489883423
1782774770096757800,0.3307578125,-0.4445679187774658,-0.2758007049560547,0.0673290491104126
1782774770106767600,0.340767578125,-0.5775296688079834,-0.25557708740234375,0.1252514123916626
1782774770116746800,0.350746826171875,-0.6153697967529297,-0.2638063430786133,0.03271561861038208
1782774770126756600,0.360756591796875,-0.4923722743988037,-0.1872539520263672,0.214857816696167
1782774770136766500,0.370766357421875,-0.34601855278015137,-0.17145919799804688,0.2139846682548523
1782774770146745600,0.38074560546875,-0.16240310668945312,-0.2212057113647461,0.07307255268096924
1782774770156755500,0.39075537109375,0.04175710678100586,-0.26712799072265625,-0.035008251667022705
1782774770166765300,0.400765380859375,0.2557711601257324,-0.3432903289794922,-0.12754690647125244
1782774770176744400,0.410744384765625,0.2952451705932617,-0.41957855224609375,-0.24139410257339478
1782774770186754000,0.420754150390625,0.2020735740661621,-0.40317249298095703,-0.3359566628932953
1782774770196764000,0.430763916015625,0.12319183349609375,-0.3327608108520508,-0.294320285320282
1782774770206773500,0.4407734375,0.08449268341064453,-0.3133230209350586,-0.11105799674987793
1782774770216753000,0.4507529296875,-0.01195526123046875,-0.18204021453857422,0.21247076988220215
1782774770226762800,0.4607626953125,-0.16114091873168945,-0.01581096649169922,0.27370619773864746
1782774770236772400,0.4707724609375,-0.28998613357543945,0.05160045623779297,0.2546542286872864
1782774770246751700,0.480751708984375,-0.3714487552642822,0.011358261108398438,0.16307532787322998
1782774770256761600,0.49076171875,-0.36856961250305176,-0.10960102081298828,-0.065421462059021
1782774770266771200,0.500771240234375,-0.25116729736328125,-0.1839447021484375,-0.24648034572601318
1782774770276750600,0.51075048828125,-0.06260251998901367,-0.21861648559570312,-0.2879815101623535
1782774770286760200,0.52076025390625,0.16927671432495117,-0.22585296630859375,-0.23935914039611816
1782774770296769800,0.530769775390625,0.27393627166748047,-0.1968545913696289,-0.01533728837966919
1782774770306749200,0.540749267578125,0.2033071517944336,-0.10153865814208984,0.11597084999084473
1782774770316759000,0.550759033203125,0.037868499755859375,-0.043671607971191406,0.12478846311569214
1782774770326768600,0.5607685546875,-0.1865835189819336,-0.056854248046875,0.046065688133239746
1782774770336748000,0.570748046875,-0.3687312602996826,-0.1379222869873047,-0.08426803350448608
1782774770346758000,0.5807578125,-0.4306952953338623,-0.13071346282958984,-0.12984323501586914
1782774770356767500,0.590767578125,-0.3664543628692627,-0.09923648834228516,-0.02459549903869629
1782774770366747000,0.600746826171875,-0.33078575134277344,-0.08338737487792969,0.003128945827484131
1782774770376756500,0.610756591796875,-0.1961507797241211,-0.11709403991699219,-0.009617865085601807
1782774770386766000,0.62076611328125,-0.07077980041503906,-0.1330852508544922,-0.010221421718597412
1782774770396745500,0.630745361328125,-0.056223392486572266,-0.14878177642822266,-0.020170390605926514
1782774770406755300,0.64075537109375,-0.05993223190307617,-0.1218423843383789,-0.05595499277114868
1782774770416765200,0.65076513671875,-0.03392219543457031,-0.07617378234863281,-0.0035614371299743652
1782774770426744300,0.660744384765625,0.01672983169555664,-0.10500335693359375,0.012395799160003662
1782774770436754200,0.670754150390625,-0.030064105987548828,-0.11983394622802734,0.00474625825881958
1782774770446763800,0.680763671875,-0.07335186004638672,-0.08490562438964844,-0.0364345908164978
1782774770456773600,0.690773681640625,-0.1369457244873047,-0.06491279602050781,0.04918324947357178
1782774770466753000,0.7007529296875,-0.20702791213989258,-0.06916046142578125,0.10105490684509277
1782774770476762600,0.7107626953125,-0.2531905174255371,-0.11893844604492188,0.03375941514968872
1782774770486772500,0.7207724609375,-0.2478938102722168,-0.14431190490722656,-0.015665709972381592
1782774770496751600,0.730751708984375,-0.21095561981201172,-0.12337875366210938,0.009729385375976562
1782774770506761500,0.740761474609375,-0.08502721786499023,-0.17095661163330078,-0.007910192012786865
1782774770516771000,0.75077099609375,-0.012868404388427734,-0.26587581634521484,-0.021083295345306396
1782774770526750500,0.76075048828125,-0.07899284362792969,-0.27965450286865234,-0.05828219652175903
1782774770536760300,0.77076025390625,-0.14128589630126953,-0.26780128479003906,-0.24593967199325562
1782774770546770000,0.78077001953125,-0.12833261489868164,-0.24925994873046875,-0.27301162481307983
1782774770556749300,0.790749267578125,-0.15094232559204102,-0.182861328125,-0.16029220819473267
1782774770566759200,0.80075927734375,-0.023189067840576172,-0.06347465515136719,-0.0653529167175293
1782774770576768800,0.810768798828125,0.10781574249267578,0.06383895874023438,0.08675020933151245
1782774770586748000,0.820747802734375,0.21161222457885742,0.06699943542480469,0.12695246934890747
1782774770596757800,0.8307578125,0.1915278434753418,0.02424144744873047,0.1351684331893921
1782774770606767400,0.840767333984375,0.11573934555053711,-0.05061054229736328,0.006125032901763916
1782774770616746800,0.850746826171875,0.23042535781860352,-0.07357978820800781,-0.02289527654647827
1782774770626756600,0.860756591796875,-0.14675474166870117,-0.2601461410522461,-0.3876354694366455
1782774770636766200,0.87076611328125,-0.3179595470428467,-0.30198097229003906,-0.4535675346851349
1782774770646745600,0.88074560546875,-0.4643094539642334,-0.32741737365722656,-0.33807578682899475
1782774770656755500,0.89075537109375,-0.44068264961242676,-0.24001693725585938,-0.12048608064651489
1782774770666765300,0.900765380859375,-0.34409165382385254,-0.07749462127685547,0.20609569549560547
1782774770676744400,0.910744384765625,-0.13225555419921875,0.04063129425048828,0.39472925662994385
1782774770686754000,0.920754150390625,-0.06579828262329102,-0.0009565353393554688,0.27319473028182983
1782774770696763600,0.930763671875,-0.007639408111572266,-0.06862449645996094,0.061172425746917725
1782774770706773500,0.9407734375,0.04461812973022461,-0.1479816436767578,-0.1697629690170288
1782774770716753000,0.9507529296875,0.15657758712768555,-0.2584505081176758,-0.2850618362426758
1782774770726762800,0.9607626953125,0.25386476516723633,-0.32087039947509766,-0.2593114972114563
1782774770736772600,0.970772705078125,0.32908105850219727,-0.32308483123779297,-0.08632802963256836
1782774770746751700,0.980751708984375,0.1350421905517578,-0.2922811508178711,-0.09638547897338867
1782774770756761600,0.99076171875,-0.05772829055786133,-0.3086128234863281,-0.03745627403259277
1782774770766771200,1.000771240234375,-0.23555326461791992,-0.3381071090698242,-0.035586655139923096
1782774770776750300,1.010750244140625,-0.27849745750427246,-0.35120105743408203,0.018868982791900635
1782774770786760200,1.02076025390625,-0.34176135063171387,-0.28703975677490234,0.07696491479873657
1782774770796769800,1.030769775390625,-0.2623889446258545,-0.21994972229003906,0.20129257440567017
1782774770806749200,1.040749267578125,-0.17727136611938477,-0.15688705444335938,0.2502060532569885
1782774770816759000,1.050759033203125,-0.17670345306396484,-0.15096473693847656,0.19168484210968018
1782774770826768600,1.0607685546875,-0.24606847763061523,-0.19760894775390625,0.005343735218048096
1782774770836748000,1.070748046875,-0.23814153671264648,-0.2890939712524414,-0.18183881044387817
1782774770846758000,1.0807578125,-0.13005399703979492,-0.2548332214355469,-0.18198055028915405
1782774770856767700,1.090767822265625,0.09492969512939453,-0.14497089385986328,-0.018081605434417725
1782774770866746600,1.10074658203125,0.21848440170288086,-0.10162925720214844,0.11095160245895386
1782774770876756500,1.110756591796875,0.25464630126953125,-0.09708690643310547,0.11246317625045776
1782774770886766300,1.120766357421875,0.13765811920166016,-0.06255149841308594,0.1212378740310669
1782774770896745500,1.130745361328125,0.037613868713378906,-0.0292205810546875,0.07279211282730103
1782774770906755300,1.14075537109375,-0.07519817352294922,-0.03262615203857422,-0.015264630317687988
1782774770916765200,1.15076513671875,-0.21124505996704102,-0.08429431915283203,-0.045181334018707275
1782774770926744300,1.160744384765625,-0.2973620891571045,-0.0567779541015625,-0.08005678653717041
1782774770936754200,1.170754150390625,-0.26737380027770996,-0.043060302734375,-0.05525660514831543
1782774770946764000,1.180763916015625,-0.10794353485107422,-0.049831390380859375,0.012220919132232666
1782774770956773600,1.190773681640625,0.025690078735351562,0.02089977264404297,0.09598320722579956
1782774770966753000,1.2007529296875,0.06840038299560547,0.06289196014404297,0.1747586727142334
1782774770976762600,1.2107626953125,0.08344268798828125,0.027754783630371094,0.11262392997741699
1782774770986772500,1.2207724609375,0.0016660690307617188,-0.005671501159667969,0.07765233516693115
1782774770996751600,1.230751708984375,-0.0933375358581543,-0.046868324279785156,0.03148585557937622
1782774771006761500,1.240761474609375,-0.15438461303710938,-0.06913948059082031,0.01441502571105957
1782774771016771000,1.25077099609375,-0.17181158065795898,-0.10842609405517578,-0.012040972709655762
1782774771026750500,1.26075048828125,-0.17452049255371094,-0.11909198760986328,0.04229658842086792
1782774771036760300,1.27076025390625,-0.15791893005371094,-0.1033945083618164,0.14095115661621094
1782774771046770000,1.28077001953125,-0.1745777130126953,-0.13323211669921875,0.17887157201766968
1782774771056749300,1.290749267578125,-0.23369598388671875,-0.18727684020996094,0.18058335781097412
1782774771066759200,1.30075927734375,-0.3711740970611572,-0.24407005310058594,0.027399718761444092
1782774771076768800,1.310768798828125,-0.4108154773712158,-0.31623172760009766,-0.17767232656478882
1782774771086748200,1.320748046875,-0.3532116413116455,-0.2898550033569336,-0.17632544040679932
1782774771096757800,1.3307578125,-0.2627408504486084,-0.23085689544677734,-0.08531779050827026
1782774771106767600,1.340767578125,-0.15447282791137695,-0.19983673095703125,0.013588368892669678
1782774771116746800,1.350746826171875,0.018827438354492188,-0.1127614974975586,0.07087886333465576
1782774771126756600,1.360756591796875,0.09469795227050781,-0.027313232421875,0.1878870129585266
1782774771136766500,1.370766357421875,0.23269319534301758,-0.0040340423583984375,0.24715501070022583
1782774771146745600,1.38074560546875,0.2563285827636719,-0.050487518310546875,0.18490397930145264
1782774771156755500,1.39075537109375,0.12807035446166992,-0.16232872009277344,-0.009793579578399658
1782774771166765300,1.400765380859375,-0.0651693344116211,-0.2776918411254883,-0.22376710176467896
1782774771176744400,1.410744384765625,-0.1726832389831543,-0.3436899185180664,-0.21225333213806152
1782774771186754000,1.420754150390625,-0.2149205207824707,-0.3308267593383789,-0.07551252841949463
1782774771196764000,1.430763916015625,-0.19035005569458008,-0.24829483032226562,0.03333282470703125
1782774771206773500,1.4407734375,-0.19837141036987305,-0.2488269805908203,0.06477642059326172
1782774771216753000,1.4507529296875,-0.18619918823242188,-0.2655448913574219,-0.0014352798461914062
1782774771226762800,1.4607626953125,-0.15109920501708984,-0.2698545455932617,-0.02426004409790039
1782774771236772400,1.4707724609375,-0.12189865112304688,-0.30235862731933594,-0.03073441982269287
1782774771246751700,1.480751708984375,-0.055142879486083984,-0.26747894287109375,-0.015663564205169678
1782774771256761600,1.49076171875,-0.009909629821777344,-0.20623016357421875,0.008449554443359375
1782774771266771200,1.500771240234375,0.03795003890991211,-0.15945148468017578,0.030179738998413086
1782774771276750600,1.51075048828125,0.02626514434814453,-0.13675880432128906,0.03040522336959839
1782774771286760200,1.52076025390625,-0.025345802307128906,-0.12880516052246094,0.002166271209716797
1782774771296769800,1.530769775390625,-0.06695890426635742,-0.18094253540039062,-0.08301937580108643
1782774771306749200,1.540749267578125,-0.046038150787353516,-0.16379737854003906,-0.06743210554122925
1782774771316759000,1.550759033203125,-0.09215307235717773,-0.1418437957763672,-0.06642144918441772
1782774771326768600,1.5607685546875,-0.12616539001464844,-0.17744064331054688,-0.1153792142868042
1782774771336748000,1.570748046875,-0.17425870895385742,-0.19642925262451172,-0.17841804027557373
1782774771346758000,1.5807578125,-0.12685918807983398,-0.15308761596679688,-0.1523793339729309
1782774771356767500,1.590767578125,-0.13030672073364258,-0.06386756896972656,0.025421857833862305
1782774771366747000,1.600746826171875,-0.12160205841064453,0.018163681030273438,0.1161312460899353
1782774771376756500,1.610756591796875,-0.05553722381591797,0.04752349853515625,0.12121057510375977
1782774771386766300,1.620766357421875,0.04082345962524414,0.0053462982177734375,0.06744241714477539
1782774771396745500,1.630745361328125,0.06914043426513672,-0.015004158020019531,-0.06804633140563965
1782774771406755300,1.64075537109375,0.13759088516235352,-0.008891105651855469,-0.15650057792663574
1782774771416765200,1.65076513671875,0.12987422943115234,-0.050894737243652344,-0.20391970872879028
1782774771426744300,1.660744384765625,0.12368345260620117,-0.09114933013916016,-0.1537836194038391
1782774771436754200,1.670754150390625,0.10696792602539062,-0.09366798400878906,-0.06637173891067505
1782774771446763800,1.680763671875,0.08400726318359375,-0.10135459899902344,0.008454859256744385
1782774771456773600,1.690773681640625,-0.04326820373535156,-0.08313655853271484,0.0780712366104126
1782774771466753000,1.7007529296875,-0.1545567512512207,-0.04170513153076172,0.13075977563858032
1782774771476762600,1.7107626953125,-0.3055288791656494,-0.11088752746582031,0.05914950370788574
1782774771486772500,1.7207724609375,-0.3607475757598877,-0.15138530731201172,0.04325050115585327
1782774771496751600,1.730751708984375,-0.3502171039581299,-0.16020774841308594,-0.0033299922943115234
1782774771506761500,1.740761474609375,-0.27022671699523926,-0.23026275634765625,-0.07309818267822266
1782774771516771000,1.75077099609375,-0.07334661483764648,-0.2344217300415039,-0.008414924144744873
1782774771526750500,1.76075048828125,0.07613658905029297,-0.1969585418701172,0.05329948663711548
1782774771536760300,1.77076025390625,0.13483428955078125,-0.2169933319091797,0.08090633153915405
1782774771546770000,1.78077001953125,0.08716249465942383,-0.196929931640625,0.036450088024139404
1782774771556749300,1.790749267578125,0.0581049919128418,-0.1585836410522461,-0.03407043218612671
1782774771566759200,1.80075927734375,-0.024426937103271484,-0.20476531982421875,-0.05909067392349243
1782774771576768800,1.810768798828125,-0.07481813430786133,-0.2513542175292969,-0.010511636734008789
1782774771586748000,1.820747802734375,-0.1700148582458496,-0.22638511657714844,-0.03190428018569946
1782774771596757800,1.8307578125,-0.19550371170043945,-0.2613992691040039,-0.12509256601333618
1782774771606767400,1.840767333984375,-0.18626070022583008,-0.33418941497802734,-0.07211488485336304
1782774771616746800,1.850746826171875,-0.1860189437866211,-0.25049686431884766,-0.11526679992675781
1782774771626756600,1.860756591796875,-0.07920265197753906,-0.1782360076904297,-0.08909296989440918
1782774771636766200,1.87076611328125,0.06925439834594727,-0.1123504638671875,0.08378994464874268
1782774771646745600,1.88074560546875,0.12380504608154297,-0.012681007385253906,0.18940478563308716
1782774771656755500,1.89075537109375,0.15227699279785156,0.029340744018554688,0.17617571353912354
1782774771666765300,1.900765380859375,0.09807872772216797,-0.001068115234375,0.04905802011489868
1782774771676744400,1.910744384765625,-0.012302398681640625,-0.08719825744628906,-0.026950418949127197
1782774771686754000,1.920754150390625,-0.07379817962646484,-0.15706539154052734,-0.11926251649856567
1782774771696763600,1.930763671875,-0.052091121673583984,-0.16919517517089844,-0.07755368947982788
1782774771706773500,1.9407734375,-0.014525890350341797,-0.16889667510986328,0.028265833854675293
1782774771716753000,1.9507529296875,0.04167032241821289,-0.18747806549072266,0.059480369091033936
1782774771726762800,1.9607626953125,-0.04711580276489258,-0.22566604614257812,0.07111227512359619
1782774771736772400,1.9707724609375,-0.1168828010559082,-0.17860031127929688,0.17262041568756104
1782774771746751700,1.980751708984375,-0.20848989486694336,-0.16106414794921875,0.257901668548584
1782774771756761600,1.99076171875,-0.2965586185455322,-0.17269134521484375,0.2823410630226135
1782774771766771200,2.000771240234375,-0.37973999977111816,-0.14119911193847656,0.28928184509277344
1782774771776750300,2.010750244140625,-0.44899535179138184,-0.1933908462524414,0.09616857767105103
1782774771786760200,2.02076025390625,-0.3763730525970459,-0.25447654724121094,0.03381079435348511
1782774771796769800,2.030769775390625,-0.24184775352478027,-0.2712411880493164,-0.042694926261901855
1782774771806749200,2.040749267578125,-0.06154441833496094,-0.25351428985595703,0.009919047355651855
1782774771816759000,2.050759033203125,0.0699911117553711,-0.2113332748413086,0.13070350885391235
1782774771826768600,2.0607685546875,0.041905879974365234,-0.19576168060302734,0.14279812574386597
1782774771836748000,2.070748046875,-0.06761980056762695,-0.1884603500366211,0.10244226455688477
1782774771846758000,2.0807578125,-0.15108585357666016,-0.1629781723022461,0.06462174654006958
1782774771856767700,2.090767822265625,-0.24790644645690918,-0.18346023559570312,-0.03762739896774292
1782774771866746600,2.10074658203125,-0.30166172981262207,-0.17041873931884766,-0.05354994535446167
1782774771876756500,2.110756591796875,-0.26293158531188965,-0.14496421813964844,-0.0291670560836792
1782774771886766300,2.120766357421875,-0.17787742614746094,-0.1068258285522461,-0.026367902755737305
1782774771896745500,2.130745361328125,-0.0518951416015625,-0.07972431182861328,-0.05178415775299072
1782774771906755300,2.14075537109375,0.07211685180664062,-0.08770084381103516,-0.08852016925811768
1782774771916765200,2.15076513671875,0.2503352165222168,-0.09052848815917969,-0.11052113771438599
1782774771926744300,2.160744384765625,0.34491395950317383,-0.04794788360595703,-0.043812096118927
1782774771936754200,2.170754150390625,0.2873401641845703,-0.032212257385253906,-0.07502663135528564
1782774771946764000,2.180763916015625,0.22437143325805664,-0.03413200378417969,-0.11249369382858276
1782774771956773600,2.190773681640625,0.0986485481262207,-0.06327629089355469,-0.10420554876327515
1782774771966753000,2.2007529296875,-0.023313522338867188,-0.0883035659790039,-0.15280145406723022
1782774771976762600,2.2107626953125,-0.11344671249389648,-0.15921688079833984,-0.21255189180374146
1782774771986772500,2.2207724609375,-0.16488933563232422,-0.12491607666015625,-0.10992753505706787
1782774771996751600,2.230751708984375,-0.11426162719726562,-0.07817554473876953,-0.010440826416015625
1782774772006761500,2.240761474609375,-0.01512765884399414,-0.15271282196044922,-0.057226598262786865
1782774772016771000,2.25077099609375,0.03939962387084961,-0.21949386596679688,-0.08608216047286987
1782774772026750500,2.26075048828125,0.00930643081665039,-0.22375011444091797,-0.18333512544631958
1782774772036760300,2.27076025390625,0.029621601104736328,-0.2521190643310547,-0.23151421546936035
1782774772046770000,2.28077001953125,0.043288230895996094,-0.21601581573486328,-0.09609377384185791
1782774772056749300,2.290749267578125,0.02271127700805664,-0.16607093811035156,0.08950197696685791
1782774772066759200,2.30075927734375,-0.06332111358642578,-0.14790821075439453,0.07096850872039795
1782774772076768800,2.310768798828125,-0.21533727645874023,-0.2332916259765625,-0.046828389167785645
1782774772086748200,2.320748046875,-0.3193490505218506,-0.2613506317138672,-0.1541585922241211
1782774772096757800,2.3307578125,-0.3024418354034424,-0.25298023223876953,-0.18227607011795044
1782774772106767600,2.340767578125,-0.15082073211669922,-0.21019268035888672,-0.04151839017868042
1782774772116746800,2.350746826171875,-0.05578470230102539,-0.21208858489990234,0.07639044523239136
1782774772126756600,2.360756591796875,-0.03302764892578125,-0.23297595977783203,0.015202522277832031
1782774772136766500,2.370766357421875,-0.05314207077026367,-0.27559471130371094,-0.08580142259597778
1782774772146745600,2.38074560546875,-0.10433721542358398,-0.28957462310791016,-0.17647647857666016
1782774772156755500,2.39075537109375,-0.035901546478271484,-0.26044178009033203,-0.22623509168624878
1782774772166765300,2.400765380859375,0.11300086975097656,-0.14458560943603516,-0.09281212091445923
1782774772176744400,2.410744384765625,0.2113795280456543,-0.01653289794921875,0.005887269973754883
1782774772186754000,2.420754150390625,0.3081836700439453,0.11601638793945312,0.17558765411376953
1782774772196764000,2.430763916015625,0.2913074493408203,0.15703868865966797,0.23980975151062012
1782774772206773500,2.4407734375,0.12272977828979492,0.1373586654663086,0.18594050407409668
1782774772216753000,2.4507529296875,-0.08292818069458008,0.0498046875,-0.04930531978607178
1782774772226762800,2.4607626953125,-0.19522809982299805,-0.11690330505371094,-0.18953484296798706
1782774772236772400,2.4707724609375,-0.22914719581604004,-0.197113037109375,-0.1887519359588623
1782774772246751700,2.480751708984375,-0.19407081604003906,-0.2290811538696289,-0.04360473155975342
1782774772256761600,2.49076171875,-0.08505868911743164,-0.18175601959228516,0.10946923494338989
1782774772266771200,2.500771240234375,-0.21998810768127441,-0.23986434936523438,0.029954969882965088
1782774772276750600,2.51075048828125,-0.33208632469177246,-0.2315502166748047,0.010689914226531982
1782774772286760200,2.52076025390625,-0.42395663261413574,-0.23088455200195312,0.05827891826629639
1782774772296769800,2.530769775390625,-0.4412872791290283,-0.2207021713256836,0.054732441902160645
1782774772306749200,2.540749267578125,-0.3658945560455322,-0.2125558853149414,0.14388692378997803
1782774772316759000,2.550759033203125,-0.270613431930542,-0.1413259506225586,0.22254008054733276
1782774772326768600,2.5607685546875,-0.13628435134887695,-0.1412191390991211,0.14120018482208252
1782774772336748000,2.570748046875,-0.06569337844848633,-0.20041561126708984,0.04673182964324951
1782774772346758000,2.5807578125,-0.003440380096435547,-0.22328853607177734,-0.11124497652053833
1782774772356767500,2.590767578125,0.029827594757080078,-0.21737098693847656,-0.11780345439910889
1782774772366747000,2.600746826171875,0.08534955978393555,-0.1805734634399414,-0.01019352674484253
1782774772376756500,2.610756591796875,0.03175640106201172,-0.17286300659179688,-0.044888436794281006
1782774772386766300,2.620766357421875,-0.03502178192138672,-0.23511505126953125,-0.08681470155715942
1782774772396745500,2.630745361328125,-0.07683658599853516,-0.23075485229492188,-0.057233333587646484
1782774772406755300,2.64075537109375,-0.04870033264160156,-0.15952301025390625,0.009950876235961914
1782774772416765200,2.65076513671875,-0.0034055709838867188,-0.0740518569946289,0.16996842622756958
1782774772426744300,2.660744384765625,0.0800790786743164,-0.02201080322265625,0.25777822732925415
1782774772436754200,2.670754150390625,0.06744670867919922,-0.04893016815185547,0.09293591976165771
1782774772446763800,2.680763671875,-0.04806828498840332,-0.1383838653564453,-0.12431013584136963
1782774772456773600,2.690773681640625,-0.15824079513549805,-0.1995248794555664,-0.2751384377479553
1782774772466753000,2.7007529296875,-0.1370532512664795,-0.23899459838867188,-0.2988702058792114
1782774772476762600,2.7107626953125,-0.06498479843139648,-0.21044921875,-0.18794262409210205
1782774772486772500,2.7207724609375,0.032349348068237305,-0.20768356323242188,-0.14485782384872437
1782774772496751600,2.730751708984375,0.05068826675415039,-0.21442699432373047,-0.030695080757141113
1782774772506761500,2.740761474609375,0.05300140380859375,-0.11368370056152344,0.12096279859542847
1782774772516771000,2.75077099609375,0.006597995758056641,-0.0040416717529296875,0.20535749197006226
1782774772526750500,2.76075048828125,-0.10747098922729492,0.0113983154296875,0.14889883995056152
1782774772536760300,2.77076025390625,-0.23247551918029785,-0.09583187103271484,0.04802119731903076
1782774772546770000,2.78077001953125,-0.24080824851989746,-0.10711860656738281,-0.03730100393295288
1782774772556749300,2.790749267578125,-0.15565156936645508,-0.11983489990234375,-0.12203192710876465
1782774772566759200,2.80075927734375,-0.03674197196960449,-0.0980520248413086,-0.01781308650970459
1782774772576768800,2.810768798828125,0.08832764625549316,-0.08771038055419922,0.07608294486999512
1782774772586748000,2.820747802734375,0.13961005210876465,-0.10382843017578125,0.17642003297805786
1782774772596757800,2.8307578125,0.08920073509216309,-0.07978534698486328,0.19273638725280762
1782774772606767400,2.840767333984375,0.006983041763305664,-0.087677001953125,0.1281217336654663
1782774772616746800,2.850746826171875,-0.13379192352294922,-0.1537313461303711,-0.009424805641174316
1782774772626756600,2.860756591796875,-0.25475358963012695,-0.24891948699951172,-0.16735929250717163
1782774772636766200,2.87076611328125,-0.2728874683380127,-0.26739501953125,-0.15813666582107544
1782774772646745600,2.88074560546875,-0.20164036750793457,-0.2563133239746094,0.0031492114067077637
1782774772656755500,2.89075537109375,-0.11542344093322754,-0.20602035522460938,0.11060458421707153
1782774772666765300,2.900765380859375,-0.0687251091003418,-0.2174053192138672,0.1363195776939392
1782774772676744400,2.910744384765625,-0.09675121307373047,-0.27413368225097656,0.009640097618103027
1782774772686754000,2.920754150390625,-0.156036376953125,-0.3021888732910156,-0.163693368434906
1782774772696763600,2.930763671875,-0.14352846145629883,-0.24402141571044922,-0.15763700008392334
1782774772706773500,2.9407734375,0.04808998107910156,-0.20467090606689453,-0.08114016056060791
1782774772716753000,2.9507529296875,0.2222123146057129,-0.07627677917480469,0.15919989347457886
1782774772726762800,2.9607626953125,0.26245903968811035,-0.005354881286621094,0.17368704080581665
1782774772736772400,2.9707724609375,0.22886395454406738,0.019820213317871094,0.043059587478637695
1782774772746751700,2.980751708984375,0.14994287490844727,-0.03769969940185547,-0.018985390663146973
1782774772756761600,2.99076171875,0.04397082328796387,-0.02418994903564453,0.015211343765258789
1782774772766771200,3.000771240234375,-0.04863429069519043,-0.04240703582763672,0.018078505992889404
1782774772776750600,3.01075048828125,-0.11692547798156738,-0.058386802673339844,0.05915701389312744
1782774772786760200,3.02076025390625,-0.19976115226745605,-0.1054372787475586,0.04306572675704956
1782774772796769800,3.030769775390625,-0.2114715576171875,-0.1617717742919922,0.07508784532546997
1782774772806749200,3.040749267578125,-0.20984935760498047,-0.18887805938720703,0.11388915777206421
1782774772816759000,3.050759033203125,-0.18248295783996582,-0.23487377166748047,0.08566200733184814
1782774772826768600,3.0607685546875,-0.15511465072631836,-0.2545127868652344,0.11945509910583496
1782774772836748000,3.070748046875,-0.15651488304138184,-0.2932615280151367,0.10747981071472168
1782774772846758000,3.0807578125,-0.2171485424041748,-0.34427547454833984,0.0047116875648498535
1782774772856767700,3.090767822265625,-0.26740264892578125,-0.3764934539794922,-0.05254530906677246
1782774772866746600,3.10074658203125,-0.3364384174346924,-0.3657398223876953,-0.06235694885253906
1782774772876756500,3.110756591796875,-0.3399202823638916,-0.3121147155761719,0.043267786502838135
1782774772886766300,3.120766357421875,-0.3061351776123047,-0.2268218994140625,0.1432761549949646
1782774772896745500,3.130745361328125,-0.24077081680297852,-0.19328689575195312,0.12061446905136108
1782774772906755300,3.14075537109375,-0.0914309024810791,-0.15886211395263672,0.10611075162887573
1782774772916765200,3.15076513671875,0.10540628433227539,-0.1712360382080078,0.050057053565979004
1782774772926744300,3.160744384765625,0.2408766746520996,-0.15913963317871094,-0.07153141498565674
1782774772936754200,3.170754150390625,0.31911206245422363,-0.14476966857910156,-0.05638551712036133
1782774772946764000,3.180763916015625,0.2243061065673828,-0.14546966552734375,-0.05147439241409302
1782774772956773600,3.190773681640625,0.0889286994934082,-0.1472921371459961,-0.09687209129333496
1782774772966753000,3.2007529296875,-0.04457688331604004,-0.17868614196777344,-0.1469883918762207
1782774772976762600,3.2107626953125,-0.13958144187927246,-0.15747928619384766,-0.14220976829528809
1782774772986772500,3.2207724609375,-0.14936399459838867,-0.13106346130371094,-0.14926940202713013
1782774772996751600,3.230751708984375,-0.050510406494140625,-0.10398197174072266,-0.13714057207107544
1782774773006761500,3.240761474609375,0.049843549728393555,-0.07165908813476562,0.0013012886047363281
1782774773016771000,3.25077099609375,0.07842206954956055,-0.03454017639160156,-0.01377338171005249
1782774773026750500,3.26075048828125,0.03864550590515137,-0.07938003540039062,-0.0855334997177124
1782774773036760300,3.27076025390625,0.06154274940490723,-0.09815692901611328,-0.10135424137115479
1782774773046770000,3.28077001953125,0.06803464889526367,-0.033293724060058594,-0.01662999391555786
1782774773056749300,3.290749267578125,0.008270025253295898,-0.026221275329589844,0.03197979927062988
1782774773066759200,3.30075927734375,-0.13851118087768555,-0.048554420471191406,0.05638694763183594
1782774773076768800,3.310768798828125,-0.26511693000793457,-0.10730457305908203,-0.0216638445854187
1782774773086748200,3.320748046875,-0.2824418544769287,-0.17772483825683594,-0.1132468581199646
1782774773096757800,3.3307578125,-0.2775294780731201,-0.197174072265625,-0.139451801776886
1782774773106767600,3.340767578125,-0.11646342277526855,-0.19660091400146484,-0.03916817903518677
1782774773116746800,3.350746826171875,0.08369851112365723,-0.17123126983642578,0.09799414873123169
1782774773126756600,3.360756591796875,0.16904544830322266,-0.07636260986328125,0.281879186630249
1782774773136766500,3.370766357421875,0.11301016807556152,-0.07578086853027344,0.2922993302345276
1782774773146745600,3.38074560546875,-0.06674695014953613,-0.08145809173583984,0.18832075595855713
1782774773156755500,3.39075537109375,-0.28014302253723145,-0.16010189056396484,0.05932927131652832
1782774773166765300,3.400765380859375,-0.3688507080078125,-0.22938156127929688,-0.08025002479553223
1782774773176744400,3.410744384765625,-0.34162163734436035,-0.30525779724121094,-0.10936522483825684
1782774773186754000,3.420754150390625,-0.30657124519348145,-0.3395500183105469,-0.012635588645935059
1782774773196704300,3.430704345703125,-0.20115065574645996,-0.3610658645629883,0.044123828411102295
1782774773206834700,3.440834716796875,-0.09183955192565918,-0.2982749938964844,0.1356586217880249
1782774773216753000,3.4507529296875,-0.11920380592346191,-0.2185373306274414,0.20944112539291382
1782774773226762800,3.4607626953125,-0.1698894500732422,-0.2348775863647461,0.04892057180404663
1782774773236772400,3.4707724609375,-0.23438286781311035,-0.2515573501586914,-0.05556553602218628
1782774773246692000,3.480692138671875,-0.1730055809020996,-0.2271595001220703,-0.1161145567893982
1782774773256822500,3.490822509765625,-0.05413961410522461,-0.16818904876708984,-0.11200761795043945
1782774773266771200,3.500771240234375,0.06771206855773926,-0.1275014877319336,-0.043922364711761475
1782774773276690700,3.510690673828125,0.19138050079345703,-0.12241363525390625,0.030805528163909912
1782774773286821400,3.5208212890625,0.2719895839691162,-0.1532144546508789,-0.026497364044189453
1782774773296770000,3.53077001953125,0.2714204788208008,-0.19137859344482422,-0.07814407348632812
1782774773306749200,3.540749267578125,0.20429658889770508,-0.2058868408203125,-0.09792149066925049
1782774773316699400,3.550699462890625,0.05015134811401367,-0.1828327178955078,-0.13641446828842163
1782774773326829800,3.560829833984375,-0.09342050552368164,-0.16601848602294922,-0.04637199640274048
1782774773336748000,3.570748046875,-0.2516801357269287,-0.14760589599609375,0.05663067102432251
1782774773346698200,3.5806982421875,-0.4191124439239502,-0.13656234741210938,0.025642335414886475
1782774773357689000,3.591689208984375,-0.536900520324707,-0.11098289489746094,-0.016171693801879883
1782774773376756500,3.610756591796875,-0.36495423316955566,-0.15288543701171875,-0.13027530908584595
1782774773386766300,3.620766357421875,-0.06384420394897461,-0.14239025115966797,-0.14765429496765137
1782774773396745500,3.630745361328125,0.15229129791259766,-0.16864490509033203,-0.18112444877624512
1782774773406755300,3.64075537109375,0.25786399841308594,-0.1252756118774414,-0.22153639793395996
1782774773416765200,3.65076513671875,0.3293571472167969,-0.10189056396484375,-0.27140891551971436
1782774773426744300,3.660744384765625,0.30587053298950195,-0.03913116455078125,-0.0973549485206604
1782774773436754200,3.670754150390625,0.14998483657836914,0.06264305114746094,0.007930755615234375
1782774773446704400,3.680704345703125,-0.04983997344970703,0.08362579345703125,-0.021032273769378662
1782774773456834800,3.690834716796875,-0.15888738632202148,0.07004833221435547,0.010292410850524902
1782774773466753000,3.7007529296875,-0.22449827194213867,0.056281089782714844,0.008478343486785889
1782774773476762600,3.7107626953125,-0.27128005027770996,0.023408889770507812,-0.07850009202957153
1782774773486772500,3.7207724609375,-0.22337055206298828,-0.016256332397460938,-0.13326936960220337
1782774773496751600,3.730751708984375,-0.029716014862060547,-0.04034996032714844,-0.06573975086212158
1782774773506761500,3.740761474609375,0.07557106018066406,-0.056247711181640625,-0.010414540767669678
1782774773516771000,3.75077099609375,0.12859058380126953,-0.07951927185058594,-0.03162491321563721
1782774773526750500,3.76075048828125,0.08768272399902344,-0.11558723449707031,-0.01222538948059082
1782774773536760300,3.77076025390625,-0.008471965789794922,-0.14066314697265625,0.023609280586242676
1782774773546770000,3.78077001953125,-0.14143991470336914,-0.1807994842529297,-0.019371092319488525
1782774773556749300,3.790749267578125,-0.2544519901275635,-0.18782806396484375,-0.052224695682525635
1782774773566759200,3.80075927734375,-0.29814648628234863,-0.18280506134033203,-0.04228854179382324
1782774773576768800,3.810768798828125,-0.2920258045196533,-0.15354537963867188,0.033845722675323486
1782774773586748200,3.820748046875,-0.227158784866333,-0.1931438446044922,0.09006744623184204
1782774773596757800,3.8307578125,-0.2066793441772461,-0.21300601959228516,0.028979718685150146
1782774773606767600,3.840767578125,-0.18935346603393555,-0.22062110900878906,-0.062495648860931396
1782774773616746800,3.850746826171875,-0.16318464279174805,-0.2566642761230469,-0.09378588199615479
1782774773626756600,3.860756591796875,-0.10645437240600586,-0.25888538360595703,-0.05378538370132446
1782774773636766200,3.87076611328125,-0.035857200622558594,-0.20575523376464844,-0.0072342753410339355
1782774773646745600,3.88074560546875,-0.0011649131774902344,-0.17894840240478516,0.041529059410095215
1782774773656755500,3.89075537109375,-0.013948440551757812,-0.1882333755493164,-0.03426480293273926
1782774773666705400,3.900705322265625,0.00063323974609375,-0.1740713119506836,-0.011577486991882324
1782774773676776200,3.910776123046875,0.018329143524169922,-0.16978931427001953,-0.0705304741859436
1782774773686815200,3.920815185546875,0.010200977325439453,-0.11545372009277344,-0.009821891784667969
1782774773696763600,3.930763671875,-0.02398824691772461,-0.09236907958984375,0.03409862518310547
1782774773706773500,3.9407734375,-0.06119728088378906,-0.08336353302001953,0.05885356664657593
1782774773716753000,3.9507529296875,-0.0709238052368164,-0.09061622619628906,0.08431428670883179
1782774773726762800,3.9607626953125,-0.11790227890014648,-0.1978740692138672,0.012174665927886963
1782774773736772400,3.9707724609375,-0.1301283836364746,-0.32382774353027344,-0.17170077562332153
1782774773746692000,3.980692138671875,-0.08794069290161133,-0.4159412384033203,-0.2385568618774414
1782774773757723400,3.991723388671875,0.023109912872314453,-0.36405086517333984,-0.16755276918411255
1782774773776750300,4.010750244140625,0.10723447799682617,-0.1574077606201172,-0.01701730489730835
1782774773786760200,4.02076025390625,0.08663129806518555,-0.09442615509033203,0.04681277275085449
1782774773796769800,4.030769775390625,0.031136512756347656,-0.06065559387207031,0.024650931358337402
1782774773806689500,4.040689453125,0.045548439025878906,-0.10379600524902344,-0.06369256973266602
1782774773816820000,4.050820068359375,0.06479740142822266,-0.13503551483154297,-0.07725667953491211
1782774773826768600,4.0607685546875,0.029602527618408203,-0.15216541290283203,-0.06959652900695801
1782774773836748000,4.070748046875,-0.10472917556762695,-0.1866893768310547,-0.09316515922546387
1782774773846758000,4.0807578125,-0.23316669464111328,-0.17621994018554688,-0.05452930927276611
1782774773856767700,4.090767822265625,-0.3359348773956299,-0.14148998260498047,-0.0615389347076416
1782774773866747000,4.100746826171875,-0.3589179515838623,-0.16113853454589844,-0.03452855348587036
1782774773876756500,4.110756591796875,-0.32849860191345215,-0.1561136245727539,-0.028822660446166992
1782774773886766300,4.120766357421875,-0.23217105865478516,-0.1721038818359375,-0.02333509922027588
1782774773896745500,4.130745361328125,-0.084259033203125,-0.19234657287597656,-0.03987538814544678
1782774773906755300,4.14075537109375,0.015336990356445312,-0.17885208129882812,-0.030277490615844727
1782774773916765200,4.15076513671875,0.11281490325927734,-0.1175832748413086,-0.006524860858917236
1782774773926744300,4.160744384765625,0.16843318939208984,-0.05210113525390625,0.012623310089111328
1782774773936694500,4.170694580078125,0.09662055969238281,-0.054520606994628906,0.010452091693878174
1782774773946825000,4.180824951171875,0.009641170501708984,-0.052931785583496094,-0.0964462161064148
1782774773957714400,4.19171435546875,-0.12342214584350586,-0.08095359802246094,-0.18592017889022827
1782774773976763000,4.210762939453125,-0.11710882186889648,0.0275421142578125,-0.012619078159332275
1782774773986772500,4.2207724609375,-0.15389537811279297,0.057010650634765625,0.12016826868057251
1782774773996751600,4.230751708984375,-0.1317133903503418,0.02701091766357422,0.18608540296554565
1782774774006761500,4.240761474609375,-0.12242650985717773,0.04766082763671875,0.22138911485671997
1782774774016771000,4.25077099609375,-0.17579936981201172,0.0013914108276367188,0.14972835779190063
1782774774026750500,4.26075048828125,-0.21683454513549805,-0.13370704650878906,0.04302418231964111
1782774774036760300,4.27076025390625,-0.23807644844055176,-0.2475728988647461,-0.01788175106048584
1782774774046770000,4.28077001953125,-0.19016218185424805,-0.30864429473876953,-0.06200379133224487
1782774774056749300,4.290749267578125,-0.12577486038208008,-0.2905693054199219,-0.09423685073852539
1782774774066759200,4.30075927734375,-0.1016092300415039,-0.2295541763305664,-0.01939678192138672
1782774774076768800,4.310768798828125,-0.09840011596679688,-0.21179580688476562,0.03274071216583252
1782774774086748000,4.320747802734375,-0.0895528793334961,-0.15126419067382812,0.10576450824737549
1782774774096757800,4.3307578125,-0.14453816413879395,-0.0838632583618164,0.19263094663619995
1782774774106767400,4.340767333984375,-0.24904203414916992,-0.05029106140136719,0.18581688404083252
1782774774116746800,4.350746826171875,-0.33840155601501465,-0.1200571060180664,0.09090924263000488
1782774774126756600,4.360756591796875,-0.308788537979126,-0.19913959503173828,0.044705867767333984
1782774774136766200,4.37076611328125,-0.221665620803833,-0.23653030395507812,0.013530611991882324
1782774774146745600,4.38074560546875,-0.13767766952514648,-0.26064491271972656,-0.11238092184066772
1782774774156755500,4.39075537109375,0.005966663360595703,-0.29326629638671875,-0.1607210636138916
1782774774166765300,4.400765380859375,0.2003617286682129,-0.3130378723144531,-0.12311655282974243
1782774774176744400,4.410744384765625,0.3273458480834961,-0.24395179748535156,-0.026781737804412842
1782774774186754000,4.420754150390625,0.36199498176574707,-0.1968069076538086,0.025677025318145752
1782774774196763600,4.430763671875,0.2783491611480713,-0.18863773345947266,-0.014837205410003662
1782774774206773500,4.4407734375,0.11772775650024414,-0.22693920135498047,-0.10003846883773804
1782774774216753000,4.4507529296875,-0.047678232192993164,-0.23284912109375,-0.1415361762046814
1782774774226703000,4.460703125,-0.20674991607666016,-0.24665164947509766,-0.22592443227767944
1782774774236895700,4.470895751953125,-0.25332140922546387,-0.231689453125,-0.193220853805542
1782774774246843400,4.480843505859375,-0.22509431838989258,-0.2254343032836914,-0.10128843784332275
1782774774256761600,4.49076171875,-0.18036723136901855,-0.2563457489013672,-0.10226291418075562
1782774774266771200,4.500771240234375,-0.14965534210205078,-0.3151588439941406,-0.19082868099212646
1782774774276750600,4.51075048828125,-0.11063766479492188,-0.37354373931884766,-0.3951015770435333
1782774774286760200,4.52076025390625,-0.04105877876281738,-0.3455953598022461,-0.44725021719932556
1782774774296769800,4.530769775390625,0.10881519317626953,-0.3003425598144531,-0.3610183298587799
1782774774306689500,4.540689453125,0.25789594650268555,-0.15399551391601562,-0.13553893566131592
1782774774317665300,4.551665283203125,0.3204007148742676,0.03099346160888672,0.04982036352157593
1782774774336748000,4.570748046875,0.3195343017578125,0.15211200714111328,0.21303808689117432
1782774774346758000,4.5807578125,0.23883056640625,0.12174320220947266,0.14133012294769287
1782774774356767500,4.590767578125,0.1594991683959961,0.0642547607421875,0.026010513305664062
1782774774366747000,4.600746826171875,0.02419567108154297,0.013178825378417969,0.03633737564086914
1782774774376756500,4.610756591796875,-0.18111753463745117,-0.053086280822753906,0.025194644927978516
1782774774386766300,4.620766357421875,-0.3203470706939697,-0.11040306091308594,0.061699867248535156
1782774774396745700,4.630745849609375,-0.45464110374450684,-0.16293048858642578,0.08550548553466797
1782774774406755300,4.64075537109375,-0.49341869354248047,-0.16019630432128906,0.1538618803024292
1782774774416765200,4.65076513671875,-0.4482705593109131,-0.15735435485839844,0.2370794415473938
1782774774426684700,4.6606845703125,-0.4341306686401367,-0.18554210662841797,0.2395610213279724
1782774774437776000,4.67177587890625,-0.35739779472351074,-0.19225406646728516,0.17646163702011108
1782774774456773600,4.690773681640625,-0.2829608917236328,-0.3018455505371094,0.06662440299987793
1782774774466693000,4.700693115234375,-0.2298729419708252,-0.25885009765625,-0.006184637546539307
1782774774476823600,4.710823486328125,-0.10669159889221191,-0.20070457458496094,0.054938673973083496
1782774774486772500,4.7207724609375,-0.011638164520263672,-0.18959808349609375,0.07726502418518066
1782774774496692000,4.73069189453125,-0.01244664192199707,-0.21195125579833984,0.05392402410507202
1782774774506822400,4.740822509765625,0.011272668838500977,-0.2154245376586914,-0.014760792255401611
1782774774516771000,4.75077099609375,0.0020036697387695312,-0.2598905563354492,-0.08760011196136475
1782774774526750500,4.76075048828125,0.0438532829284668,-0.2664060592651367,-0.08165758848190308
1782774774536760300,4.77076025390625,0.03657674789428711,-0.25182247161865234,-0.062126755714416504
1782774774546710300,4.780710205078125,-0.043213844299316406,-0.19003009796142578,-0.02448272705078125
1782774774557570600,4.791570556640625,-0.16204118728637695,-0.1432933807373047,0.048470258712768555
1782774774576768800,4.810768798828125,-0.32167816162109375,-0.06718063354492188,0.07206082344055176
1782774774586748200,4.820748046875,-0.28751611709594727,-0.03714561462402344,0.04269516468048096
1782774774596757800,4.8307578125,-0.15573406219482422,-0.027380943298339844,0.037704288959503174
1782774774606707700,4.840707763671875,0.012270450592041016,-0.031104087829589844,0.0045923590660095215
1782774774616838400,4.85083837890625,0.11689972877502441,-0.03436851501464844,0.019865989685058594
1782774774626756600,4.860756591796875,0.14976024627685547,-0.08079051971435547,-0.029085814952850342
1782774774636766500,4.870766357421875,0.056845903396606445,-0.10377216339111328,-0.058863937854766846
1782774774646745600,4.88074560546875,-0.005806922912597656,-0.18729496002197266,-0.1245502233505249
1782774774656755500,4.89075537109375,0.020946502685546875,-0.20649337768554688,-0.05908697843551636
1782774774666765300,4.900765380859375,-0.002103090286254883,-0.19472122192382812,0.005731344223022461
1782774774676744400,4.910744384765625,0.016091585159301758,-0.1281270980834961,0.0466388463973999
1782774774686694400,4.9206943359375,-0.06516766548156738,-0.07638168334960938,0.12095117568969727
1782774774696824800,4.930824951171875,-0.20958971977233887,-0.04207420349121094,0.13323736190795898
1782774774706773500,4.9407734375,-0.2674100399017334,-0.07984256744384766,0.045676231384277344
1782774774716753000,4.9507529296875,-0.23823785781860352,-0.1481170654296875,0.002270817756652832
1782774774726762800,4.9607626953125,-0.13304996490478516,-0.1888408660888672,-0.13318073749542236
1782774774736772400,4.9707724609375,-0.051665306091308594,-0.22859954833984375,-0.16044467687606812
1782774774746751700,4.980751708984375,-0.01859307289123535,-0.27770519256591797,-0.18813180923461914
1782774774756761600,4.99076171875,0.09128117561340332,-0.27894115447998047,-0.125565767288208
1782774774766771200,5.000771240234375,0.13664579391479492,-0.23229122161865234,-0.025386810302734375
1782774774776750600,5.01075048828125,0.10574483871459961,-0.21452903747558594,-0.047282874584198
1782774774786700500,5.020700439453125,0.02127861976623535,-0.16876888275146484,-0.032592833042144775
1782774774796831000,5.0308310546875,-0.0970163345336914,-0.1598491668701172,-0.09219098091125488
1782774774806689500,5.040689453125,-0.20684051513671875,-0.225738525390625,-0.18994617462158203
1782774774816820000,5.050820068359375,-0.26149463653564453,-0.1935873031616211,-0.25813597440719604
1782774774826768600,5.0607685546875,-0.2000420093536377,-0.1537466049194336,-0.2493564486503601
1782774774836688400,5.0706884765625,-0.02842092514038086,-0.06255531311035156,-0.15933281183242798
1782774774846759200,5.08075927734375,0.1287844181060791,-0.0012922286987304688,-0.01780182123184204
1782774774856828700,5.09082861328125,0.2201695442199707,0.031823158264160156,0.02974611520767212
1782774774866747000,5.100746826171875,0.26665234565734863,0.045501708984375,0.07037585973739624
1782774774876756500,5.110756591796875,0.20696735382080078,0.06086444854736328,0.13260942697525024
1782774774886766300,5.120766357421875,0.06591343879699707,0.008028984069824219,0.07354861497879028
1782774774896745700,5.130745849609375,-0.11816787719726562,-0.11063385009765625,-0.010968983173370361
1782774774906755300,5.14075537109375,-0.1956796646118164,-0.13651466369628906,-0.0016205906867980957
1782774774916765200,5.15076513671875,-0.22800302505493164,-0.10479545593261719,0.0460357666015625
1782774774926744300,5.160744384765625,-0.17756080627441406,-0.14204692840576172,0.04820215702056885
1782774774936754200,5.170754150390625,-0.10688591003417969,-0.17393112182617188,0.06962913274765015
1782774774946704400,5.180704345703125,-0.06840085983276367,-0.18857860565185547,0.05993753671646118
1782774774957724700,5.191724609375,-0.058661699295043945,-0.19601917266845703,0.08359509706497192
1782774774976763000,5.210762939453125,-0.1823577880859375,-0.2933988571166992,0.05216372013092041
1782774774986772500,5.2207724609375,-0.28983497619628906,-0.3449592590332031,-0.030543982982635498
1782774774996751600,5.230751708984375,-0.2733774185180664,-0.28136444091796875,-0.03400391340255737
1782774775006761500,5.240761474609375,-0.1313924789428711,-0.2338714599609375,0.017038345336914062
1782774775016771000,5.25077099609375,-0.0396428108215332,-0.2642555236816406,0.09104281663894653
1782774775026750500,5.26075048828125,0.027286291122436523,-0.19609832763671875,0.10777086019515991
1782774775036760300,5.27076025390625,0.11109018325805664,-0.13756752014160156,0.0574374794960022
1782774775046770000,5.28077001953125,0.08357763290405273,-0.19207286834716797,0.07139462232589722
1782774775056749300,5.290749267578125,0.005143642425537109,-0.25212955474853516,0.003712296485900879
1782774775066759200,5.30075927734375,-0.1223444938659668,-0.2289724349975586,-0.1090051531791687
1782774775076768800,5.310768798828125,-0.15373587608337402,-0.1843852996826172,-0.05204641819000244
1782774775086748000,5.320747802734375,-0.12120699882507324,-0.14660263061523438,0.044972896575927734
1782774775096757800,5.3307578125,-0.07521414756774902,-0.07248115539550781,0.09622639417648315
1782774775106767600,5.340767578125,-0.020835399627685547,-0.05531883239746094,0.10948771238327026
1782774775116746800,5.350746826171875,0.08524632453918457,-0.059357643127441406,0.06627476215362549
1782774775126756600,5.360756591796875,0.12610769271850586,-0.05607318878173828,-0.02348458766937256
1782774775136766500,5.370766357421875,0.15317130088806152,-0.03153705596923828,-0.06728905439376831
1782774775146745600,5.38074560546875,0.08627724647521973,-0.03652667999267578,-0.03462827205657959
1782774775156755500,5.39075537109375,-0.047821998596191406,-0.013736724853515625,0.05742305517196655
1782774775166765300,5.400765380859375,-0.17569637298583984,-0.041881561279296875,0.0347408652305603
1782774775176744400,5.410744384765625,-0.25815415382385254,-0.046105384826660156,0.02469182014465332
1782774775186754000,5.420754150390625,-0.24596333503723145,-0.09777259826660156,-0.023014724254608154
1782774775196764000,5.430763916015625,-0.19191288948059082,-0.19200420379638672,-0.06569540500640869
1782774775206773500,5.4407734375,-0.12952613830566406,-0.2114553451538086,-0.022294282913208008
1782774775216753000,5.4507529296875,-0.07047367095947266,-0.21612071990966797,-0.031575143337249756
1782774775226762800,5.4607626953125,0.004633665084838867,-0.23246288299560547,0.019234299659729004
1782774775236772400,5.4707724609375,-0.04464101791381836,-0.24401092529296875,0.03348284959793091
1782774775246751700,5.480751708984375,-0.18794822692871094,-0.26828765869140625,-0.06256580352783203
1782774775256761600,5.49076171875,-0.2104334831237793,-0.3050060272216797,-0.12058043479919434
1782774775266771200,5.500771240234375,-0.1950974464416504,-0.2983570098876953,-0.13854962587356567
1782774775276750600,5.51075048828125,-0.11149191856384277,-0.2863445281982422,-0.10451102256774902
1782774775286760200,5.52076025390625,0.009312152862548828,-0.27135372161865234,-0.05478411912918091
1782774775296769800,5.530769775390625,0.024488210678100586,-0.23463058471679688,0.030176997184753418
1782774775306689500,5.540689453125,0.03272080421447754,-0.16446304321289062,0.17700529098510742
1782774775316850400,5.550850341796875,-0.07087182998657227,-0.1855630874633789,0.15116626024246216
1782774775326768600,5.5607685546875,-0.19709348678588867,-0.27434539794921875,-0.017606496810913086
1782774775336748000,5.570748046875,-0.22450590133666992,-0.28687572479248047,-0.13764256238937378
1782774775346758000,5.5807578125,-0.15928912162780762,-0.2847108840942383,-0.22173196077346802
1782774775356767500,5.590767578125,-0.11452126502990723,-0.21488571166992188,-0.2105778455734253
1782774775366747000,5.600746826171875,-0.04440498352050781,-0.1564922332763672,-0.0952674150466919
1782774775376756500,5.610756591796875,0.03181719779968262,-0.10709381103515625,0.009322822093963623
1782774775386766300,5.620766357421875,0.06676697731018066,-0.06937408447265625,0.06322729587554932
1782774775396745700,5.630745849609375,0.0870354175567627,-0.02675628662109375,0.1462448239326477
1782774775406755300,5.64075537109375,0.11228466033935547,0.044432640075683594,0.1678926944732666
1782774775416765200,5.65076513671875,0.07591080665588379,-0.03075885772705078,0.1710222363471985
1782774775426744300,5.660744384765625,0.00010919570922851562,-0.14493465423583984,-0.02333158254623413
1782774775436754200,5.670754150390625,-0.0025086402893066406,-0.20003318786621094,-0.1487554907798767
1782774775446763800,5.680763671875,-0.047512054443359375,-0.21950435638427734,-0.1715320348739624
1782774775456773600,5.690773681640625,-0.13137483596801758,-0.2037801742553711,-0.14049696922302246
1782774775466753000,5.7007529296875,-0.2685270309448242,-0.2318096160888672,-0.0702972412109375
1782774775476763000,5.710762939453125,-0.29787468910217285,-0.1328449249267578,0.08945697546005249
1782774775486772500,5.7207724609375,-0.30217599868774414,-0.05480194091796875,0.20316970348358154
1782774775496751600,5.730751708984375,-0.27861571311950684,-0.012322425842285156,0.20480352640151978
1782774775506761500,5.740761474609375,-0.24882745742797852,-0.07007694244384766,0.06394040584564209
1782774775516771000,5.75077099609375,-0.1680893898010254,-0.12958526611328125,-0.051523566246032715
1782774775526750500,5.76075048828125,-0.046106815338134766,-0.16922569274902344,-0.15141862630844116
1782774775536760300,5.77076025390625,0.06554841995239258,-0.15822124481201172,-0.14629793167114258
1782774775546770000,5.78077001953125,0.1345815658569336,-0.1401386260986328,-0.0801323652267456
1782774775556749300,5.790749267578125,0.17174196243286133,-0.15624332427978516,-0.04339265823364258
1782774775566759200,5.80075927734375,0.10518026351928711,-0.17065906524658203,-0.014082074165344238
1782774775576768800,5.810768798828125,-0.021890878677368164,-0.1164398193359375,-0.03721165657043457
1782774775586688300,5.820688232421875,-0.06420278549194336,-0.10339641571044922,-0.03109872341156006
1782774775596820000,5.830820068359375,-0.07767271995544434,-0.06403541564941406,0.06804841756820679
1782774775606787300,5.840787353515625,-0.06517267227172852,-0.053256988525390625,0.03332406282424927
1782774775616777200,5.850777099609375,-0.06511855125427246,-0.0567169189453125,-0.010029971599578857
1782774775626756600,5.860756591796875,-0.12548279762268066,-0.124603271484375,-0.08412951231002808
1782774775636766500,5.870766357421875,-0.14293742179870605,-0.18046283721923828,-0.12202107906341553
1782774775646745600,5.88074560546875,-0.11296296119689941,-0.19297409057617188,-0.08384352922439575
1782774775656755500,5.89075537109375,-0.0670163631439209,-0.14041805267333984,0.04448115825653076
1782774775666765300,5.900765380859375,-0.014501810073852539,-0.09714603424072266,0.09119653701782227
1782774775676744400,5.910744384765625,0.006940603256225586,-0.11378955841064453,0.06409251689910889
1782774775686754000,5.920754150390625,0.009393453598022461,-0.1545114517211914,-0.022147536277770996
1782774775696764000,5.930763916015625,0.0458834171295166,-0.15482234954833984,-0.028749406337738037
1782774775706773500,5.9407734375,0.05654716491699219,-0.121795654296875,0.03600144386291504
1782774775716753000,5.9507529296875,-0.07242727279663086,-0.1277475357055664,0.05952709913253784
1782774775726762800,5.9607626953125,-0.1665816307067871,-0.1893758773803711,-0.08178120851516724
1782774775736772400,5.9707724609375,-0.2223808765411377,-0.2174997329711914,-0.02199798822402954
1782774775746751700,5.980751708984375,-0.2530245780944824,-0.21634292602539062,-0.03196340799331665
1782774775756761600,5.99076171875,-0.1388864517211914,-0.2385578155517578,-0.04442852735519409
1782774775766771200,6.000771240234375,-0.04505777359008789,-0.2171163558959961,0.08622270822525024
1782774775776750600,6.01075048828125,0.03130459785461426,-0.20011138916015625,0.08233463764190674
1782774775786760200,6.02076025390625,0.021686792373657227,-0.1832275390625,0.014124095439910889
1782774775796769800,6.030769775390625,-0.049723148345947266,-0.2264385223388672,-0.05366283655166626
1782774775806749200,6.040749267578125,-0.10843992233276367,-0.1838235855102539,-0.029966354370117188
1782774775816759000,6.050759033203125,-0.09048986434936523,-0.17470741271972656,0.007623612880706787
1782774775826768600,6.0607685546875,-0.02290034294128418,-0.1628580093383789,0.07334160804748535
1782774775836748000,6.070748046875,0.026348114013671875,-0.12874317169189453,0.13403010368347168
1782774775846758000,6.0807578125,-0.0185086727142334,-0.21408462524414062,0.008753836154937744
1782774775856767700,6.090767822265625,-0.07720589637756348,-0.3237590789794922,-0.196172297000885
1782774775866747000,6.100746826171875,-0.12785005569458008,-0.40994930267333984,-0.3213188648223877
1782774775876756500,6.110756591796875,-0.12358736991882324,-0.3452014923095703,-0.2840087413787842
1782774775886706700,6.120706787109375,-0.1048898696899414,-0.2419881820678711,-0.10271352529525757
1782774775896837000,6.130837158203125,-0.12122011184692383,-0.16524791717529297,0.025524616241455078
1782774775906695700,6.14069580078125,-0.13487768173217773,-0.1316547393798828,0.11708050966262817
1782774775916856600,6.150856689453125,-0.09936690330505371,-0.047367095947265625,0.1496114730834961
1782774775926684700,6.1606845703125,-0.0028183460235595703,0.049304962158203125,0.15475046634674072
1782774775936786000,6.170785888671875,0.04547715187072754,0.045493125915527344,0.1608525514602661
1782774775946825000,6.180824951171875,0.0942237377166748,0.00312042236328125,0.12924528121948242
1782774775956773600,6.190773681640625,0.031443119049072266,-0.0781106948852539,-0.0017557740211486816
1782774775966753000,6.2007529296875,-0.04956245422363281,-0.1814289093017578,-0.21756798028945923
1782774775976763000,6.210762939453125,-0.11091423034667969,-0.23709964752197266,-0.24885332584381104
1782774775986772500,6.2207724609375,-0.16944599151611328,-0.2521543502807617,-0.17350858449935913
1782774775996751600,6.230751708984375,-0.26351118087768555,-0.22174739837646484,-0.0134735107421875
1782774776006761500,6.240761474609375,-0.2499561309814453,-0.10976409912109375,0.18355131149291992
1782774776016771000,6.25077099609375,-0.21770167350769043,-0.011857986450195312,0.34612351655960083
1782774776026750500,6.26075048828125,-0.18137335777282715,-0.03339672088623047,0.2482699751853943
1782774776036760300,6.27076025390625,-0.15797853469848633,-0.10496997833251953,0.09972292184829712
1782774776046770000,6.28077001953125,-0.11190438270568848,-0.1737957000732422,-0.07058411836624146
1782774776056749300,6.290749267578125,0.00952291488647461,-0.23975372314453125,-0.19444501399993896
1782774776066699300,6.30069921875,0.14992332458496094,-0.2768363952636719,-0.13944095373153687
1782774776076830000,6.310829833984375,0.1953587532043457,-0.16089153289794922,0.03600960969924927
1782774776086748200,6.320748046875,0.13449811935424805,-0.1149139404296875,0.05470496416091919
1782774776096757800,6.3307578125,-0.003220081329345703,-0.15367984771728516,0.06135505437850952
1782774776106767600,6.340767578125,-0.15340495109558105,-0.15256690979003906,0.10372698307037354
1782774776116746800,6.350746826171875,-0.31932902336120605,-0.1495227813720703,0.11270630359649658
1782774776126756600,6.360756591796875,-0.41803526878356934,-0.1680889129638672,0.11910563707351685
1782774776136766500,6.370766357421875,-0.4617173671722412,-0.14828777313232422,0.1347132921218872
1782774776146745600,6.38074560546875,-0.42758917808532715,-0.18544769287109375,0.026123762130737305
1782774776156755500,6.39075537109375,-0.29582905769348145,-0.2573680877685547,-0.06661152839660645
1782774776166765300,6.400765380859375,-0.14351248741149902,-0.27039051055908203,-0.13001114130020142
1782774776176744400,6.410744384765625,0.004078865051269531,-0.2800159454345703,-0.1547795534133911
1782774776186754000,6.420754150390625,0.12225151062011719,-0.22223377227783203,-0.08443325757980347
1782774776196704300,6.430704345703125,0.20302605628967285,-0.15514564514160156,0.034804344177246094
1782774776206834700,6.440834716796875,0.22352004051208496,-0.09844684600830078,0.0911630392074585
1782774776216753000,6.4507529296875,0.11250638961791992,-0.033294677734375,0.12340342998504639
1782774776226762800,6.4607626953125,-0.12244796752929688,0.011347770690917969,0.01729029417037964
1782774776236772400,6.4707724609375,-0.23810529708862305,-0.00002384185791015625,-0.04978311061859131
1782774776246751700,6.480751708984375,-0.2580525875091553,-0.011415481567382812,-0.05169117450714111
1782774776256761600,6.49076171875,-0.19812941551208496,-0.046097755432128906,-0.12273722887039185
1782774776266802000,6.500802001953125,-0.10724043846130371,-0.053371429443359375,-0.0830114483833313
1782774776276750300,6.510750244140625,0.018810510635375977,-0.07126235961914062,-0.13862669467926025
1782774776286700500,6.520700439453125,0.21022820472717285,-0.0860280990600586,-0.04088759422302246
1782774776296831000,6.5308310546875,0.25759339332580566,-0.09343147277832031,0.0018234848976135254
1782774776306749200,6.540749267578125,0.22048568725585938,-0.10645198822021484,-0.06487464904785156
1782774776316759000,6.550759033203125,0.16917777061462402,-0.07989978790283203,-0.05983912944793701
1782774776326768600,6.5607685546875,0.0892481803894043,-0.09273147583007812,-0.04801762104034424
1782774776336688400,6.5706884765625,-0.012628316879272461,-0.11838054656982422,-0.007894277572631836
1782774776346818800,6.58081884765625,-0.09901833534240723,-0.13014507293701172,-0.008617043495178223
1782774776356767700,6.590767822265625,-0.24036359786987305,-0.15876102447509766,-0.04714655876159668
1782774776366747000,6.600746826171875,-0.21069645881652832,-0.1724071502685547,-0.004230499267578125
1782774776376756500,6.610756591796875,-0.16846370697021484,-0.20917415618896484,0.01930135488510132
1782774776386706700,6.620706787109375,-0.1490638256072998,-0.30999755859375,-0.02204275131225586
1782774776396867600,6.63086767578125,-0.20205235481262207,-0.3698539733886719,-0.10187911987304688
1782774776406755300,6.64075537109375,-0.24774956703186035,-0.3411378860473633,-0.12463057041168213
1782774776416765200,6.65076513671875,-0.21946310997009277,-0.30982208251953125,-0.06232273578643799
1782774776426744300,6.660744384765625,-0.1417832374572754,-0.23729801177978516,0.08488702774047852
1782774776436754200,6.670754150390625,-0.05055713653564453,-0.19067859649658203,0.15950727462768555
1782774776446763800,6.680763671875,0.019144535064697266,-0.12970638275146484,0.19106531143188477
1782774776456773600,6.690773681640625,0.05520892143249512,-0.12620067596435547,0.09637641906738281
1782774776466753000,6.7007529296875,0.14872503280639648,-0.17064857482910156,0.03364706039428711
1782774776476763000,6.710762939453125,0.18427467346191406,-0.14541149139404297,0.023306310176849365
1782774776486772500,6.7207724609375,0.12827730178833008,-0.1473398208618164,-0.0012269020080566406
1782774776496751900,6.730751953125,0.03135824203491211,-0.1406259536743164,0.014612317085266113
1782774776506761500,6.740761474609375,-0.12769055366516113,-0.13974952697753906,0.027320444583892822
1782774776516771000,6.75077099609375,-0.3210630416870117,-0.1874246597290039,0.0037491321563720703
1782774776526750500,6.76075048828125,-0.3979201316833496,-0.2227935791015625,-0.021983206272125244
1782774776536760300,6.77076025390625,-0.2424781322479248,-0.13260555267333984,0.09328019618988037
1782774776546770000,6.78077001953125,-0.10922932624816895,-0.12476062774658203,0.21211957931518555
1782774776556749300,6.790749267578125,-0.023331165313720703,-0.14722251892089844,0.17781108617782593
1782774776566759200,6.80075927734375,0.02614593505859375,-0.19111347198486328,0.07766348123550415
1782774776576768800,6.810768798828125,0.018398046493530273,-0.25917720794677734,-0.09294933080673218
1782774776586748000,6.820747802734375,0.002134084701538086,-0.3301658630371094,-0.24374264478683472
1782774776596757800,6.8307578125,0.05141282081604004,-0.2985105514526367,-0.15850883722305298
1782774776606767600,6.840767578125,0.06081557273864746,-0.2143535614013672,-0.010717391967773438
1782774776616746800,6.850746826171875,0.04249143600463867,-0.15686893463134766,0.02815115451812744
1782774776626756600,6.860756591796875,-0.01611495018005371,-0.11869430541992188,0.11700654029846191
1782774776636766500,6.870766357421875,-0.09615969657897949,-0.14285945892333984,0.08664530515670776
1782774776646745600,6.88074560546875,-0.15717101097106934,-0.17664623260498047,0.00463557243347168
1782774776656755500,6.89075537109375,-0.17790722846984863,-0.1839427947998047,0.026006877422332764
1782774776666765300,6.900765380859375,-0.132002592086792,-0.18384742736816406,0.06852132081985474
1782774776676744400,6.910744384765625,-0.08401989936828613,-0.18836212158203125,0.01971811056137085
1782774776686694400,6.9206943359375,-0.055387020111083984,-0.18323040008544922,0.009392797946929932
1782774776696824800,6.930824951171875,-0.012453079223632812,-0.19488525390625,-0.10568523406982422
1782774776706713900,6.9407138671875,-0.029105663299560547,-0.22819805145263672,-0.12748217582702637
1782774776716844300,6.95084423828125,-0.14292693138122559,-0.23316192626953125,-0.12832534313201904
1782774776726762800,6.9607626953125,-0.20814108848571777,-0.14261341094970703,-0.06277686357498169
1782774776736772400,6.9707724609375,-0.22298455238342285,-0.04959297180175781,0.1332477331161499
1782774776746751700,6.980751708984375,-0.24278497695922852,0.000492095947265625,0.19437795877456665
1782774776756761600,6.99076171875,-0.2792985439300537,-0.04526805877685547,0.1316012740135193
1782774776766771200,7.000771240234375,-0.29667091369628906,-0.06243419647216797,0.027211129665374756
1782774776776750300,7.010750244140625,-0.19555950164794922,-0.019346237182617188,-0.0996696949005127
1782774776786760200,7.02076025390625,0.00838017463684082,-0.015901565551757812,-0.07516801357269287
1782774776796769800,7.030769775390625,0.2079029083251953,-0.018700599670410156,0.02072352170944214
1782774776806749200,7.040749267578125,0.33123064041137695,-0.004932403564453125,-0.026934146881103516
1782774776816759000,7.050759033203125,0.24835681915283203,-0.07116127014160156,-0.05483454465866089
1782774776826768600,7.0607685546875,0.12515568733215332,-0.09079647064208984,-0.09407252073287964
1782774776836748000,7.070748046875,-0.036241769790649414,-0.07564163208007812,-0.11881363391876221
1782774776846758000,7.0807578125,-0.190901517868042,-0.12592029571533203,-0.05326366424560547
1782774776856767500,7.090767578125,-0.34232497215270996,-0.13579463958740234,0.014005005359649658
1782774776866747000,7.100746826171875,-0.42232775688171387,-0.10001468658447266,0.05752354860305786
1782774776876756500,7.110756591796875,-0.412550687789917,-0.04456615447998047,0.10119694471359253
1782774776886766300,7.120766357421875,-0.3302135467529297,-0.03872203826904297,0.11434215307235718
1782774776896745700,7.130745849609375,-0.21436595916748047,-0.12294578552246094,0.02834463119506836
1782774776906755300,7.14075537109375,-0.0827646255493164,-0.2465658187866211,-0.1683131456375122
1782774776916765200,7.15076513671875,0.14649105072021484,-0.27086639404296875,-0.23209244012832642
1782774776926684700,7.1606845703125,0.24142861366271973,-0.280609130859375,-0.18177908658981323
1782774776936845600,7.170845458984375,0.18059301376342773,-0.2457294464111328,-0.14221906661987305
1782774776946764000,7.180763916015625,0.025249481201171875,-0.19564151763916016,-0.17746305465698242
1782774776956773600,7.190773681640625,-0.04357099533081055,-0.17061901092529297,-0.1033586859703064
1782774776966753000,7.2007529296875,-0.09481334686279297,-0.15546226501464844,-0.06824076175689697
1782774776976763000,7.210762939453125,-0.12251996994018555,-0.08505725860595703,-0.0475153923034668
1782774776986772500,7.2207724609375,-0.04805254936218262,-0.04543876647949219,0.04745525121688843
1782774776996751600,7.230751708984375,0.056212425231933594,0.011522293090820312,0.12090790271759033
1782774777006701800,7.240701904296875,0.14002227783203125,-0.043560028076171875,0.12339162826538086
1782774777016832300,7.250832275390625,0.06297039985656738,-0.146453857421875,0.0529102087020874
1782774777026750500,7.26075048828125,-0.08500480651855469,-0.19962310791015625,-0.11654394865036011
1782774777036760300,7.27076025390625,-0.17920947074890137,-0.2677164077758789,-0.17751926183700562
1782774777046770000,7.28077001953125,-0.2108747959136963,-0.2927694320678711,-0.1170690655708313
1782774777056749300,7.290749267578125,-0.13784432411193848,-0.27193546295166016,-0.014645576477050781
1782774777066759200,7.30075927734375,-0.03956007957458496,-0.2936363220214844,0.01988697052001953
1782774777076768800,7.310768798828125,-0.02121877670288086,-0.26466846466064453,0.016273319721221924
1782774777086748000,7.320747802734375,0.02530074119567871,-0.2737865447998047,-0.04455602169036865
1782774777096757800,7.3307578125,0.06718730926513672,-0.2470531463623047,0.04299873113632202
1782774777106767600,7.340767578125,0.007089853286743164,-0.1608114242553711,0.18242675065994263
1782774777116746800,7.350746826171875,-0.06808304786682129,-0.13030338287353516,0.12479698657989502
1782774777126756600,7.360756591796875,-0.18010759353637695,-0.14600181579589844,0.024874329566955566
1782774777136766500,7.370766357421875,-0.2299189567565918,-0.16421890258789062,-0.09995174407958984
1782774777146745600,7.38074560546875,-0.19727683067321777,-0.22258567810058594,-0.1908760666847229
1782774777156755500,7.39075537109375,-0.10669565200805664,-0.16512489318847656,-0.043047428131103516
1782774777166765300,7.400765380859375,-0.024805068969726562,-0.1140909194946289,0.048746705055236816
1782774777176744400,7.410744384765625,0.051757097244262695,-0.1274709701538086,0.08793210983276367
1782774777186754000,7.420754150390625,0.09257793426513672,-0.12899112701416016,0.07723814249038696
1782774777196764000,7.430763916015625,0.019377708435058594,-0.12141704559326172,-0.013960003852844238
1782774777206773500,7.4407734375,-0.04786205291748047,-0.17431640625,-0.12084686756134033
1782774777216753000,7.4507529296875,-0.08082175254821777,-0.2467041015625,-0.16547513008117676
1782774777226762800,7.4607626953125,-0.12543392181396484,-0.2545309066772461,-0.1268797516822815
1782774777236772400,7.4707724609375,-0.21266865730285645,-0.1786785125732422,-0.05327540636062622
1782774777246751700,7.480751708984375,-0.24672555923461914,-0.13174152374267578,-0.03275781869888306
1782774777256761600,7.49076171875,-0.1544208526611328,-0.05582714080810547,0.07383358478546143
1782774777266771200,7.500771240234375,-0.09432792663574219,0.0085906982421875,0.10384112596511841
1782774777276750600,7.51075048828125,-0.08010244369506836,0.010815620422363281,-0.020644843578338623
1782774777286760200,7.52076025390625,-0.08522534370422363,-0.05402660369873047,-0.11037850379943848
1782774777296769800,7.530769775390625,-0.08325910568237305,-0.08534812927246094,-0.1542137861251831
1782774777306749200,7.540749267578125,-0.07187938690185547,-0.1237936019897461,-0.1930830478668213
1782774777316759000,7.550759033203125,-0.031867265701293945,-0.12625789642333984,-0.15800195932388306
1782774777326768600,7.5607685546875,0.022377490997314453,-0.06394767761230469,-0.05424070358276367
1782774777336748000,7.570748046875,0.09126400947570801,-0.03281879425048828,0.08474647998809814
1782774777346758000,7.5807578125,0.05572867393493652,0.00033473968505859375,0.1323847770690918
1782774777356767700,7.590767822265625,-0.03554677963256836,-0.012800216674804688,0.09910726547241211
1782774777366747000,7.600746826171875,-0.09671378135681152,-0.02419281005859375,0.06637454032897949
1782774777376756500,7.610756591796875,-0.12165021896362305,-0.0213623046875,0.1031598448753357
1782774777386766300,7.620766357421875,-0.11834335327148438,-0.039893150329589844,0.09236282110214233
1782774777396745700,7.630745849609375,-0.14705157279968262,-0.062835693359375,0.08412706851959229
1782774777406755300,7.64075537109375,-0.17656660079956055,-0.16924571990966797,-0.0028684139251708984
1782774777416765200,7.65076513671875,-0.1732344627380371,-0.28736114501953125,-0.05597484111785889
1782774777426684700,7.6606845703125,-0.10659551620483398,-0.32583141326904297,-0.025894463062286377
1782774777436967700,7.6709677734375,-0.05304384231567383,-0.3373584747314453,0.0986332893371582
1782774777446764000,7.680763916015625,-0.04456973075866699,-0.3680591583251953,0.21419614553451538
1782774777456773600,7.690773681640625,-0.05177426338195801,-0.3655729293823242,0.19651567935943604
1782774777466662700,7.70066259765625,-0.17200875282287598,-0.3639078140258789,0.08301526308059692
1782774777477667300,7.711667236328125,-0.27594947814941406,-0.3104400634765625,0.022521018981933594
1782774777496751600,7.730751708984375,-0.19731783866882324,-0.23901653289794922,-0.017624616622924805
1782774777506761500,7.740761474609375,-0.09394383430480957,-0.24866867065429688,0.0051038265228271484
1782774777516771000,7.75077099609375,0.03588223457336426,-0.22378253936767578,0.05145764350891113
1782774777526750500,7.76075048828125,0.1907052993774414,-0.2006359100341797,0.12337130308151245
1782774777536700700,7.77070068359375,0.11119341850280762,-0.23021697998046875,0.10347002744674683
1782774777546771500,7.780771484375,-0.0833277702331543,-0.303924560546875,0.012092411518096924
1782774777557809700,7.7918095703125,-0.15097332000732422,-0.24940204620361328,-0.007250428199768066
1782774777576830000,7.810829833984375,-0.3069138526916504,-0.2125072479248047,-0.0346260666847229
1782774777586748200,7.820748046875,-0.3005685806274414,-0.2176532745361328,-0.06682813167572021
1782774777596757800,7.8307578125,-0.2497875690460205,-0.16483497619628906,-0.034858107566833496
1782774777606767600,7.840767578125,-0.10184192657470703,-0.0731668472290039,0.04384934902191162
1782774777616746800,7.850746826171875,0.03603339195251465,0.009219169616699219,0.1648138165473938
1782774777626697000,7.860697021484375,0.05659127235412598,-0.018570899963378906,0.10433048009872437
1782774777637689300,7.871689453125,0.04186129570007324,-0.02996540069580078,0.03766512870788574
1782774777656846800,7.890846923828125,-0.07806396484375,-0.03739452362060547,-0.003204345703125
1782774777666765300,7.900765380859375,-0.11341142654418945,-0.054106712341308594,0.0272599458694458
1782774777676744400,7.910744384765625,-0.0335087776184082,-0.046097755432128906,-0.0032864809036254883
1782774777686754000,7.920754150390625,0.049242258071899414,-0.07803630828857422,0.010231614112854004
1782774777696764000,7.930763916015625,0.10291314125061035,-0.12184524536132812,-0.006829261779785156
1782774777706773500,7.9407734375,0.11658239364624023,-0.15639209747314453,-0.018989086151123047
1782774777716753000,7.9507529296875,0.06418228149414062,-0.22732067108154297,-0.1312083601951599
1782774777726329600,7.96032958984375,0.020413875579833984,-0.2702007293701172,-0.15672755241394043
1782774777736317000,7.97031689453125,-0.09399628639221191,-0.2920246124267578,-0.1466110348701477
1782774777746296300,7.98029638671875,-0.14291715621948242,-0.28548240661621094,-0.13175517320632935
1782774777756306200,7.99030615234375,-0.14137601852416992,-0.2574310302734375,-0.09576606750488281
1782774777766315800,8.000315673828124,-0.13494658470153809,-0.20298004150390625,0.02767544984817505
1782774777776295200,8.010295166015625,-0.1184852123260498,-0.1318950653076172,0.10967457294464111
1782774777786305000,8.020304931640625,-0.1688389778137207,-0.11121654510498047,0.05555236339569092
1782774777796314600,8.030314697265625,-0.22643208503723145,-0.15287208557128906,-0.047735750675201416
1782774777806234400,8.040234375,-0.2344498634338379,-0.18234729766845703,-0.1308366060256958
1782774777816364800,8.05036474609375,-0.2101144790649414,-0.165863037109375,-0.1369457244873047
1782774777826313500,8.0603134765625,-0.1751258373260498,-0.16314315795898438,-0.13137203454971313
1782774777836292600,8.070292724609375,-0.11956644058227539,-0.21981143951416016,-0.13578617572784424
1782774777846242800,8.080242919921876,-0.009768486022949219,-0.22339153289794922,-0.06175917387008667
1782774777856373200,8.090373291015625,0.06133532524108887,-0.2099924087524414,-0.05050373077392578
1782774777866291500,8.10029150390625,0.027327537536621094,-0.1943063735961914,-0.08228129148483276
1782774777877394400,8.11139453125,0.020300626754760742,-0.19569969177246094,-0.12083595991134644
1782774777896290300,8.130290283203125,0.03993988037109375,-0.09407520294189453,0.02281022071838379
1782774777906300200,8.140300048828125,0.00861048698425293,-0.05077552795410156,-0.007091999053955078
1782774777916310000,8.15031005859375,-0.04405999183654785,-0.0938405990600586,-0.028980135917663574
1782774777926289200,8.1602890625,-0.08284592628479004,-0.09846878051757812,-0.07635784149169922
1782774777936298800,8.170298828125,-0.050307512283325195,-0.09333992004394531,-0.03713023662567139
1782774777946308600,8.18030859375,0.03422260284423828,-0.07351398468017578,0.016086578369140625
1782774777956318200,8.190318115234374,0.05373501777648926,-0.10855960845947266,0.07380408048629761
1782774777966297600,8.200297607421875,0.009050130844116211,-0.1126718521118164,0.08358705043792725
1782774777976307500,8.210307373046875,0.0036678314208984375,-0.1532449722290039,0.005942940711975098
1782774777986317000,8.220317138671875,-0.039682626724243164,-0.21080493927001953,-0.09961307048797607
1782774777996296400,8.23029638671875,-0.13790178298950195,-0.23497772216796875,-0.20229679346084595
1782774778006246400,8.240246337890625,-0.18735313415527344,-0.24992942810058594,-0.17603421211242676
1782774778016377000,8.250377197265625,-0.12400436401367188,-0.13553810119628906,-0.058213114738464355
1782774778026235400,8.2602353515625,-0.08001112937927246,0.017427444458007812,0.23971694707870483
1782774778037213000,8.271212890625,-0.04346108436584473,0.06998920440673828,0.3026055693626404
1782774778056294000,8.2902939453125,-0.1091604232788086,-0.016968727111816406,0.10817819833755493
1782774778066303700,8.3003037109375,-0.17545676231384277,-0.11814594268798828,-0.02040809392929077
1782774778076313300,8.310313232421874,-0.2701420783996582,-0.17160892486572266,-0.009923696517944336
1782774778086292700,8.320292724609375,-0.2831614017486572,-0.20118427276611328,-0.03117269277572632
1782774778096302600,8.330302490234375,-0.28891658782958984,-0.24031734466552734,-0.021849751472473145
1782774778106312400,8.3403125,-0.25206804275512695,-0.2839822769165039,-0.0105743408203125
1782774778116232000,8.35023193359375,-0.2471609115600586,-0.31765079498291016,0.004820704460144043
1782774778126302500,8.360302490234375,-0.15868782997131348,-0.2529945373535156,0.12732172012329102
1782774778136372000,8.3703720703125,-0.08961653709411621,-0.14024734497070312,0.17933034896850586
1782774778146290200,8.380290283203125,-0.013816118240356445,-0.15665054321289062,0.0667995810508728
1782774778156300000,8.390300048828125,-0.0008759498596191406,-0.2543487548828125,-0.10151141881942749
1782774778166310000,8.400309814453125,-0.04047727584838867,-0.3114948272705078,-0.1946192979812622
1782774778176289000,8.4102890625,-0.08206748962402344,-0.25863170623779297,-0.21165817975997925
1782774778186299000,8.420298828125,-0.11564445495605469,-0.2060089111328125,-0.12706100940704346
1782774778196308500,8.43030859375,-0.03449892997741699,-0.17950153350830078,-0.024735689163208008
1782774778206318300,8.440318359375,0.06481289863586426,-0.15969371795654297,0.014796793460845947
1782774778216297500,8.45029736328125,0.1392824649810791,-0.1347503662109375,0.01174163818359375
1782774778226307300,8.460307373046875,0.1351001262664795,-0.12195110321044922,0.030422329902648926
1782774778236317000,8.47031689453125,0.056015968322753906,-0.059639930725097656,0.05404770374298096
1782774778246296300,8.48029638671875,-0.08837151527404785,-0.06035900115966797,0.12102353572845459
1782774778256306200,8.49030615234375,-0.17302203178405762,-0.07309532165527344,-0.03366875648498535
1782774778266315800,8.500315673828124,-0.11299681663513184,-0.08779525756835938,-0.059604108333587646
1782774778276295200,8.510295166015625,-0.20104408264160156,-0.19742870330810547,-0.1400626301765442
1782774778286305000,8.520304931640625,-0.06101822853088379,-0.2178030014038086,-0.30319178104400635
1782774778296314600,8.530314697265625,0.004150390625,-0.23300552368164062,-0.1513732671737671
1782774778306294000,8.5402939453125,0.054526567459106445,-0.2311410903930664,-0.055853843688964844
1782774778316303600,8.5503037109375,0.06560254096984863,-0.20494747161865234,-0.19680947065353394
1782774778326313500,8.5603134765625,0.39060163497924805,-0.28089141845703125,-0.13532686233520508
1782774778336292600,8.570292724609375,0.33286213874816895,-0.27698230743408203,-0.19506633281707764
1782774778346302500,8.580302490234375,0.2296590805053711,-0.1366424560546875,-0.37105756998062134
1782774778356312000,8.59031201171875,-0.032047271728515625,-0.14692401885986328,0.036295294761657715
1782774778366291500,8.60029150390625,-0.2776460647583008,-0.16189289093017578,0.18818020820617676
1782774778376301300,8.61030126953125,-0.36941003799438477,-0.10777950286865234,-0.0729379653930664
1782774778386311000,8.620310791015624,-0.5316619873046875,-0.14091205596923828,-0.09728807210922241
1782774778396290300,8.630290283203125,-0.48488807678222656,-0.08039665222167969,-0.09829157590866089
1782774778406300200,8.640300048828125,-0.4570443630218506,-0.0020322799682617188,0.1170157790184021
1782774778416310000,8.65031005859375,-0.451693058013916,0.050647735595703125,0.3225221037864685
1782774778426289200,8.6602890625,-0.35539889335632324,0.010994911193847656,0.2409462332725525
1782774778436298800,8.670298828125,-0.19961190223693848,0.013566017150878906,0.058835506439208984
1782774778446308600,8.68030859375,-0.04792356491088867,-0.04210472106933594,-0.08024829626083374
1782774778456318200,8.690318115234374,0.13285398483276367,-0.1567859649658203,-0.08901727199554443
1782774778466297600,8.700297607421875,0.3546433448791504,-0.304962158203125,-0.11581748723983765
