time,seconds_elapsed,z,y,x
1782774492996455700,0.15845556640625,0.010995574295520782,-0.03787364438176155,0.022602014243602753
1782774493006486800,0.16848681640625,-0.0024434609804302454,-0.02626720629632473,-0.015882495790719986
1782774493016475400,0.178475341796875,-0.004886921960860491,-0.03787364438176155,-0.04581489413976669
1782774493026476000,0.18847607421875,-0.00427605677396059,-0.05619960278272629,-0.05619960278272629
1782774493036464400,0.19846435546875,-0.006108652334660292,-0.059864792972803116,-0.04886921867728233
1782774493046495200,0.2084951171875,-0.009162978269159794,-0.04703662544488907,-0.025656340643763542
1782774493056453000,0.218453125,-0.0006108652451075613,-0.02076941914856434,0.012217304669320583
1782774493066484500,0.228484375,0.018325956538319588,-0.004886921960860491,0.06475171446800232
1782774493076472800,0.238472900390625,0.03481931984424591,-0.01710422709584236,0.12278391420841217
1782774493086473500,0.248473388671875,0.039706241339445114,-0.04398229718208313,0.1618792861700058
1782774493096461800,0.2584619140625,0.03787364438176155,-0.05009094998240471,0.16737708449363708
1782774493106493000,0.268492919921875,0.025045474991202354,-0.04214970022439957,0.1411098688840866
1782774493116450800,0.278450927734375,0.006108652334660292,-0.036651913076639175,0.1007927656173706
1782774493126482000,0.28848193359375,-0.014049900695681572,-0.03420845419168472,0.06108652427792549
1782774493136470500,0.298470458984375,-0.024434609338641167,-0.033597588539123535,0.018936822190880775
1782774493146471200,0.30847119140625,-0.01771509274840355,-0.028099801391363144,-0.016493361443281174
1782774493156459300,0.318459228515625,-0.006108652334660292,-0.027488935738801956,-0.028099801391363144
1782774493166490400,0.328490478515625,0.0024434609804302454,-0.04153883829712868,-0.021991148591041565
1782774493176448300,0.3384482421875,-0.0012217304902151227,-0.036651913076639175,-0.003054326167330146
1782774493186479400,0.348479248046875,-0.015271631069481373,-0.03420845419168472,0.006108652334660292
1782774493196468000,0.358468017578125,-0.02015855349600315,-0.014049900695681572,0.006108652334660292
1782774493206498800,0.368498779296875,-0.021380282938480377,0.016493361443281174,0.009162978269159794
1782774493216457000,0.37845703125,-0.02015855349600315,0.021991148591041565,0.02015855349600315
1782774493226488000,0.388488037109375,-0.005497787147760391,0.015882495790719986,0.029932396486401558
1782774493236476700,0.3984765625,0.010995574295520782,0.021991148591041565,0.036651913076639175
1782774493246477000,0.40847705078125,0.00366519158706069,0.022602014243602753,0.04764748737215996
1782774493256465400,0.41846533203125,-0.00733038317412138,0.030543262138962746,0.05619960278272629
1782774493266496500,0.42849658203125,-0.01466076634824276,0.025045474991202354,0.056810468435287476
1782774493276454400,0.438454345703125,-0.009773843921720982,0.006719517521560192,0.04092797264456749
1782774493286485500,0.448485595703125,-0.0006108652451075613,-0.0024434609804302454,0.015271631069481373
1782774493296473900,0.458473876953125,0.00855211354792118,0.00366519158706069,-0.012828170321881771
1782774493306474500,0.468474609375,0.005497787147760391,0.00733038317412138,-0.039095375686883926
1782774493316463000,0.478463134765625,0.00427605677396059,0.015271631069481373,-0.05925392732024193
1782774493326494200,0.488494140625,0.009162978269159794,0.021380282938480377,-0.059864792972803116
1782774493336451800,0.498451904296875,0.0024434609804302454,0.0024434609804302454,-0.04642575979232788
1782774493346483500,0.5084833984375,0.00427605677396059,-0.012828170321881771,-0.03481931984424591
1782774493356471600,0.518471435546875,0.006719517521560192,0.003054326167330146,-0.02015855349600315
1782774493366472200,0.52847216796875,-0.003054326167330146,0.009162978269159794,-0.010995574295520782
1782774493376460500,0.53846044921875,-0.003054326167330146,0.019547687843441963,-0.006719517521560192
1782774493386491600,0.54849169921875,0.00427605677396059,0.031154127791523933,0.0024434609804302454
1782774493396449500,0.558449462890625,0.00733038317412138,0.024434609338641167,0.012217304669320583
1782774493406480600,0.568480712890625,0.015271631069481373,0.015271631069481373,0.015271631069481373
1782774493416469000,0.578468994140625,0.027488935738801956,0.016493361443281174,0.006108652334660292
1782774493426470000,0.588469970703125,0.04092797264456749,0.014049900695681572,-0.006108652334660292
1782774493436458000,0.5984580078125,0.039706241339445114,0,-0.012828170321881771
1782774493446489000,0.608489013671875,0.03298672288656235,-0.016493361443281174,-0.015882495790719986
1782774493456477700,0.618477783203125,0.014049900695681572,-0.022602014243602753,-0.021380282938480377
1782774493466478000,0.62847802734375,-0.01466076634824276,-0.01038470957428217,-0.031154127791523933
1782774493476466700,0.638466796875,-0.03420845419168472,0.0024434609804302454,-0.04092797264456749
1782774493486498000,0.648498046875,-0.039706241339445114,0.019547687843441963,-0.04398229718208313
1782774493496455700,0.65845556640625,-0.025656340643763542,0.021380282938480377,-0.042760565876960754
1782774493506486800,0.66848681640625,0.009162978269159794,0.01771509274840355,-0.029932396486401558
1782774493516475400,0.678475341796875,0.031154127791523933,0.016493361443281174,-0.0024434609804302454
1782774493526476000,0.68847607421875,0.03481931984424591,0.012217304669320583,0.027488935738801956
1782774493536464400,0.69846435546875,0.030543262138962746,0.02321287989616394,0.04703662544488907
1782774493546495500,0.70849560546875,0.01160643994808197,0.03176499158143997,0.05375614017248154
1782774493556453400,0.718453369140625,-0.005497787147760391,0.024434609338641167,0.051312681287527084
1782774493566484200,0.728484130859375,-0.01160643994808197,0.00855211354792118,0.039095375686883926
1782774493576472600,0.73847265625,-0.018325956538319588,-0.01160643994808197,0.02687807008624077
1782774493586473500,0.748473388671875,-0.036651913076639175,-0.02382374368607998,0.007941247895359993
1782774493596461800,0.7584619140625,-0.04398229718208313,-0.006719517521560192,-0.025656340643763542
1782774493606493000,0.768492919921875,-0.02932153269648552,0.028099801391363144,-0.0507018156349659
1782774493616450800,0.778450927734375,-0.009162978269159794,0.03237585723400116,-0.042760565876960754
1782774493626482000,0.78848193359375,0.00855211354792118,0.014049900695681572,-0.004886921960860491
1782774493636470500,0.798470458984375,0.013439035043120384,-0.014049900695681572,0.04337143152952194
1782774493646470400,0.808470458984375,0.0012217304902151227,-0.02871066704392433,0.07024950534105301
1782774493656459300,0.818459228515625,-0.024434609338641167,0.006719517521560192,0.06902777403593063
1782774493666490600,0.82849072265625,-0.04581489413976669,0.006108652334660292,0.04398229718208313
1782774493676448300,0.8384482421875,-0.04642575979232788,0.021380282938480377,0.012217304669320583
1782774493686479600,0.848479736328125,-0.03176499158143997,0.027488935738801956,-0.006719517521560192
1782774493696467700,0.8584677734375,-0.00855211354792118,0.015271631069481373,-0.012828170321881771
1782774493706499000,0.8684990234375,0.02382374368607998,0.00427605677396059,-0.009162978269159794
1782774493716457000,0.87845703125,0.0507018156349659,-0.01038470957428217,0.001832595793530345
1782774493726488300,0.88848828125,0.054367005825042725,-0.025045474991202354,0.019547687843441963
1782774493736476400,0.898476318359375,0.03298672288656235,-0.039706241339445114,0.03176499158143997
1782774493746477300,0.908477294921875,0.004886921960860491,-0.03298672288656235,0.024434609338641167
1782774493756465400,0.91846533203125,-0.018325956538319588,-0.018936822190880775,0.0012217304902151227
1782774493766496300,0.928496337890625,-0.029932396486401558,-0.009162978269159794,-0.028099801391363144
1782774493776454400,0.938454345703125,-0.028099801391363144,0,-0.056810468435287476
1782774493786485500,0.948485595703125,-0.016493361443281174,0.012828170321881771,-0.07024950534105301
1782774493796474000,0.95847412109375,0,0.016493361443281174,-0.06291911751031876
1782774493806474800,0.968474853515625,0.004886921960860491,0.015882495790719986,-0.02871066704392433
1782774493816462000,0.978462158203125,-0.0012217304902151227,0.016493361443281174,0.016493361443281174
1782774493826493400,0.988493408203125,-0.00427605677396059,0.018325956538319588,0.0507018156349659
1782774493836451300,0.998451416015625,-0.001832595793530345,0.019547687843441963,0.06352998316287994
1782774493846482700,1.008482666015625,0,0.009773843921720982,0.054367005825042725
1782774493856471000,1.018470947265625,0.003054326167330146,-0.0012217304902151227,0.025045474991202354
1782774493866471700,1.0284716796875,0.009773843921720982,-0.001832595793530345,-0.01160643994808197
1782774493876460000,1.0384599609375,0.01038470957428217,0.007941247895359993,-0.03848451003432274
1782774493886491100,1.0484912109375,0.005497787147760391,0.019547687843441963,-0.04153883829712868
1782774493896449000,1.058448974609375,-0.004886921960860491,0.019547687843441963,-0.024434609338641167
1782774493906480400,1.06848046875,-0.00855211354792118,0.018936822190880775,0.00366519158706069
1782774493916469000,1.078468994140625,-0.006719517521560192,0.015271631069481373,0.02871066704392433
1782774493926470000,1.088469970703125,-0.005497787147760391,0.004886921960860491,0.04092797264456749
1782774493936458000,1.0984580078125,0.00366519158706069,0.004886921960860491,0.03420845419168472
1782774493946489000,1.108489013671875,0.015882495790719986,0.016493361443281174,0.021991148591041565
1782774493956477700,1.118477783203125,0.018936822190880775,0.012828170321881771,0.010995574295520782
1782774493966478300,1.128478271484375,0.021991148591041565,0.001832595793530345,-0.004886921960860491
1782774493976466700,1.138466796875,0.02626720629632473,0.0006108652451075613,-0.021991148591041565
1782774493986497800,1.148497802734375,0.022602014243602753,0.001832595793530345,-0.03848451003432274
1782774493996455700,1.15845556640625,0.012217304669320583,0.009162978269159794,-0.04581489413976669
1782774494006486800,1.16848681640625,-0.00366519158706069,0.015271631069481373,-0.04153883829712868
1782774494016475400,1.178475341796875,-0.019547687843441963,0.01160643994808197,-0.02626720629632473
1782774494026476000,1.18847607421875,-0.028099801391363144,0.006108652334660292,-0.010995574295520782
1782774494036464400,1.19846435546875,-0.027488935738801956,0.02076941914856434,0.004886921960860491
1782774494046495500,1.20849560546875,-0.02015855349600315,0.029932396486401558,0.02076941914856434
1782774494056453000,1.218453125,0.001832595793530345,0.03176499158143997,0.029932396486401558
1782774494066484200,1.228484130859375,0.02626720629632473,0.029932396486401558,0.04214970022439957
1782774494076472600,1.23847265625,0.042760565876960754,0.021380282938480377,0.06291911751031876
1782774494086473700,1.2484736328125,0.03787364438176155,0.018325956538319588,0.07513642311096191
1782774494096461800,1.2584619140625,0.02076941914856434,0.016493361443281174,0.07513642311096191
1782774494106493000,1.268492919921875,0.0024434609804302454,0.007941247895359993,0.056810468435287476
1782774494116450800,1.278450927734375,-0.012217304669320583,0.006719517521560192,0.03176499158143997
1782774494126482200,1.288482177734375,-0.029932396486401558,0.0012217304902151227,0.005497787147760391
1782774494136470500,1.298470458984375,-0.039095375686883926,0,-0.02687807008624077
1782774494146471200,1.30847119140625,-0.03420845419168472,0.012828170321881771,-0.05253441259264946
1782774494156459300,1.318459228515625,-0.021991148591041565,0.02382374368607998,-0.06108652427792549
1782774494166490400,1.328490478515625,0.0012217304902151227,0.025656340643763542,-0.04764748737215996
1782774494176448300,1.3384482421875,0.016493361443281174,0.019547687843441963,-0.012828170321881771
1782774494186479600,1.348479736328125,0.02015855349600315,0.00427605677396059,0.03176499158143997
1782774494196468000,1.358468017578125,0.018936822190880775,-0.00427605677396059,0.0659734457731247
1782774494206499000,1.3684990234375,0.00855211354792118,-0.006108652334660292,0.08002334833145142
1782774494216457000,1.37845703125,-0.001832595793530345,-0.004886921960860491,0.06902777403593063
1782774494226488000,1.388488037109375,-0.009162978269159794,-0.00366519158706069,0.039706241339445114
1782774494236476400,1.398476318359375,-0.006719517521560192,-0.003054326167330146,-0.0012217304902151227
1782774494246477000,1.40847705078125,0.004886921960860491,0.001832595793530345,-0.036651913076639175
1782774494256465400,1.41846533203125,0.012828170321881771,0.00427605677396059,-0.0507018156349659
1782774494266496800,1.428496826171875,0.015882495790719986,0.0006108652451075613,-0.04886921867728233
1782774494276454400,1.438454345703125,0.025045474991202354,0.006719517521560192,-0.027488935738801956
1782774494286485500,1.448485595703125,0.02015855349600315,0.00733038317412138,0.01038470957428217
1782774494296473900,1.458473876953125,0.003054326167330146,-0.005497787147760391,0.045204028487205505
1782774494306474800,1.468474853515625,-0.0012217304902151227,-0.00733038317412138,0.05742133408784866
1782774494316463000,1.478463134765625,-0.001832595793530345,0.001832595793530345,0.04153883829712868
1782774494326494200,1.488494140625,0,0.01466076634824276,0.009773843921720982
1782774494336452000,1.4984521484375,0.0024434609804302454,0.025656340643763542,-0.01160643994808197
1782774494346483200,1.508483154296875,0.001832595793530345,0.02382374368607998,-0.012217304669320583
1782774494356471600,1.518471435546875,-0.0006108652451075613,0.016493361443281174,-0.0006108652451075613
1782774494366472000,1.528471923828125,0.006719517521560192,0.01160643994808197,0.016493361443281174
1782774494376460500,1.53846044921875,0.009162978269159794,0.004886921960860491,0.039706241339445114
1782774494386491600,1.54849169921875,0.006719517521560192,-0.00366519158706069,0.05803219974040985
1782774494396449500,1.558449462890625,0.010995574295520782,-0.014049900695681572,0.05742133408784866
1782774494406480400,1.56848046875,0.015882495790719986,-0.02626720629632473,0.039706241339445114
1782774494416469000,1.578468994140625,0.01710422709584236,-0.03237585723400116,0.00733038317412138
1782774494426469600,1.5884697265625,0.006108652334660292,-0.024434609338641167,-0.025045474991202354
1782774494436458200,1.598458251953125,-0.00427605677396059,-0.012828170321881771,-0.05192354694008827
1782774494446489600,1.608489501953125,-0.012828170321881771,-0.005497787147760391,-0.06230825558304787
1782774494456477700,1.618477783203125,-0.018325956538319588,-0.010995574295520782,-0.05619960278272629
1782774494466478000,1.62847802734375,-0.01466076634824276,-0.013439035043120384,-0.03848451003432274
1782774494476466400,1.638466552734375,-0.007941247895359993,-0.00855211354792118,-0.012828170321881771
1782774494486497800,1.648497802734375,0.00366519158706069,-0.0024434609804302454,0.009162978269159794
1782774494496455700,1.65845556640625,0.014049900695681572,-0.003054326167330146,0.022602014243602753
1782774494506487000,1.668487060546875,0.02626720629632473,0.00366519158706069,0.025045474991202354
1782774494516475400,1.678475341796875,0.019547687843441963,0.005497787147760391,0.018936822190880775
1782774494526475800,1.688475830078125,0.01160643994808197,0.018936822190880775,0.01038470957428217
1782774494536464400,1.69846435546875,0,0.02687807008624077,0.006719517521560192
1782774494546495200,1.7084951171875,-0.01038470957428217,0.018325956538319588,0.00427605677396059
1782774494556453000,1.718453125,-0.01160643994808197,0.012828170321881771,-0.003054326167330146
1782774494566484500,1.728484375,-0.0012217304902151227,0.018325956538319588,-0.014049900695681572
1782774494576472600,1.73847265625,0.012828170321881771,0.022602014243602753,-0.022602014243602753
1782774494586473200,1.74847314453125,0.02076941914856434,0.018936822190880775,-0.02321287989616394
1782774494596461800,1.7584619140625,0.02015855349600315,0.019547687843441963,-0.010995574295520782
1782774494606493000,1.768492919921875,0.01038470957428217,0.021380282938480377,0.010995574295520782
1782774494616450800,1.778450927734375,-0.001832595793530345,0.021991148591041565,0.02687807008624077
1782774494626482200,1.788482177734375,-0.015882495790719986,0.021991148591041565,0.031154127791523933
1782774494636500200,1.798500244140625,-0.02321287989616394,0.02321287989616394,0.02076941914856434
1782774494646471000,1.808470947265625,-0.025656340643763542,0.02382374368607998,0.003054326167330146
1782774494656459300,1.818459228515625,-0.02687807008624077,0.02015855349600315,-0.01160643994808197
1782774494666490400,1.828490478515625,-0.02076941914856434,0.018325956538319588,-0.02321287989616394
1782774494676448300,1.8384482421875,-0.01710422709584236,0.015271631069481373,-0.028099801391363144
1782774494686479600,1.848479736328125,-0.007941247895359993,0.010995574295520782,-0.02871066704392433
1782774494696467700,1.8584677734375,0.006108652334660292,0.013439035043120384,-0.021991148591041565
1782774494706498800,1.868498779296875,0.02015855349600315,0.016493361443281174,-0.006719517521560192
1782774494716457000,1.87845703125,0.018936822190880775,0.009773843921720982,0.012828170321881771
1782774494726488000,1.888488037109375,0.009162978269159794,0.012828170321881771,0.036651913076639175
1782774494736476400,1.898476318359375,-0.00427605677396059,0.010995574295520782,0.059864792972803116
1782774494746477300,1.908477294921875,-0.016493361443281174,0.006719517521560192,0.07024950534105301
1782774494756465700,1.918465576171875,-0.021380282938480377,-0.00366519158706069,0.05375614017248154
1782774494766496800,1.928496826171875,-0.01038470957428217,-0.007941247895359993,0.016493361443281174
1782774494776454400,1.938454345703125,0.00366519158706069,-0.0012217304902151227,-0.018936822190880775
1782774494786485500,1.948485595703125,0.016493361443281174,0.0024434609804302454,-0.04337143152952194
1782774494796473900,1.958473876953125,0.02687807008624077,-0.0012217304902151227,-0.0507018156349659
1782774494806475000,1.96847509765625,0.031154127791523933,-0.012828170321881771,-0.04642575979232788
1782774494816461800,1.9784619140625,0.036651913076639175,-0.02076941914856434,-0.04214970022439957
1782774494826493700,1.98849365234375,0.03420845419168472,-0.01771509274840355,-0.029932396486401558
1782774494836451300,1.998451416015625,0.019547687843441963,-0.021380282938480377,-0.02076941914856434
1782774494846482700,2.008482666015625,0.01771509274840355,-0.01710422709584236,-0.02626720629632473
1782774494856471000,2.018470947265625,0.027488935738801956,-0.00366519158706069,-0.039095375686883926
1782774494866471700,2.0284716796875,0.04886921867728233,0.006719517521560192,-0.04886921867728233
1782774494876460000,2.0384599609375,0.07269296050071716,0.009162978269159794,-0.03420845419168472
1782774494886491100,2.0484912109375,0.08124507963657379,0.009162978269159794,0.0024434609804302454
1782774494896449300,2.05844921875,0.07452555745840073,0.0024434609804302454,0.04703662544488907
1782774494906480400,2.06848046875,0.06352998316287994,0.012217304669320583,0.08246681094169617
1782774494916469200,2.07846923828125,0.051312681287527084,0.02871066704392433,0.1014036312699318
1782774494926470000,2.088469970703125,0.0507018156349659,0.022602014243602753,0.08429940044879913
1782774494936458000,2.0984580078125,0.059864792972803116,0.00733038317412138,0.05619960278272629
1782774494946489300,2.1084892578125,0.04886921867728233,-0.01771509274840355,0.031154127791523933
1782774494956477700,2.118477783203125,0.024434609338641167,-0.02932153269648552,-0.006719517521560192
1782774494966478000,2.12847802734375,0.004886921960860491,-0.00733038317412138,-0.05192354694008827
1782774494976466700,2.138466796875,-0.009162978269159794,0.019547687843441963,-0.08368854224681854
1782774494986497800,2.148497802734375,-0.012828170321881771,0.010995574295520782,-0.09162978827953339
1782774494996455700,2.15845556640625,-0.003054326167330146,-0.006719517521560192,-0.0708603709936142
1782774495006486800,2.16848681640625,-0.0024434609804302454,-0.02382374368607998,-0.02382374368607998
1782774495016475400,2.178475341796875,-0.00366519158706069,-0.0354301854968071,0.016493361443281174
1782774495026476000,2.18847607421875,-0.00733038317412138,-0.027488935738801956,0.04581489413976669
1782774495036464400,2.19846435546875,-0.01038470957428217,-0.01710422709584236,0.05497787147760391
1782774495046495700,2.208495849609375,-0.012217304669320583,-0.012217304669320583,0.05803219974040985
1782774495056453000,2.218453125,-0.02076941914856434,-0.007941247895359993,0.05925392732024193
1782774495066484500,2.228484375,-0.028099801391363144,-0.016493361443281174,0.04886921867728233
1782774495076472800,2.238472900390625,-0.03420845419168472,-0.018325956538319588,0.025656340643763542
1782774495086473500,2.248473388671875,-0.039706241339445114,-0.013439035043120384,-0.0024434609804302454
1782774495096461800,2.2584619140625,-0.045204028487205505,-0.009773843921720982,-0.031154127791523933
1782774495106493000,2.268492919921875,-0.045204028487205505,-0.003054326167330146,-0.05192354694008827
1782774495116450800,2.278450927734375,-0.04337143152952194,0.0012217304902151227,-0.05314527451992035
1782774495126482200,2.288482177734375,-0.04581489413976669,0.00427605677396059,-0.036651913076639175
1782774495136470500,2.298470458984375,-0.04581489413976669,0.007941247895359993,-0.007941247895359993
1782774495146471200,2.30847119140625,-0.03848451003432274,0.009162978269159794,0.019547687843441963
1782774495156459300,2.318459228515625,-0.025045474991202354,0.018325956538319588,0.039706241339445114
1782774495166490600,2.32849072265625,-0.019547687843441963,0.021380282938480377,0.04764748737215996
1782774495176448300,2.3384482421875,-0.015271631069481373,0.025045474991202354,0.04153883829712868
1782774495186479400,2.348479248046875,-0.012828170321881771,0.03726277872920036,0.03176499158143997
1782774495196468000,2.358468017578125,-0.014049900695681572,0.048258353024721146,0.025656340643763542
1782774495206499000,2.3684990234375,-0.012217304669320583,0.05253441259264946,0.02382374368607998
1782774495216457000,2.37845703125,-0.001832595793530345,0.045204028487205505,0.030543262138962746
1782774495226488000,2.388488037109375,0.007941247895359993,0.03176499158143997,0.04214970022439957
1782774495236476700,2.3984765625,0.00427605677396059,0.015882495790719986,0.048258353024721146
1782774495246476800,2.408476806640625,-0.005497787147760391,0.01038470957428217,0.03787364438176155
1782774495256465700,2.418465576171875,-0.01466076634824276,0.022602014243602753,0.01771509274840355
1782774495266496800,2.428496826171875,-0.025656340643763542,0.027488935738801956,-0.00427605677396059
1782774495276454400,2.438454345703125,-0.025656340643763542,0.025656340643763542,-0.02626720629632473
1782774495286485500,2.448485595703125,-0.01771509274840355,0.02626720629632473,-0.03787364438176155
1782774495296473900,2.458473876953125,-0.012828170321881771,0.02015855349600315,-0.02871066704392433
1782774495306474500,2.468474609375,-0.01038470957428217,0.009162978269159794,-0.005497787147760391
1782774495316463000,2.478463134765625,-0.01160643994808197,0.006108652334660292,0.024434609338641167
1782774495326494500,2.488494384765625,-0.01710422709584236,0.00855211354792118,0.05375614017248154
1782774495336451800,2.498451904296875,-0.022602014243602753,-0.005497787147760391,0.06475171446800232
1782774495346483500,2.5084833984375,-0.018325956538319588,-0.015882495790719986,0.045204028487205505
1782774495356471300,2.51847119140625,-0.01466076634824276,-0.018325956538319588,0.01466076634824276
1782774495366472000,2.528471923828125,-0.007941247895359993,-0.009162978269159794,-0.018936822190880775
1782774495376460500,2.53846044921875,-0.013439035043120384,-0.003054326167330146,-0.03848451003432274
1782774495386491600,2.54849169921875,-0.02321287989616394,-0.00733038317412138,-0.04459316283464432
1782774495396449500,2.558449462890625,-0.029932396486401558,0.0012217304902151227,-0.03726277872920036
1782774495406481000,2.56848095703125,-0.028099801391363144,0.006108652334660292,-0.02626720629632473
1782774495416469000,2.578468994140625,-0.012828170321881771,0.00733038317412138,-0.01466076634824276
1782774495426470000,2.588469970703125,0.00366519158706069,0.004886921960860491,0.0006108652451075613
1782774495436458200,2.598458251953125,0.00855211354792118,-0.0012217304902151227,0.016493361443281174
1782774495446489000,2.608489013671875,0.01038470957428217,0.013439035043120384,0.03237585723400116
1782774495456477700,2.618477783203125,0.004886921960860491,0.03420845419168472,0.04337143152952194
1782774495466478000,2.62847802734375,0.0012217304902151227,0.04581489413976669,0.051312681287527084
1782774495476466700,2.638466796875,0.003054326167330146,0.045204028487205505,0.05742133408784866
1782774495486497800,2.648497802734375,0.01038470957428217,0.036651913076639175,0.05803219974040985
1782774495496455700,2.65845556640625,0.014049900695681572,0.027488935738801956,0.054367005825042725
1782774495506486800,2.66848681640625,0.012217304669320583,0.02382374368607998,0.05009094998240471
1782774495516475400,2.678475341796875,0.00366519158706069,0.01710422709584236,0.04153883829712868
1782774495526476000,2.68847607421875,-0.001832595793530345,0.016493361443281174,0.02687807008624077
1782774495536464100,2.698464111328125,-0.00855211354792118,0.00855211354792118,0.007941247895359993
1782774495546495200,2.7084951171875,-0.004886921960860491,0.006719517521560192,-0.015882495790719986
1782774495556453400,2.718453369140625,0.0024434609804302454,0.009773843921720982,-0.036651913076639175
1782774495566484200,2.728484130859375,0.001832595793530345,0,-0.04153883829712868
1782774495576472600,2.73847265625,-0.009773843921720982,-0.006108652334660292,-0.036041051149368286
1782774495586473500,2.748473388671875,-0.01710422709584236,-0.00366519158706069,-0.025045474991202354
1782774495596461800,2.7584619140625,-0.03298672288656235,0.0006108652451075613,-0.015882495790719986
1782774495606493000,2.768492919921875,-0.03848451003432274,0.0024434609804302454,-0.009162978269159794
1782774495616451000,2.778451171875,-0.030543262138962746,0.014049900695681572,0.0012217304902151227
1782774495626482000,2.78848193359375,-0.031154127791523933,0.018936822190880775,0.022602014243602753
1782774495636470500,2.798470458984375,-0.02321287989616394,0.010995574295520782,0.03787364438176155
1782774495646471000,2.808470947265625,-0.00427605677396059,0.015271631069481373,0.04459316283464432
1782774495656459300,2.818459228515625,0.00855211354792118,0.02321287989616394,0.04764748737215996
1782774495666490400,2.828490478515625,0.010995574295520782,0.018325956538319588,0.05314527451992035
1782774495676448300,2.8384482421875,0.010995574295520782,0.021380282938480377,0.0555887371301651
1782774495686479400,2.848479248046875,-0.0012217304902151227,0.018936822190880775,0.059864792972803116
1782774495696468000,2.858468017578125,-0.02015855349600315,0.007941247895359993,0.05375614017248154
1782774495706499300,2.868499267578125,-0.02687807008624077,0.00427605677396059,0.03726277872920036
1782774495716457000,2.87845703125,-0.028099801391363144,-0.0012217304902151227,0.01038470957428217
1782774495726488300,2.88848828125,-0.02626720629632473,-0.004886921960860491,-0.022602014243602753
1782774495736476400,2.898476318359375,-0.018936822190880775,0.006719517521560192,-0.04886921867728233
1782774495746477000,2.90847705078125,-0.014049900695681572,0.025045474991202354,-0.05375614017248154
1782774495756465400,2.91846533203125,-0.010995574295520782,0.030543262138962746,-0.03420845419168472
1782774495766496500,2.92849658203125,-0.009162978269159794,0.016493361443281174,0.019547687843441963
1782774495776454400,2.938454345703125,-0.006719517521560192,0.007941247895359993,0.05253441259264946
1782774495786485500,2.948485595703125,-0.006719517521560192,0.009773843921720982,0.07208210229873657
1782774495796474000,2.95847412109375,-0.009162978269159794,0.003054326167330146,0.0757472887635231
1782774495806474800,2.968474853515625,-0.016493361443281174,-0.00855211354792118,0.06169738993048668
1782774495816461800,2.9784619140625,-0.018936822190880775,-0.009773843921720982,0.036041051149368286
1782774495826493700,2.98849365234375,-0.01771509274840355,-0.00427605677396059,0.00855211354792118
1782774495836451300,2.998451416015625,-0.02015855349600315,-0.009162978269159794,-0.014049900695681572
1782774495846482400,3.008482421875,-0.021991148591041565,-0.012217304669320583,-0.03787364438176155
1782774495856471000,3.018470947265625,-0.014049900695681572,-0.0006108652451075613,-0.054367005825042725
1782774495866471700,3.0284716796875,-0.007941247895359993,0.00366519158706069,-0.05497787147760391
1782774495876460000,3.0384599609375,-0.015271631069481373,-0.00427605677396059,-0.03481931984424591
1782774495886491100,3.0484912109375,-0.025656340643763542,-0.01710422709584236,-0.01771509274840355
1782774495896449000,3.058448974609375,-0.02076941914856434,-0.01466076634824276,-0.01466076634824276
1782774495906480400,3.06848046875,-0.006719517521560192,0,-0.021380282938480377
1782774495916469000,3.078468994140625,0.019547687843441963,0.00733038317412138,-0.02687807008624077
1782774495926470000,3.088469970703125,0.042760565876960754,0.00427605677396059,-0.018325956538319588
1782774495936458200,3.098458251953125,0.05742133408784866,-0.006719517521560192,0.0006108652451075613
1782774495946458000,3.1084580078125,0.0659734457731247,-0.012217304669320583,0.015882495790719986
1782774495956538600,3.11853857421875,0.06902777403593063,-0.00733038317412138,0.025656340643763542
1782774495966447400,3.128447265625,0.0659734457731247,-0.00427605677396059,0.030543262138962746
1782774495976527600,3.138527587890625,0.05925392732024193,-0.01771509274840355,0.025045474991202354
1782774495986497800,3.148497802734375,0.05742133408784866,-0.033597588539123535,0.007941247895359993
1782774495996455700,3.15845556640625,0.04948008432984352,-0.04092797264456749,-0.016493361443281174
1782774496006486800,3.16848681640625,0.02932153269648552,-0.04214970022439957,-0.042760565876960754
1782774496016475100,3.17847509765625,0.009773843921720982,-0.036041051149368286,-0.07208210229873657
1782774496026475800,3.188475830078125,0.00427605677396059,-0.006719517521560192,-0.09712757170200348
1782774496036464400,3.19846435546875,0.005497787147760391,0.015882495790719986,-0.09651670604944229
1782774496046495200,3.2084951171875,0.009162978269159794,0.01710422709584236,-0.06230825558304787
1782774496056453000,3.218453125,0.01771509274840355,0,-0.007941247895359993
1782774496066484500,3.228484375,0.01710422709584236,-0.01771509274840355,0.04459316283464432
1782774496076472600,3.23847265625,0.016493361443281174,-0.02687807008624077,0.06658431142568588
1782774496086473200,3.24847314453125,0.021991148591041565,-0.016493361443281174,0.05803219974040985
1782774496096461800,3.2584619140625,0.022602014243602753,-0.015882495790719986,0.0354301854968071
1782774496106493200,3.2684931640625,0.019547687843441963,-0.025656340643763542,0.009162978269159794
1782774496116450800,3.278450927734375,0.01710422709584236,-0.02871066704392433,-0.015271631069481373
1782774496126482000,3.28848193359375,0.015882495790719986,-0.028099801391363144,-0.02687807008624077
1782774496136470500,3.298470458984375,0.010995574295520782,-0.02015855349600315,-0.021991148591041565
1782774496146471000,3.308470947265625,0.006108652334660292,-0.021380282938480377,-0.009773843921720982
1782774496156459500,3.31845947265625,0.009773843921720982,-0.022602014243602753,0.0024434609804302454
1782774496166490000,3.328489990234375,0.014049900695681572,-0.02076941914856434,0.009773843921720982
1782774496176448300,3.3384482421875,0.010995574295520782,-0.022602014243602753,0.01160643994808197
1782774496186479400,3.348479248046875,0.009773843921720982,-0.016493361443281174,0.00855211354792118
1782774496196468000,3.358468017578125,0.0006108652451075613,-0.013439035043120384,0.007941247895359993
1782774496206499000,3.3684990234375,-0.00733038317412138,-0.013439035043120384,0.006719517521560192
1782774496216457000,3.37845703125,-0.01710422709584236,-0.003054326167330146,0.013439035043120384
1782774496226488300,3.38848828125,-0.031154127791523933,0.0024434609804302454,0.025656340643763542
1782774496236476400,3.398476318359375,-0.036041051149368286,-0.003054326167330146,0.031154127791523933
1782774496246477300,3.408477294921875,-0.025045474991202354,-0.006719517521560192,0.021991148591041565
1782774496256465400,3.41846533203125,-0.00855211354792118,0.00427605677396059,0.009773843921720982
1782774496266496500,3.42849658203125,0,0.012217304669320583,0.0006108652451075613
1782774496276454400,3.438454345703125,0.0006108652451075613,0.014049900695681572,-0.0012217304902151227
1782774496286485500,3.448485595703125,-0.007941247895359993,0.014049900695681572,0.006719517521560192
1782774496296473900,3.458473876953125,-0.02076941914856434,0.007941247895359993,0.01710422709584236
1782774496306474800,3.468474853515625,-0.0354301854968071,0.0006108652451075613,0.016493361443281174
1782774496316463000,3.478463134765625,-0.039706241339445114,0.007941247895359993,0.005497787147760391
1782774496326494200,3.488494140625,-0.029932396486401558,0.01160643994808197,-0.006719517521560192
1782774496336451800,3.498451904296875,-0.022602014243602753,0.013439035043120384,-0.007941247895359993
1782774496346483200,3.508483154296875,-0.012217304669320583,0.012828170321881771,0.0012217304902151227
1782774496356471300,3.51847119140625,-0.006108652334660292,0.022602014243602753,0.012217304669320583
1782774496366472200,3.52847216796875,-0.005497787147760391,0.036041051149368286,0.02687807008624077
1782774496376460500,3.53846044921875,-0.01160643994808197,0.05192354694008827,0.045204028487205505
1782774496386491600,3.54849169921875,-0.018325956538319588,0.059864792972803116,0.06658431142568588
1782774496396449500,3.558449462890625,-0.013439035043120384,0.051312681287527084,0.08307767659425735
1782774496406481000,3.56848095703125,0,0.02932153269648552,0.08185594528913498
1782774496416469200,3.57846923828125,0.01466076634824276,0.01038470957428217,0.059864792972803116
1782774496426469600,3.5884697265625,0.02382374368607998,0.00733038317412138,0.030543262138962746
1782774496436458200,3.598458251953125,0.018936822190880775,0.00855211354792118,0.006108652334660292
1782774496446489300,3.6084892578125,0.00427605677396059,0.006108652334660292,-0.007941247895359993
1782774496456477700,3.618477783203125,-0.009773843921720982,0.006719517521560192,-0.015882495790719986
1782774496466478000,3.62847802734375,-0.027488935738801956,0,-0.018325956538319588
1782774496476466400,3.638466552734375,-0.04398229718208313,-0.0006108652451075613,-0.02076941914856434
1782774496486497800,3.648497802734375,-0.04642575979232788,0.006719517521560192,-0.02382374368607998
1782774496496455700,3.65845556640625,-0.0354301854968071,0.025045474991202354,-0.01710422709584236
1782774496506486800,3.66848681640625,-0.018325956538319588,0.025045474991202354,0.0024434609804302454
1782774496516475400,3.678475341796875,-0.0024434609804302454,0.004886921960860491,0.02932153269648552
1782774496526476000,3.68847607421875,0.009162978269159794,-0.00733038317412138,0.0555887371301651
1782774496536464400,3.69846435546875,0.006719517521560192,-0.00733038317412138,0.06719517707824707
1782774496546495500,3.70849560546875,-0.00427605677396059,-0.006719517521560192,0.054367005825042725
1782774496556453400,3.718453369140625,-0.01710422709584236,-0.0006108652451075613,0.02382374368607998
1782774496566484500,3.728484375,-0.027488935738801956,0.015882495790719986,-0.007941247895359993
1782774496576472600,3.73847265625,-0.03420845419168472,0.02076941914856434,-0.031154127791523933
1782774496586473200,3.74847314453125,-0.033597588539123535,0.01771509274840355,-0.036651913076639175
1782774496596461800,3.7584619140625,-0.025045474991202354,0.02015855349600315,-0.025656340643763542
1782774496606493000,3.768492919921875,-0.004886921960860491,0.01710422709584236,0.01038470957428217
1782774496616450800,3.778450927734375,0.006719517521560192,0.006108652334660292,0.0354301854968071
1782774496626482000,3.78848193359375,0.012217304669320583,-0.00366519158706069,0.04764748737215996
1782774496636500200,3.798500244140625,0.003054326167330146,-0.012217304669320583,0.04459316283464432
1782774496646471000,3.808470947265625,-0.013439035043120384,-0.01038470957428217,0.02076941914856434
1782774496656459300,3.818459228515625,-0.02687807008624077,-0.00366519158706069,-0.02076941914856434
1782774496666490600,3.82849072265625,-0.02932153269648552,0.00427605677396059,-0.06963863968849182
1782774496676448300,3.8384482421875,-0.028099801391363144,0.001832595793530345,-0.10262536257505417
1782774496686479400,3.848479248046875,-0.024434609338641167,-0.006108652334660292,-0.10201449692249298
1782774496696468000,3.858468017578125,-0.021991148591041565,-0.009162978269159794,-0.06414084881544113
1782774496706498800,3.868498779296875,-0.012828170321881771,-0.00733038317412138,-0.014049900695681572
1782774496716457000,3.87845703125,-0.004886921960860491,-0.012828170321881771,0.0354301854968071
1782774496726488300,3.88848828125,-0.0006108652451075613,-0.016493361443281174,0.0659734457731247
1782774496736476400,3.898476318359375,0.009162978269159794,-0.015271631069481373,0.06352998316287994
1782774496746477000,3.90847705078125,0.025656340643763542,-0.0024434609804302454,0.04092797264456749
1782774496756465400,3.91846533203125,0.02687807008624077,-0.0024434609804302454,0.01466076634824276
1782774496766496500,3.92849658203125,0.01771509274840355,-0.02076941914856434,-0.012217304669320583
1782774496776454400,3.938454345703125,-0.0024434609804302454,-0.015882495790719986,-0.033597588539123535
1782774496786485500,3.948485595703125,-0.024434609338641167,0.0024434609804302454,-0.05742133408784866
1782774496796473900,3.958473876953125,-0.030543262138962746,0.02687807008624077,-0.0757472887635231
1782774496806474500,3.968474609375,-0.025656340643763542,0.02932153269648552,-0.07269296050071716
1782774496816461800,3.9784619140625,-0.005497787147760391,0.01160643994808197,-0.05253441259264946
1782774496826493700,3.98849365234375,0.019547687843441963,-0.004886921960860491,-0.02015855349600315
1782774496836451300,3.998451416015625,0.036041051149368286,-0.009162978269159794,0.01160643994808197
1782774496846482700,4.008482666015625,0.03726277872920036,0.001832595793530345,0.03787364438176155
1782774496856471000,4.018470947265625,0.03176499158143997,0.012828170321881771,0.05742133408784866
1782774496866471700,4.0284716796875,0.02932153269648552,0.018936822190880775,0.06291911751031876
1782774496876460000,4.0384599609375,0.02932153269648552,0.012828170321881771,0.05742133408784866
1782774496886460700,4.048460693359375,0.02015855349600315,-0.0006108652451075613,0.04092797264456749
1782774496896540700,4.058540771484375,0.009162978269159794,-0.010995574295520782,0.012828170321881771
1782774496906480000,4.068480224609375,-0.006719517521560192,-0.006108652334660292,-0.02076941914856434
1782774496916469200,4.07846923828125,-0.021380282938480377,0.003054326167330146,-0.05375614017248154
1782774496926469600,4.0884697265625,-0.021991148591041565,0.009773843921720982,-0.0806342139840126
1782774496936417800,4.098417724609375,-0.009162978269159794,0.01160643994808197,-0.08857546001672745
1782774496946550500,4.108550537109375,0.00733038317412138,0.006108652334660292,-0.0708603709936142
1782774496956437500,4.1184375,0.021991148591041565,-0.009773843921720982,-0.036041051149368286
1782774496966569700,4.12856982421875,0.025045474991202354,-0.006108652334660292,0.009162978269159794
1782774496976466700,4.138466796875,0.012828170321881771,0.005497787147760391,0.05375614017248154
1782774496986497800,4.148497802734375,0.0006108652451075613,0.006108652334660292,0.08307767659425735
1782774496996455700,4.15845556640625,0.0012217304902151227,0.0024434609804302454,0.08429940044879913
1782774497006486800,4.16848681640625,0.004886921960860491,-0.007941247895359993,0.05803219974040985
1782774497016475400,4.178475341796875,0.0006108652451075613,-0.015271631069481373,0.01038470957428217
1782774497026444800,4.18844482421875,-0.012217304669320583,0.0006108652451075613,-0.07147123664617538
1782774497036525300,4.198525390625,-0.021991148591041565,0.012828170321881771,-0.1062905490398407
1782774497046495200,4.2084951171875,-0.02932153269648552,0.02015855349600315,-0.10323622822761536
1782774497056453400,4.218453369140625,-0.03298672288656235,0.012828170321881771,-0.0708603709936142
1782774497066453200,4.228453369140625,-0.02321287989616394,0.01038470957428217,-0.02932153269648552
1782774497076533800,4.23853369140625,-0.003054326167330146,0.016493361443281174,0.009162978269159794
1782774497086473500,4.248473388671875,0.012828170321881771,0.025045474991202354,0.045204028487205505
1782774497096461800,4.2584619140625,0.02321287989616394,0.03726277872920036,0.07147123664617538
1782774497106493000,4.268492919921875,0.02626720629632473,0.036651913076639175,0.08307767659425735
1782774497116450800,4.278450927734375,0.02076941914856434,0.024434609338641167,0.07696902006864548
1782774497126482000,4.28848193359375,0.012828170321881771,0.02626720629632473,0.059864792972803116
1782774497136470300,4.29847021484375,-0.0012217304902151227,0.030543262138962746,0.036041051149368286
1782774497146470700,4.308470703125,-0.015271631069481373,0.036041051149368286,0.00855211354792118
1782774497156459300,4.318459228515625,-0.025045474991202354,0.04459316283464432,-0.015882495790719986
1782774497166490400,4.328490478515625,-0.027488935738801956,0.036651913076639175,-0.02687807008624077
1782774497176448300,4.3384482421875,-0.028099801391363144,0.016493361443281174,-0.02687807008624077
1782774497186479400,4.348479248046875,-0.033597588539123535,0.006108652334660292,-0.02076941914856434
1782774497196468000,4.358468017578125,-0.039095375686883926,0.005497787147760391,-0.01160643994808197
1782774497206499000,4.3684990234375,-0.048258353024721146,0.00427605677396059,-0.006719517521560192
1782774497216457000,4.37845703125,-0.05497787147760391,-0.001832595793530345,-0.012217304669320583
1782774497226488300,4.38848828125,-0.04948008432984352,0.0012217304902151227,-0.02076941914856434
1782774497236476400,4.398476318359375,-0.04459316283464432,0.005497787147760391,-0.025656340643763542
1782774497246477300,4.408477294921875,-0.054367005825042725,-0.00733038317412138,-0.028099801391363144
1782774497256465400,4.41846533203125,-0.06352998316287994,-0.009773843921720982,-0.031154127791523933
1782774497266465500,4.428465576171875,-0.06352998316287994,0,-0.0354301854968071
1782774497277306400,4.439306396484375,-0.05864306539297104,0.013439035043120384,-0.03176499158143997
1782774497296473900,4.458473876953125,-0.04153883829712868,0.01038470957428217,0.01038470957428217
1782774497306474800,4.468474853515625,-0.025656340643763542,0.00733038317412138,0.02871066704392433
1782774497316463000,4.478463134765625,-0.021991148591041565,0.007941247895359993,0.04581489413976669
1782774497326494500,4.488494384765625,-0.031154127791523933,0.010995574295520782,0.05253441259264946
1782774497336451800,4.498451904296875,-0.039706241339445114,0.018936822190880775,0.04886921867728233
1782774497346483500,4.5084833984375,-0.048258353024721146,0.01771509274840355,0.039706241339445114
1782774497356471300,4.51847119140625,-0.04703662544488907,0.009773843921720982,0.01771509274840355
1782774497366472200,4.52847216796875,-0.039706241339445114,0.00427605677396059,-0.006719517521560192
1782774497376460500,4.53846044921875,-0.039095375686883926,0.001832595793530345,-0.025656340643763542
1782774497386491600,4.54849169921875,-0.04581489413976669,0.0012217304902151227,-0.04092797264456749
1782774497396449500,4.558449462890625,-0.039706241339445114,0.015882495790719986,-0.051312681287527084
1782774497406480600,4.568480712890625,-0.02871066704392433,0.02382374368607998,-0.04886921867728233
1782774497416469000,4.578468994140625,-0.01038470957428217,0.015882495790719986,-0.03726277872920036
1782774497426470000,4.588469970703125,-0.0006108652451075613,-0.0024434609804302454,-0.02321287989616394
1782774497436458200,4.598458251953125,0.00427605677396059,-0.00855211354792118,-0.00855211354792118
1782774497446489000,4.608489013671875,-0.012828170321881771,0.006719517521560192,0.0012217304902151227
1782774497456437500,4.6184375,-0.022602014243602753,0.022602014243602753,0.0012217304902151227
1782774497466569700,4.62856982421875,-0.021380282938480377,0.022602014243602753,-0.00366519158706069
1782774497476466700,4.638466796875,-0.01466076634824276,0.016493361443281174,-0.014049900695681572
1782774497486497800,4.648497802734375,-0.003054326167330146,0.025045474991202354,-0.02076941914856434
1782774497496415500,4.65841552734375,0.013439035043120384,0.036041051149368286,-0.015882495790719986
1782774497506547700,4.668547607421875,0.02932153269648552,0.02932153269648552,0.00366519158706069
1782774497516475100,4.67847509765625,0.0354301854968071,0.01038470957428217,0.028099801391363144
1782774497526476000,4.68847607421875,0.022602014243602753,-0.005497787147760391,0.04459316283464432
1782774497536464400,4.69846435546875,-0.005497787147760391,0.0012217304902151227,0.04153883829712868
1782774497546495700,4.708495849609375,-0.03298672288656235,0.02015855349600315,0.012217304669320583
1782774497556453400,4.718453369140625,-0.04764748737215996,0.03237585723400116,-0.03176499158143997
1782774497566484200,4.728484130859375,-0.04703662544488907,0.03237585723400116,-0.07024950534105301
1782774497576432600,4.7384326171875,-0.03481931984424591,0.018325956538319588,-0.08857546001672745
1782774497586534000,4.748533935546875,-0.028099801391363144,0.00427605677396059,-0.08124507963657379
1782774497597444600,4.759444580078125,-0.03237585723400116,0.0012217304902151227,-0.05925392732024193
1782774497616450800,4.778450927734375,-0.033597588539123535,0.029932396486401558,-0.007941247895359993
1782774497626482000,4.78848193359375,-0.025045474991202354,0.02076941914856434,0.014049900695681572
1782774497636470500,4.798470458984375,-0.014049900695681572,0.015882495790719986,0.024434609338641167
1782774497646471200,4.80847119140625,0.003054326167330146,0.018325956538319588,0.018936822190880775
1782774497656459300,4.818459228515625,0.015882495790719986,0.02626720629632473,0.001832595793530345
1782774497666490400,4.828490478515625,0.016493361443281174,0.03176499158143997,-0.01710422709584236
1782774497676448300,4.8384482421875,0.012828170321881771,0.03787364438176155,-0.03726277872920036
1782774497686479600,4.848479736328125,0.00855211354792118,0.05009094998240471,-0.05009094998240471
1782774497696468000,4.858468017578125,0.0012217304902151227,0.05803219974040985,-0.04948008432984352
1782774497706499000,4.8684990234375,-0.004886921960860491,0.06169738993048668,-0.03176499158143997
1782774497716457000,4.87845703125,-0.007941247895359993,0.059864792972803116,-0.00855211354792118
1782774497726488000,4.888488037109375,-0.0024434609804302454,0.060475658625364304,0.018936822190880775
1782774497736476400,4.898476318359375,0.01038470957428217,0.05864306539297104,0.04153883829712868
1782774497746477300,4.908477294921875,0.022602014243602753,0.05009094998240471,0.06108652427792549
1782774497756465400,4.91846533203125,0.03176499158143997,0.033597588539123535,0.0659734457731247
1782774497766496500,4.92849658203125,0.03298672288656235,0.018936822190880775,0.05009094998240471
1782774497776454400,4.938454345703125,0.03726277872920036,0.022602014243602753,0.019547687843441963
1782774497786485500,4.948485595703125,0.036651913076639175,0.031154127791523933,-0.009162978269159794
1782774497796474000,4.95847412109375,0.024434609338641167,0.016493361443281174,-0.02626720629632473
1782774497806474800,4.968474853515625,0.007941247895359993,-0.004886921960860491,-0.033597588539123535
1782774497816461800,4.9784619140625,-0.009773843921720982,-0.007941247895359993,-0.03726277872920036
1782774497826493200,4.9884931640625,-0.028099801391363144,-0.006108652334660292,-0.042760565876960754
1782774497836451300,4.998451416015625,-0.03726277872920036,-0.004886921960860491,-0.05375614017248154
1782774497846482400,5.008482421875,-0.03726277872920036,0.005497787147760391,-0.06536258012056351
1782774497856471000,5.018470947265625,-0.02932153269648552,0.009162978269159794,-0.07208210229873657
1782774497866471700,5.0284716796875,-0.006719517521560192,-0.00366519158706069,-0.04214970022439957
1782774497876460000,5.0384599609375,0,-0.02015855349600315,-0.012828170321881771
1782774497886491100,5.0484912109375,0.0006108652451075613,-0.03420845419168472,0.006108652334660292
1782774497896449000,5.058448974609375,-0.00855211354792118,-0.016493361443281174,0.00733038317412138
1782774497906480400,5.06848046875,-0.013439035043120384,-0.0006108652451075613,-0.006108652334660292
1782774497916469200,5.07846923828125,-0.009773843921720982,0.003054326167330146,-0.02687807008624077
1782774497926470000,5.088469970703125,0.00855211354792118,-0.006108652334660292,-0.04764748737215996
1782774497936458200,5.098458251953125,0.025656340643763542,-0.00733038317412138,-0.05497787147760391
1782774497946489300,5.1084892578125,0.0354301854968071,-0.001832595793530345,-0.05375614017248154
1782774497956477700,5.118477783203125,0.03726277872920036,0.016493361443281174,-0.03298672288656235
1782774497966478300,5.128478271484375,0.039706241339445114,0.019547687843441963,-0.006719517521560192
1782774497976466400,5.138466552734375,0.039706241339445114,0.00855211354792118,0.019547687843441963
1782774497986498000,5.148498046875,0.036651913076639175,0.0006108652451075613,0.03237585723400116
1782774497996455700,5.15845556640625,0.0354301854968071,0.00855211354792118,0.02382374368607998
1782774498006487000,5.168487060546875,0.030543262138962746,0.031154127791523933,0.010995574295520782
1782774498016475400,5.178475341796875,0.01038470957428217,0.04459316283464432,0.007941247895359993
1782774498026475800,5.188475830078125,0.0006108652451075613,0.04337143152952194,0.009162978269159794
1782774498036464400,5.19846435546875,0.007941247895359993,0.0403171069920063,0.01710422709584236
1782774498046495200,5.2084951171875,0.025045474991202354,0.027488935738801956,0.025045474991202354
1782774498056453000,5.218453125,0.04214970022439957,0.015271631069481373,0.02871066704392433
1782774498066484200,5.228484130859375,0.0507018156349659,0.01038470957428217,0.027488935738801956
1782774498076472600,5.23847265625,0.0403171069920063,0.015271631069481373,0.019547687843441963
1782774498086473500,5.248473388671875,0.025045474991202354,0.02076941914856434,0.005497787147760391
1782774498096461800,5.2584619140625,0.001832595793530345,0.025656340643763542,-0.00366519158706069
1782774498106493000,5.268492919921875,-0.01710422709584236,0.01160643994808197,-0.01160643994808197
1782774498116450800,5.278450927734375,-0.02626720629632473,-0.01160643994808197,-0.025045474991202354
1782774498126482000,5.28848193359375,-0.022602014243602753,-0.015271631069481373,-0.04886921867728233
1782774498136470500,5.298470458984375,-0.016493361443281174,-0.01160643994808197,-0.06291911751031876
1782774498146471000,5.308470947265625,-0.019547687843441963,-0.005497787147760391,-0.06108652427792549
1782774498156459300,5.318459228515625,-0.015271631069481373,0.0024434609804302454,-0.04214970022439957
1782774498166490600,5.32849072265625,-0.010995574295520782,0.01466076634824276,-0.00366519158706069
1782774498176448300,5.3384482421875,-0.00733038317412138,0.006719517521560192,0.039706241339445114
1782774498186479400,5.348479248046875,0.006719517521560192,-0.004886921960860491,0.06658431142568588
1782774498196468000,5.358468017578125,0.02626720629632473,0,0.0757472887635231
1782774498206499000,5.3684990234375,0.02871066704392433,-0.00366519158706069,0.07208210229873657
1782774498216457000,5.37845703125,0.009162978269159794,-0.015271631069481373,0.05925392732024193
1782774498226488000,5.388488037109375,-0.02932153269648552,-0.01160643994808197,0.039095375686883926
1782774498236476400,5.398476318359375,-0.06169738993048668,0.006108652334660292,0.00427605677396059
1782774498246477300,5.408477294921875,-0.07635815441608429,0.02321287989616394,-0.036041051149368286
1782774498256465400,5.41846533203125,-0.06414084881544113,0.028099801391363144,-0.06719517707824707
1782774498266496500,5.42849658203125,-0.04214970022439957,0.019547687843441963,-0.0757472887635231
1782774498276454400,5.438454345703125,-0.025045474991202354,0.01710422709584236,-0.0555887371301651
1782774498286485500,5.448485595703125,-0.003054326167330146,0.00733038317412138,0.016493361443281174
1782774498296473900,5.458473876953125,-0.01160643994808197,-0.009162978269159794,0.07208210229873657
1782774498306474500,5.468474609375,-0.02321287989616394,-0.021991148591041565,0.10018189996480942
1782774498316463000,5.478463134765625,-0.02871066704392433,-0.01710422709584236,0.09162978827953339
1782774498326494200,5.488494140625,-0.03176499158143997,-0.00427605677396059,0.059864792972803116
1782774498336451800,5.498451904296875,-0.02871066704392433,-0.0006108652451075613,0.012217304669320583
1782774498346483700,5.508483642578125,-0.015882495790719986,-0.00366519158706069,-0.03420845419168472
1782774498356471600,5.518471435546875,0.0024434609804302454,-0.004886921960860491,-0.06475171446800232
1782774498366472000,5.528471923828125,0.014049900695681572,-0.010995574295520782,-0.0708603709936142
1782774498376460500,5.53846044921875,0.018936822190880775,-0.013439035043120384,-0.04214970022439957
1782774498386491600,5.54849169921875,-0.0006108652451075613,-0.01038470957428217,0.009162978269159794
1782774498396449500,5.558449462890625,-0.02626720629632473,-0.014049900695681572,0.0555887371301651
1782774498406481000,5.56848095703125,-0.03298672288656235,0.0012217304902151227,0.07757988572120667
1782774498416469200,5.57846923828125,-0.02687807008624077,0.015882495790719986,0.08307767659425735
1782774498426469600,5.5884697265625,-0.019547687843441963,0.00855211354792118,0.07147123664617538
1782774498436458200,5.598458251953125,-0.00366519158706069,0.00366519158706069,0.04703662544488907
1782774498446489000,5.608489013671875,0.012217304669320583,0.0012217304902151227,0.01710422709584236
1782774498456477700,5.618477783203125,0.02015855349600315,0.0006108652451075613,-0.00733038317412138
1782774498466478000,5.62847802734375,0.02076941914856434,-0.0006108652451075613,-0.01466076634824276
1782774498476466400,5.638466552734375,0.021380282938480377,-0.004886921960860491,-0.009162978269159794
1782774498486497800,5.648497802734375,0.01771509274840355,-0.01771509274840355,0.006108652334660292
1782774498496455700,5.65845556640625,0.012217304669320583,-0.033597588539123535,0.02015855349600315
1782774498506486800,5.66848681640625,0.006719517521560192,-0.033597588539123535,0.02015855349600315
1782774498516475400,5.678475341796875,0.009773843921720982,-0.01160643994808197,0.007941247895359993
1782774498526475800,5.688475830078125,0.02015855349600315,0.005497787147760391,-0.00366519158706069
1782774498536464400,5.69846435546875,0.025656340643763542,0.0006108652451075613,-0.006108652334660292
1782774498546495200,5.7084951171875,0.039095375686883926,-0.0024434609804302454,-0.00366519158706069
1782774498556453000,5.718453125,0.05253441259264946,0.0024434609804302454,0.006108652334660292
1782774498566484500,5.728484375,0.0507018156349659,0.004886921960860491,0.022602014243602753
1782774498576472600,5.73847265625,0.04581489413976669,0.004886921960860491,0.036041051149368286
1782774498586473500,5.748473388671875,0.0507018156349659,0.00855211354792118,0.04459316283464432
1782774498596421600,5.758421630859375,0.05497787147760391,0.004886921960860491,0.060475658625364304
1782774498606554000,5.76855419921875,0.0507018156349659,-0.012217304669320583,0.07269296050071716
1782774498616450800,5.778450927734375,0.042760565876960754,-0.022602014243602753,0.0659734457731247
1782774498626482200,5.788482177734375,0.03481931984424591,-0.02076941914856434,0.036651913076639175
1782774498636500500,5.79850048828125,0.029932396486401558,-0.012217304669320583,-0.00366519158706069
1782774498646440000,5.80843994140625,0.02321287989616394,-0.01038470957428217,-0.03481931984424591
1782774498656520400,5.8185205078125,0.012217304669320583,-0.012217304669320583,-0.045204028487205505
1782774498666490600,5.82849072265625,0.004886921960860491,-0.02076941914856434,-0.039095375686883926
1782774498676448300,5.8384482421875,-0.00366519158706069,-0.027488935738801956,-0.02321287989616394
1782774498686479400,5.848479248046875,-0.009773843921720982,-0.03787364438176155,-0.00733038317412138
1782774498696468000,5.858468017578125,-0.00855211354792118,-0.03787364438176155,0
1782774498706499000,5.8684990234375,-0.006108652334660292,-0.025045474991202354,-0.0024434609804302454
1782774498716457000,5.87845703125,-0.007941247895359993,-0.021991148591041565,-0.010995574295520782
1782774498726488000,5.888488037109375,-0.009773843921720982,-0.019547687843441963,-0.013439035043120384
1782774498736476400,5.898476318359375,-0.015271631069481373,-0.015882495790719986,-0.01038470957428217
1782774498746477300,5.908477294921875,-0.016493361443281174,-0.009773843921720982,-0.0024434609804302454
1782774498756465400,5.91846533203125,-0.01038470957428217,0.0012217304902151227,0.01160643994808197
1782774498766496800,5.928496826171875,-0.005497787147760391,-0.0024434609804302454,0.02626720629632473
1782774498776454400,5.938454345703125,-0.003054326167330146,-0.0006108652451075613,0.039095375686883926
1782774498786454500,5.94845458984375,0.001832595793530345,0.006108652334660292,0.048258353024721146
1782774498796556000,5.95855615234375,0,0.006719517521560192,0.05009094998240471
1782774498806566100,5.968566162109375,-0.0006108652451075613,0.010995574295520782,0.042760565876960754
1782774498816461800,5.9784619140625,0.0006108652451075613,0.01710422709584236,0.03237585723400116
1782774498826493700,5.98849365234375,0.006719517521560192,0.016493361443281174,0.024434609338641167
1782774498836451300,5.998451416015625,0.00733038317412138,0.00855211354792118,0.018325956538319588
1782774498846482400,6.008482421875,0.010995574295520782,-0.00366519158706069,0.015271631069481373
1782774498856471000,6.018470947265625,0.006108652334660292,-0.013439035043120384,0.018325956538319588
1782774498866471400,6.028471435546875,-0.00427605677396059,-0.021380282938480377,0.021380282938480377
1782774498876460000,6.0384599609375,-0.012828170321881771,-0.02932153269648552,0.016493361443281174
1782774498886491400,6.048491455078125,-0.02076941914856434,-0.025656340643763542,0.009162978269159794
1782774498896449000,6.058448974609375,-0.031154127791523933,-0.016493361443281174,-0.001832595793530345
1782774498906480400,6.06848046875,-0.029932396486401558,-0.014049900695681572,-0.02076941914856434
1782774498916469000,6.078468994140625,-0.015882495790719986,-0.006108652334660292,-0.03787364438176155
1782774498926469600,6.0884697265625,-0.006719517521560192,-0.004886921960860491,-0.04337143152952194
1782774498936458200,6.098458251953125,-0.005497787147760391,-0.021991148591041565,-0.039706241339445114
1782774498946489300,6.1084892578125,-0.010995574295520782,-0.021380282938480377,-0.021380282938480377
1782774498956477700,6.118477783203125,-0.02076941914856434,-0.021380282938480377,0.00366519158706069
1782774498966447400,6.128447265625,-0.033597588539123535,-0.02687807008624077,0.02626720629632473
1782774498976487700,6.13848779296875,-0.04214970022439957,-0.02321287989616394,0.039095375686883926
1782774498986527700,6.14852783203125,-0.04214970022439957,-0.014049900695681572,0.03787364438176155
1782774498997423400,6.15942333984375,-0.025656340643763542,-0.005497787147760391,0.02687807008624077
1782774499016536300,6.178536376953125,0.02321287989616394,-0.009162978269159794,0.013439035043120384
1782774499026475800,6.188475830078125,0.0354301854968071,-0.013439035043120384,0.02015855349600315
1782774499036464400,6.19846435546875,0.02626720629632473,-0.02321287989616394,0.02687807008624077
1782774499046495500,6.20849560546875,0.0006108652451075613,-0.02382374368607998,0.02321287989616394
1782774499056453000,6.218453125,-0.019547687843441963,-0.006108652334660292,0.00366519158706069
1782774499066484200,6.228484130859375,-0.03420845419168472,0.001832595793530345,-0.015882495790719986
1782774499076472800,6.238472900390625,-0.036041051149368286,-0.00427605677396059,-0.03787364438176155
1782774499086442500,6.2484423828125,-0.019547687843441963,-0.012217304669320583,-0.05803219974040985
1782774499096522800,6.258522705078125,0.0024434609804302454,-0.009162978269159794,-0.06352998316287994
1782774499106492700,6.26849267578125,0.025656340643763542,0,-0.05314527451992035
1782774499116450800,6.278450927734375,0.04948008432984352,0.00733038317412138,-0.027488935738801956
1782774499126482200,6.288482177734375,0.05803219974040985,0.0012217304902151227,0.00427605677396059
1782774499136470300,6.29847021484375,0.06536258012056351,0,0.03176499158143997
1782774499146471200,6.30847119140625,0.0555887371301651,-0.005497787147760391,0.03420845419168472
1782774499156459300,6.318459228515625,0.029932396486401558,-0.012828170321881771,0.021991148591041565
1782774499166490600,6.32849072265625,0.019547687843441963,-0.010995574295520782,-0.00733038317412138
1782774499176448300,6.3384482421875,0.012828170321881771,-0.006719517521560192,-0.03787364438176155
1782774499186479400,6.348479248046875,0.009162978269159794,-0.012217304669320583,-0.06963863968849182
1782774499196468000,6.358468017578125,0.01771509274840355,-0.00733038317412138,-0.08796459436416626
1782774499206499000,6.3684990234375,0.031154127791523933,0.009773843921720982,-0.07819075137376785
1782774499216457000,6.37845703125,0.04398229718208313,0.010995574295520782,-0.04459316283464432
1782774499226488000,6.388488037109375,0.0507018156349659,-0.00366519158706069,0.00366519158706069
1782774499236476400,6.398476318359375,0.048258353024721146,-0.02015855349600315,0.048258353024721146
1782774499246477300,6.408477294921875,0.028099801391363144,-0.02382374368607998,0.07024950534105301
1782774499256465400,6.41846533203125,0.0006108652451075613,-0.021380282938480377,0.04886921867728233
1782774499266496500,6.42849658203125,-0.014049900695681572,-0.0006108652451075613,0.0006108652451075613
1782774499276414500,6.43841455078125,-0.019547687843441963,0.006108652334660292,-0.04642575979232788
1782774499286546700,6.448546630859375,-0.021991148591041565,-0.009162978269159794,-0.0861319974064827
1782774499296473900,6.458473876953125,-0.014049900695681572,-0.006719517521560192,-0.10934487730264664
1782774499306474500,6.468474609375,-0.00366519158706069,0.00366519158706069,-0.10201449692249298
1782774499316463000,6.478463134765625,-0.001832595793530345,0.009162978269159794,-0.059864792972803116
1782774499326463200,6.488463134765625,-0.01038470957428217,0.012217304669320583,-0.0006108652451075613
1782774499336543700,6.498543701171875,-0.02382374368607998,0.01710422709584236,0.05192354694008827
1782774499346483500,6.5084833984375,-0.031154127791523933,0.027488935738801956,0.0861319974064827
1782774499356431400,6.518431396484375,-0.03420845419168472,0.031154127791523933,0.09834930300712585
1782774499366563800,6.528563720703125,-0.031154127791523933,0.03176499158143997,0.0910189226269722
1782774499376460500,6.53846044921875,-0.019547687843441963,0.02626720629632473,0.06291911751031876
1782774499386491600,6.54849169921875,-0.00733038317412138,0.02015855349600315,0.02687807008624077
1782774499396449500,6.558449462890625,-0.003054326167330146,0.012217304669320583,-0.012828170321881771
1782774499406480600,6.568480712890625,-0.010995574295520782,0.010995574295520782,-0.04642575979232788
1782774499416469000,6.578468994140625,-0.025656340643763542,0.019547687843441963,-0.06230825558304787
1782774499426438700,6.588438720703125,-0.04092797264456749,0.02076941914856434,-0.059864792972803116
1782774499437343200,6.59934326171875,-0.04642575979232788,0.014049900695681572,-0.04581489413976669
1782774499456477700,6.618477783203125,-0.029932396486401558,0.015271631069481373,-0.006719517521560192
1782774499466478000,6.62847802734375,-0.014049900695681572,0.012217304669320583,0.006108652334660292
1782774499476466700,6.638466796875,0.00366519158706069,0.014049900695681572,0.009773843921720982
1782774499486497800,6.648497802734375,0.015882495790719986,0.01771509274840355,0.007941247895359993
1782774499496415500,6.65841552734375,0.021991148591041565,0.01771509274840355,0.006108652334660292
1782774499506548000,6.6685478515625,0.021991148591041565,0.012828170321881771,0.00366519158706069
1782774499516475100,6.67847509765625,0.01160643994808197,0.01038470957428217,0.004886921960860491
1782774499526475800,6.688475830078125,-0.005497787147760391,0.007941247895359993,0.003054326167330146
1782774499536464400,6.69846435546875,-0.014049900695681572,0.001832595793530345,-0.00427605677396059
1782774499546495500,6.70849560546875,-0.024434609338641167,0.013439035043120384,-0.018325956538319588
1782774499556453400,6.718453369140625,-0.028099801391363144,0.02626720629632473,-0.025656340643763542
1782774499566484500,6.728484375,-0.012828170321881771,0.03726277872920036,-0.021991148591041565
1782774499576432600,6.7384326171875,0.009162978269159794,0.03176499158143997,-0.00733038317412138
1782774499586564900,6.74856494140625,0.029932396486401558,0.021991148591041565,0.012828170321881771
1782774499596461800,6.7584619140625,0.04092797264456749,0.018325956538319588,0.027488935738801956
1782774499606462000,6.7684619140625,0.03787364438176155,0.02076941914856434,0.033597588539123535
1782774499616542500,6.77854248046875,0.03176499158143997,0.02321287989616394,0.036651913076639175
1782774499626482000,6.78848193359375,0.016493361443281174,0.028099801391363144,0.03176499158143997
1782774499636470500,6.798470458984375,0.0024434609804302454,0.025045474991202354,0.015882495790719986
1782774499646471200,6.80847119140625,-0.00366519158706069,0.022602014243602753,-0.00733038317412138
1782774499656459500,6.81845947265625,0.003054326167330146,0.019547687843441963,-0.03237585723400116
1782774499666459400,6.82845947265625,0.016493361443281174,0.018936822190880775,-0.05192354694008827
1782774499676540000,6.838539794921875,0.029932396486401558,0.01710422709584236,-0.05619960278272629
1782774499686479400,6.848479248046875,0.03298672288656235,0.009773843921720982,-0.04459316283464432
1782774499696468000,6.858468017578125,0.025045474991202354,-0.004886921960860491,-0.025656340643763542
1782774499706499000,6.8684990234375,0.00733038317412138,-0.006108652334660292,-0.005497787147760391
1782774499716457000,6.87845703125,-0.021991148591041565,0.001832595793530345,0.013439035043120384
1782774499726488600,6.888488525390625,-0.042760565876960754,0.006719517521560192,0.015882495790719986
1782774499736476400,6.898476318359375,-0.042760565876960754,0.01038470957428217,0.006108652334660292
1782774499746477300,6.908477294921875,-0.029932396486401558,0.009162978269159794,-0.00366519158706069
1782774499756465400,6.91846533203125,-0.018936822190880775,-0.001832595793530345,-0.00855211354792118
1782774499766496800,6.928496826171875,-0.012828170321881771,-0.014049900695681572,-0.012217304669320583
1782774499776454400,6.938454345703125,-0.016493361443281174,-0.00855211354792118,-0.010995574295520782
1782774499786485500,6.948485595703125,-0.02382374368607998,-0.00855211354792118,-0.006108652334660292
1782774499796474000,6.95847412109375,-0.02932153269648552,-0.01466076634824276,-0.00366519158706069
1782774499806474800,6.968474853515625,-0.03298672288656235,-0.015271631069481373,-0.003054326167330146
1782774499816423000,6.9784228515625,-0.0354301854968071,-0.009773843921720982,-0.01038470957428217
1782774499826487300,6.9884873046875,-0.036651913076639175,-0.003054326167330146,-0.024434609338641167
1782774499837524000,6.99952392578125,-0.029932396486401558,0.0006108652451075613,-0.04214970022439957
1782774499856471000,7.018470947265625,-0.003054326167330146,0.0006108652451075613,-0.0708603709936142
1782774499866471400,7.028471435546875,0.0012217304902151227,-0.004886921960860491,-0.06230825558304787
1782774499876460000,7.0384599609375,-0.005497787147760391,-0.0024434609804302454,-0.03726277872920036
1782774499886460700,7.048460693359375,-0.01710422709584236,0.0012217304902151227,-0.00855211354792118
1782774499896540700,7.058540771484375,-0.02382374368607998,0.009773843921720982,0.015271631069481373
1782774499906480600,7.068480712890625,-0.03298672288656235,0.02015855349600315,0.02687807008624077
1782774499916469200,7.07846923828125,-0.03726277872920036,0.02626720629632473,0.018325956538319588
1782774499926470100,7.08847021484375,-0.03237585723400116,0.036651913076639175,-0.00366519158706069
1782774499936458200,7.098458251953125,-0.01710422709584236,0.03848451003432274,-0.02076941914856434
1782774499946489300,7.1084892578125,-0.012217304669320583,0.02076941914856434,-0.02932153269648552
1782774499956477700,7.118477783203125,-0.013439035043120384,0.01038470957428217,-0.03787364438176155
1782774499966478000,7.12847802734375,-0.015882495790719986,0.018936822190880775,-0.0403171069920063
1782774499976466700,7.138466796875,-0.018936822190880775,0.03237585723400116,-0.025045474991202354
1782774499986497800,7.148497802734375,-0.016493361443281174,0.028099801391363144,-0.005497787147760391
1782774499996455700,7.15845556640625,-0.009773843921720982,0.019547687843441963,0.00855211354792118
1782774500006486800,7.16848681640625,0,0.01710422709584236,0.01466076634824276
1782774500016475400,7.178475341796875,0.005497787147760391,0.030543262138962746,0.025656340643763542
1782774500026476000,7.18847607421875,0.012828170321881771,0.033597588539123535,0.03848451003432274
1782774500036464400,7.19846435546875,0.01160643994808197,0.02076941914856434,0.05314527451992035
1782774500046495500,7.20849560546875,0.00366519158706069,0.001832595793530345,0.0555887371301651
1782774500056453400,7.218453369140625,-0.004886921960860491,-0.004886921960860491,0.03848451003432274
1782774500066484200,7.228484130859375,-0.01710422709584236,0.0012217304902151227,0.00733038317412138
1782774500076472600,7.23847265625,-0.027488935738801956,0.00427605677396059,-0.02932153269648552
1782774500086473500,7.248473388671875,-0.029932396486401558,0.009162978269159794,-0.0659734457731247
1782774500096461800,7.2584619140625,-0.02382374368607998,0.00427605677396059,-0.08368854224681854
1782774500106493000,7.268492919921875,-0.024434609338641167,-0.006719517521560192,-0.06902777403593063
1782774500116450800,7.278450927734375,-0.029932396486401558,-0.014049900695681572,-0.04337143152952194
1782774500126482000,7.28848193359375,-0.019547687843441963,-0.0006108652451075613,-0.02871066704392433
1782774500136470300,7.29847021484375,-0.006108652334660292,0.028099801391363144,-0.012828170321881771
1782774500146471200,7.30847119140625,-0.0024434609804302454,0.031154127791523933,0.015271631069481373
1782774500156459300,7.318459228515625,-0.007941247895359993,0.015271631069481373,0.04581489413976669
1782774500166490600,7.32849072265625,-0.015882495790719986,0.012217304669320583,0.06108652427792549
1782774500176448300,7.3384482421875,-0.016493361443281174,0.024434609338641167,0.051312681287527084
1782774500186479400,7.348479248046875,-0.00855211354792118,0.029932396486401558,0.027488935738801956
1782774500196468000,7.358468017578125,0.007941247895359993,0.01710422709584236,0.006719517521560192
1782774500206499000,7.3684990234375,0.01710422709584236,-0.0024434609804302454,-0.0006108652451075613
1782774500216457000,7.37845703125,0,-0.009162978269159794,0.003054326167330146
1782774500226487800,7.38848779296875,-0.018325956538319588,-0.0012217304902151227,0.0024434609804302454
1782774500236476400,7.398476318359375,-0.022602014243602753,0.01466076634824276,0.0012217304902151227
1782774500246477000,7.40847705078125,-0.02076941914856434,0.02382374368607998,0.0012217304902151227
1782774500256465400,7.41846533203125,-0.01160643994808197,0.022602014243602753,0.001832595793530345
1782774500266496800,7.428496826171875,-0.0024434609804302454,0.009162978269159794,0.006719517521560192
1782774500276454400,7.438454345703125,-0.005497787147760391,-0.0006108652451075613,0.018325956538319588
1782774500286485500,7.448485595703125,-0.022602014243602753,-0.005497787147760391,0.02687807008624077
1782774500296473900,7.458473876953125,-0.036651913076639175,-0.0006108652451075613,0.018325956538319588
1782774500306474800,7.468474853515625,-0.03787364438176155,0.009162978269159794,-0.0024434609804302454
1782774500316463000,7.478463134765625,-0.02932153269648552,0.01038470957428217,-0.02321287989616394
1782774500326494200,7.488494140625,-0.01771509274840355,0.0006108652451075613,-0.03787364438176155
1782774500336452000,7.4984521484375,-0.01038470957428217,0.0012217304902151227,-0.03420845419168472
1782774500346483200,7.508483154296875,-0.021991148591041565,0.006108652334660292,-0.015271631069481373
1782774500356471600,7.518471435546875,-0.03420845419168472,0.014049900695681572,0.00733038317412138
1782774500366472200,7.52847216796875,-0.03176499158143997,0.021380282938480377,0.02015855349600315
1782774500376460500,7.53846044921875,-0.015271631069481373,0.02015855349600315,0.022602014243602753
1782774500386522000,7.548522216796875,0.013439035043120384,0.01038470957428217,0.018936822190880775
1782774500396541000,7.558541015625,0.02871066704392433,0.0024434609804302454,0.00733038317412138
1782774500406480600,7.568480712890625,0.036651913076639175,-0.0006108652451075613,-0.006719517521560192
1782774500416469200,7.57846923828125,0.02015855349600315,-0.0024434609804302454,-0.022602014243602753
1782774500426470000,7.588469970703125,-0.014049900695681572,0.00427605677396059,-0.04581489413976669
1782774500436458200,7.598458251953125,-0.04337143152952194,0.012217304669320583,-0.07147123664617538
1782774500446489300,7.6084892578125,-0.054367005825042725,0.019547687843441963,-0.09651670604944229
1782774500456477700,7.618477783203125,-0.036651913076639175,0.036651913076639175,-0.10812314599752426
1782774500466447400,7.628447265625,-0.015271631069481373,0.05253441259264946,-0.09712757170200348
1782774500476518100,7.63851806640625,-0.003054326167330146,0.04581489413976669,-0.07452555745840073
1782774500486559000,7.64855908203125,0.007941247895359993,0.01710422709584236,-0.03298672288656235
1782774500496455700,7.65845556640625,0.018936822190880775,0.00427605677396059,0.001832595793530345
1782774500506455800,7.668455810546875,0.02626720629632473,0.005497787147760391,0.01710422709584236
1782774500516536300,7.678536376953125,0.02687807008624077,0.004886921960860491,0.00855211354792118
1782774500526475800,7.688475830078125,0.015271631069481373,-0.007941247895359993,-0.009773843921720982
1782774500536464400,7.69846435546875,0.007941247895359993,-0.02321287989616394,-0.03481931984424591
1782774500546495200,7.7084951171875,0.00733038317412138,-0.027488935738801956,-0.059864792972803116
1782774500556453400,7.718453369140625,-0.003054326167330146,-0.00855211354792118,-0.06902777403593063
1782774500566484500,7.728484375,-0.012217304669320583,0.007941247895359993,-0.06475171446800232
1782774500576432600,7.7384326171875,0.003054326167330146,0.0012217304902151227,-0.0555887371301651
1782774500586534000,7.748533935546875,0.019547687843441963,-0.01710422709584236,-0.03787364438176155
1782774500597479700,7.759479736328125,0.02382374368607998,-0.029932396486401558,-0.029932396486401558
1782774500616542500,7.77854248046875,0.018936822190880775,0.006108652334660292,-0.029932396486401558
1782774500626482000,7.78848193359375,0.02015855349600315,0.03848451003432274,-0.02015855349600315
1782774500636500500,7.79850048828125,0.006108652334660292,0.015882495790719986,-0.006719517521560192
1782774500646471000,7.808470947265625,0.015882495790719986,0.00855211354792118,-0.01038470957428217
1782774500656459500,7.81845947265625,0.02932153269648552,0.056810468435287476,-0.02932153269648552
1782774500666490600,7.82849072265625,0.030543262138962746,0.07880161702632904,-0.0708603709936142
1782774500676448300,7.8384482421875,0.01038470957428217,0.19364428520202637,-0.06230825558304787
1782774500686479600,7.848479736328125,0.009162978269159794,0.27611109614372253,0.16432274878025055
1782774500696468000,7.858468017578125,0.05864306539297104,-0.01771509274840355,0.303600013256073
1782774500706499000,7.8684990234375,0.13072516024112701,-0.09040805697441101,0.3781255781650543
1782774500716457000,7.87845703125,0.13439035415649414,-0.031154127791523933,0.33536502718925476
1782774500726488000,7.888488037109375,0.09224065393209457,0.05253441259264946,0.2168571650981903
1782774500736476700,7.8984765625,0.06536258012056351,0.11056660860776901,0.09224065393209457
1782774500746477300,7.908477294921875,0.036041051149368286,0.024434609338641167,-0.007941247895359993
1782774500756465700,7.918465576171875,0.01710422709584236,-0.05192354694008827,-0.0861319974064827
1782774500766496500,7.92849658203125,-0.01160643994808197,-0.06475171446800232,-0.18081611394882202
1782774500776454400,7.938454345703125,-0.03848451003432274,-0.05497787147760391,-0.2932153046131134
1782774500786485500,7.948485595703125,-0.051312681287527084,-0.05925392732024193,-0.37201693654060364
1782774500796473900,7.958473876953125,-0.054367005825042725,-0.09834930300712585,-0.39767327904701233
1782774500806474800,7.968474853515625,-0.05925392732024193,-0.1508837193250656,-0.3689626157283783
1782774500816461800,7.9784619140625,-0.05742133408784866,-0.13377949595451355,-0.21013765037059784
1782774500826493700,7.98849365234375,-0.0555887371301651,-0.152105450630188,-0.10506882518529892
1782774500836451600,7.99845166015625,-0.0403171069920063,-0.12522737681865692,-0.028099801391363144
1782774500846421500,8.00842138671875,-0.03726277872920036,-0.05803219974040985,0.02626720629632473
1782774500856532000,8.018531982421875,-0.04703662544488907,-0.018936822190880775,0.04886921867728233
1782774500866471700,8.0284716796875,-0.051312681287527084,-0.01160643994808197,0.05192354694008827
1782774500876460000,8.0384599609375,-0.04948008432984352,-0.009773843921720982,0.039095375686883926
1782774500886491100,8.0484912109375,-0.028099801391363144,0.0006108652451075613,0.01710422709584236
1782774500896449000,8.058448974609375,-0.00366519158706069,-0.0006108652451075613,-0.0006108652451075613
1782774500906480000,8.068480224609376,0.009773843921720982,-0.028099801391363144,-0.016493361443281174
1782774500916469000,8.078468994140625,0.009773843921720982,-0.042760565876960754,-0.02015855349600315
1782774500926470000,8.088469970703125,0.009162978269159794,-0.03237585723400116,-0.012217304669320583
1782774500936458200,8.098458251953126,0.00855211354792118,-0.025045474991202354,0.00733038317412138
1782774500946489000,8.108489013671875,0.015882495790719986,-0.03176499158143997,0.018936822190880775
1782774500956477700,8.118477783203126,0.036041051149368286,-0.05009094998240471,0.013439035043120384
1782774500966478000,8.12847802734375,0.04703662544488907,-0.0403171069920063,-0.00427605677396059
1782774500976466700,8.138466796875,0.04948008432984352,-0.02015855349600315,-0.029932396486401558
1782774500986497800,8.148497802734376,0.0507018156349659,0.009162978269159794,-0.036041051149368286
1782774500996455700,8.15845556640625,0.039095375686883926,0.015271631069481373,-0.005497787147760391
1782774501006486800,8.16848681640625,0.021380282938480377,-0.0012217304902151227,0.0403171069920063
1782774501016475400,8.178475341796876,0.012217304669320583,0.0012217304902151227,0.08002334833145142
1782774501026476000,8.18847607421875,0.02015855349600315,0.01160643994808197,0.09712757170200348
1782774501036464400,8.19846435546875,0.03481931984424591,0.003054326167330146,0.08735372871160507
1782774501046495200,8.2084951171875,0.048258353024721146,-0.009162978269159794,0.05925392732024193
1782774501056453400,8.218453369140626,0.0555887371301651,-0.015271631069481373,0.025045474991202354
1782774501066484500,8.228484375,0.0555887371301651,-0.015882495790719986,-0.006108652334660292
1782774501076472800,8.238472900390626,0.051312681287527084,-0.02382374368607998,-0.02932153269648552
1782774501086473500,8.248473388671876,0.0507018156349659,-0.02932153269648552,-0.04459316283464432
1782774501096461800,8.2584619140625,0.04764748737215996,-0.039706241339445114,-0.04886921867728233
1782774501106493000,8.268492919921876,0.03848451003432274,-0.04642575979232788,-0.04214970022439957
1782774501116450800,8.278450927734376,0.025045474991202354,-0.03848451003432274,-0.03176499158143997
1782774501126482000,8.28848193359375,0.005497787147760391,-0.01710422709584236,-0.012217304669320583
1782774501136470300,8.29847021484375,-0.00366519158706069,-0.003054326167330146,-0.003054326167330146
1782774501146471200,8.30847119140625,0.012217304669320583,-0.0024434609804302454,-0.0024434609804302454
1782774501156459500,8.31845947265625,0.0354301854968071,-0.005497787147760391,0.0006108652451075613
1782774501166490600,8.32849072265625,0.05497787147760391,0.00366519158706069,0.00366519158706069
1782774501176448300,8.3384482421875,0.06414084881544113,0.006108652334660292,0.001832595793530345
1782774501186448600,8.34844873046875,0.07024950534105301,0.005497787147760391,0.004886921960860491
1782774501196529000,8.35852880859375,0.06902777403593063,-0.006108652334660292,0.00733038317412138
1782774501206499000,8.3684990234375,0.05803219974040985,-0.018936822190880775,0.0006108652451075613
1782774501216457000,8.37845703125,0.04214970022439957,-0.009773843921720982,-0.01160643994808197
1782774501226488000,8.388488037109376,0.028099801391363144,-0.0024434609804302454,-0.029932396486401558
1782774501236476700,8.3984765625,0.025656340643763542,0.009162978269159794,-0.04459316283464432
1782774501246477000,8.40847705078125,0.02321287989616394,0.004886921960860491,-0.039095375686883926
1782774501256465400,8.41846533203125,0.027488935738801956,0.004886921960860491,-0.03420845419168472
1782774501266496500,8.42849658203125,0.039095375686883926,0.02076941914856434,-0.031154127791523933
1782774501276454400,8.438454345703125,0.04642575979232788,0.021991148591041565,-0.018936822190880775
1782774501286485800,8.44848583984375,0.04703662544488907,0.015882495790719986,0.007941247895359993
1782774501296473900,8.458473876953125,0.04214970022439957,0.001832595793530345,0.03298672288656235
1782774501306474800,8.468474853515625,0.039095375686883926,-0.006719517521560192,0.03420845419168472
1782774501316463000,8.478463134765626,0.031154127791523933,-0.0024434609804302454,0.012217304669320583
1782774501326494200,8.488494140625,0.021380282938480377,-0.001832595793530345,-0.015271631069481373
1782774501336452000,8.4984521484375,0.009162978269159794,-0.0006108652451075613,-0.03481931984424591
1782774501346483200,8.508483154296876,-0.0006108652451075613,0.00427605677396059,-0.04703662544488907
1782774501356471600,8.518471435546875,0.0024434609804302454,0.00855211354792118,-0.05192354694008827
1782774501366472200,8.52847216796875,0.021380282938480377,0.007941247895359993,-0.039706241339445114
1782774501376460500,8.53846044921875,0.031154127791523933,-0.012217304669320583,-0.00733038317412138
1782774501386491600,8.54849169921875,0.03237585723400116,-0.03420845419168472,0.018936822190880775
1782774501396449500,8.558449462890625,0.028099801391363144,-0.02382374368607998,0.03176499158143997
1782774501406481000,8.56848095703125,0.015882495790719986,-0.0024434609804302454,0.0354301854968071
1782774501416469200,8.57846923828125,0.00427605677396059,0.00733038317412138,0.03237585723400116
1782774501426470000,8.588469970703125,-0.0012217304902151227,-0.0024434609804302454,0.02015855349600315
1782774501436458200,8.598458251953126,0.005497787147760391,-0.01160643994808197,-0.00733038317412138
1782774501446489000,8.608489013671875,0.021380282938480377,-0.013439035043120384,-0.03726277872920036
1782774501456477700,8.618477783203126,0.012828170321881771,-0.022602014243602753,-0.051312681287527084
1782774501466447400,8.628447265625,-0.0006108652451075613,-0.022602014243602753,-0.05192354694008827
1782774501476741400,8.638741455078126,-0.012828170321881771,-0.02321287989616394,-0.04764748737215996
1782774501486466800,8.648466796875,-0.02076941914856434,-0.02626720629632473,-0.0507018156349659
1782774501496507100,8.658507080078126,-0.014049900695681572,-0.019547687843441963,-0.05253441259264946
1782774501506548000,8.6685478515625,-0.001832595793530345,-0.015882495790719986,-0.04153883829712868
1782774501516475100,8.67847509765625,0.010995574295520782,-0.02076941914856434,-0.02015855349600315
1782774501526476000,8.68847607421875,0.024434609338641167,-0.024434609338641167,-0.001832595793530345
1782774501536464400,8.69846435546875,0.033597588539123535,-0.01771509274840355,-0.0024434609804302454
1782774501546495500,8.70849560546875,0.03481931984424591,-0.00733038317412138,-0.012217304669320583
1782774501556453400,8.718453369140626,0.018325956538319588,-0.0024434609804302454,-0.01710422709584236
1782774501566484200,8.728484130859375,-0.007941247895359993,-0.00366519158706069,-0.01771509274840355
1782774501576472600,8.73847265625,-0.021380282938480377,-0.006108652334660292,-0.027488935738801956
1782774501586473500,8.748473388671876,-0.027488935738801956,-0.003054326167330146,-0.0403171069920063
1782774501596461800,8.7584619140625,-0.02687807008624077,-0.003054326167330146,-0.05009094998240471
1782774501606493000,8.768492919921876,-0.01038470957428217,0,-0.059864792972803116
1782774501616450800,8.778450927734376,-0.001832595793530345,0.00427605677396059,-0.059864792972803116
1782774501626482000,8.78848193359375,0.00855211354792118,0.010995574295520782,-0.05314527451992035
1782774501636470500,8.798470458984376,0.01771509274840355,0.025656340643763542,-0.022602014243602753
1782774501646471200,8.80847119140625,0.02871066704392433,0.04092797264456749,0.029932396486401558
1782774501656459300,8.818459228515625,0.04703662544488907,0.02687807008624077,0.08979719132184982
1782774501666490400,8.828490478515626,0.04581489413976669,0.01710422709584236,0.09040805697441101
1782774501676448300,8.8384482421875,0.025656340643763542,0.025045474991202354,0.05803219974040985
1782774501686479400,8.848479248046875,0.0012217304902151227,0.11789698898792267,0.1563815027475357
1782774501696467700,8.8584677734375,0.027488935738801956,-0.09407325088977814,0.11850785464048386
1782774501706499000,8.8684990234375,0.06475171446800232,-0.06169738993048668,0.06902777403593063
1782774501716457000,8.87845703125,0.04459316283464432,-0.015271631069481373,-0.015882495790719986
1782774501726488000,8.888488037109376,0.01160643994808197,0.006108652334660292,-0.09346238523721695
1782774501736476400,8.898476318359375,-0.00733038317412138,0.007941247895359993,-0.14966198801994324
1782774501746477000,8.90847705078125,-0.036651913076639175,-0.013439035043120384,-0.19853121042251587
1782774501756465700,8.918465576171876,-0.06352998316287994,-0.010995574295520782,-0.252287358045578
1782774501766496800,8.928496826171875,-0.07880161702632904,0.0006108652451075613,-0.27000242471694946
1782774501776454400,8.938454345703125,-0.06230825558304787,-0.016493361443281174,-0.2223549485206604
1782774501786485500,8.948485595703126,-0.019547687843441963,-0.033597588539123535,-0.1014036312699318
1782774501796474000,8.95847412109375,0.01038470957428217,-0.0757472887635231,0.01771509274840355
