time,seconds_elapsed,z,y,x
1782774760856401200,0.176401123046875,-0.04194021224975586,-0.12827682495117188,-0.08599400520324707
1782774760866380300,0.18638037109375,-0.19420242309570312,-0.12620067596435547,-0.167239248752594
1782774760876390100,0.19639013671875,-0.21925878524780273,-0.17220306396484375,-0.1930912733078003
1782774760886400000,0.20639990234375,-0.2530689239501953,-0.18627357482910156,-0.10873615741729736
1782774760896379100,0.216379150390625,-0.24778366088867188,-0.1156625747680664,0.006319522857666016
1782774760906388700,0.226388671875,-0.16185331344604492,-0.07330989837646484,0.04653060436248779
1782774760916398600,0.236398681640625,-0.1547379493713379,-0.07170391082763672,0.06955671310424805
1782774760926377700,0.246377685546875,-0.1927318572998047,-0.058381080627441406,-0.00031197071075439453
1782774760936387600,0.2563876953125,-0.13520431518554688,-0.07386112213134766,-0.14519613981246948
1782774760946397400,0.2663974609375,-0.1360611915588379,-0.09381103515625,-0.21219217777252197
1782774760956407000,0.276406982421875,-0.09221267700195312,-0.08708477020263672,-0.21164536476135254
1782774760966386400,0.286386474609375,0.043849945068359375,-0.08927631378173828,-0.12779951095581055
1782774760976396300,0.296396240234375,0.08603191375732422,-0.08864879608154297,-0.009345054626464844
1782774760986406000,0.306406005859375,0.06438541412353516,-0.11723995208740234,-0.11778700351715088
1782774760996385000,0.316385009765625,0.06722450256347656,-0.14157772064208984,-0.1763109564781189
1782774761006395000,0.326394775390625,0.06034374237060547,-0.12283611297607422,-0.10003149509429932
1782774761016404500,0.336404541015625,0.024892807006835938,-0.1473093032836914,-0.14795678853988647
1782774761026384000,0.3463837890625,-0.06214284896850586,-0.21070003509521484,-0.13322478532791138
1782774761036393700,0.356393798828125,-0.09842252731323242,-0.18095016479492188,-0.12336969375610352
1782774761046403300,0.3664033203125,-0.17567825317382812,-0.25655174255371094,-0.28947287797927856
1782774761056382700,0.3763828125,-0.20102643966674805,-0.324737548828125,-0.384840190410614
1782774761066392600,0.386392578125,-0.1555933952331543,-0.2869091033935547,-0.2753538489341736
1782774761076402400,0.39640234375,-0.09638643264770508,-0.25572967529296875,-0.17491304874420166
1782774761086381600,0.406381591796875,-0.025260448455810547,-0.18349266052246094,0.08803761005401611
1782774761096391200,0.41639111328125,-0.04750394821166992,-0.11350440979003906,0.1486668586730957
1782774761106400800,0.42640087890625,-0.00811624526977539,-0.10810279846191406,-0.013635873794555664
1782774761116380200,0.436380126953125,0.044486045837402344,-0.16943931579589844,-0.10650014877319336
1782774761126390000,0.44639013671875,0.1486673355102539,-0.20160388946533203,-0.12411195039749146
1782774761136400000,0.45639990234375,0.21646690368652344,-0.23117351531982422,-0.11742633581161499
1782774761146379000,0.46637890625,0.18220233917236328,-0.2539663314819336,-0.13029640913009644
1782774761156388900,0.476388916015625,0.033213138580322266,-0.26123619079589844,-0.09129297733306885
1782774761166398700,0.486398681640625,-0.18158960342407227,-0.21272563934326172,-0.013174057006835938
1782774761176377900,0.4963779296875,-0.2579464912414551,-0.22252845764160156,0.056435346603393555
1782774761186387700,0.5063876953125,-0.367734432220459,-0.2275257110595703,0.10639262199401855
1782774761196397300,0.516397216796875,-0.44266223907470703,-0.20094013214111328,0.008623123168945312
1782774761206407200,0.5264072265625,-0.4091763496398926,-0.1975107192993164,-0.004525542259216309
1782774761216386300,0.53638623046875,-0.2873497009277344,-0.16638851165771484,0.05175650119781494
1782774761226396200,0.546396240234375,-0.12468624114990234,-0.1986989974975586,0.02381753921508789
1782774761236405800,0.55640576171875,-0.053804874420166016,-0.26177978515625,-0.08263647556304932
1782774761246385200,0.56638525390625,0.0007762908935546875,-0.25806236267089844,-0.14117032289505005
1782774761256395000,0.57639501953125,-0.03185892105102539,-0.22147178649902344,-0.10680681467056274
1782774761266404900,0.58640478515625,-0.18734025955200195,-0.21202564239501953,-0.17097008228302002
1782774761276384000,0.596384033203125,-0.21291446685791016,-0.17900562286376953,-0.18205440044403076
1782774761286393900,0.606393798828125,-0.11017513275146484,-0.1573963165283203,-0.08348101377487183
1782774761296403500,0.616403564453125,0.010505199432373047,-0.0727682113647461,0.13594233989715576
1782774761306382600,0.626382568359375,-0.004817962646484375,0.01407623291015625,0.2567096948623657
1782774761316392400,0.636392333984375,-0.19784307479858398,0.04724407196044922,0.27011537551879883
1782774761326402300,0.64640234375,-0.2884507179260254,0.06487464904785156,0.10573446750640869
1782774761336381400,0.65638134765625,-0.3457798957824707,-0.030196189880371094,-0.07766366004943848
1782774761346391300,0.666391357421875,-0.31449460983276367,-0.12668514251708984,-0.17762541770935059
1782774761356401000,0.67640087890625,-0.2100982666015625,-0.17606067657470703,-0.22815388441085815
1782774761366380300,0.68638037109375,-0.023103713989257812,-0.14939022064208984,-0.14672446250915527
1782774761376390100,0.69639013671875,0.19036626815795898,-0.16451549530029297,-0.0400160551071167
1782774761386400000,0.70639990234375,0.25890398025512695,-0.12976551055908203,0.12278616428375244
1782774761396379100,0.716379150390625,0.1448807716369629,-0.11385345458984375,0.11967575550079346
1782774761406389000,0.726388916015625,-0.12437677383422852,-0.16771221160888672,-0.0027043819427490234
1782774761416398600,0.736398681640625,-0.3824596405029297,-0.17830276489257812,-0.154807448387146
1782774761426377700,0.746377685546875,-0.4834465980529785,-0.16343116760253906,-0.2699282169342041
1782774761436387600,0.7563876953125,-0.45830297470092773,-0.16021060943603516,-0.29808688163757324
1782774761446397200,0.766397216796875,-0.31357860565185547,-0.13171005249023438,-0.18999749422073364
1782774761456407000,0.776406982421875,-0.10495948791503906,-0.08710289001464844,-0.10213708877563477
1782774761466386400,0.786386474609375,0.045925140380859375,-0.10807037353515625,-0.09882593154907227
1782774761476396300,0.796396240234375,0.10712766647338867,-0.09259986877441406,-0.12623298168182373
1782774761486406000,0.806406005859375,0.19591903686523438,-0.060977935791015625,-0.08450216054916382
1782774761496385000,0.816385009765625,0.17371845245361328,-0.056446075439453125,-0.004786431789398193
1782774761506395000,0.826394775390625,0.06913995742797852,-0.062286376953125,-0.017817378044128418
1782774761516404700,0.83640478515625,0.07534074783325195,-0.013503074645996094,-0.10399281978607178
1782774761526383900,0.8463837890625,0.06528854370117188,-0.03207969665527344,-0.11051487922668457
1782774761536393700,0.856393798828125,0.05598306655883789,-0.07491683959960938,-0.06013691425323486
1782774761546403300,0.8664033203125,0.03270149230957031,-0.14180469512939453,-0.02251952886581421
1782774761556382700,0.8763828125,-0.016985416412353516,-0.17754268646240234,-0.02546560764312744
1782774761566392600,0.886392578125,-0.11903715133666992,-0.2302570343017578,-0.16423249244689941
1782774761576402200,0.896402099609375,-0.22066831588745117,-0.2184619903564453,-0.12175792455673218
1782774761586381300,0.90638134765625,-0.2558455467224121,-0.1056976318359375,-0.04204916954040527
1782774761596391200,0.91639111328125,-0.17962360382080078,-0.07848167419433594,-0.03238105773925781
1782774761606401000,0.926401123046875,-0.1068263053894043,-0.10576057434082031,-0.02549564838409424
1782774761616380200,0.936380126953125,-0.00908517837524414,-0.10600471496582031,0.024628758430480957
1782774761626390000,0.94639013671875,0.03742265701293945,-0.15607357025146484,-0.13793236017227173
1782774761636399900,0.95639990234375,0.045771121978759766,-0.1799163818359375,-0.07027757167816162
1782774761646379000,0.96637890625,0.04260110855102539,-0.187164306640625,-0.08705532550811768
1782774761656388900,0.976388916015625,0.051602840423583984,-0.21125316619873047,-0.08250665664672852
1782774761666398700,0.986398681640625,0.03681755065917969,-0.2138500213623047,-0.0709834098815918
1782774761676377900,0.9963779296875,0.022617816925048828,-0.1999826431274414,-0.08583062887191772
1782774761686387700,1.0063876953125,-0.026288509368896484,-0.20104694366455078,-0.053304433822631836
1782774761696397300,1.016397216796875,-0.05927276611328125,-0.19805622100830078,-0.06449925899505615
1782774761706407200,1.0264072265625,-0.1650071144104004,-0.17898178100585938,0.03603696823120117
1782774761716386300,1.03638623046875,-0.21972131729125977,-0.14104080200195312,0.06620484590530396
1782774761726396200,1.046396240234375,-0.22927236557006836,-0.1579914093017578,0.026892900466918945
1782774761736405800,1.05640576171875,-0.2278895378112793,-0.20555877685546875,0.07404792308807373
1782774761746385200,1.06638525390625,-0.25138330459594727,-0.1568746566772461,0.032521724700927734
1782774761756395000,1.07639501953125,-0.20836877822875977,-0.1582317352294922,-0.061309218406677246
1782774761766404600,1.086404541015625,-0.08500480651855469,-0.16861724853515625,-0.028372526168823242
1782774761776384000,1.096384033203125,-0.037004947662353516,-0.1232767105102539,0.08991950750350952
1782774761786393900,1.106393798828125,-0.0013642311096191406,-0.06095409393310547,0.061879873275756836
1782774761796403500,1.116403564453125,0.01087045669555664,0.015463829040527344,0.19903314113616943
1782774761806382800,1.1263828125,0.018924236297607422,0.005436897277832031,0.20869022607803345
1782774761816392400,1.136392333984375,0.048305511474609375,-0.04281902313232422,0.17562681436538696
1782774761826402000,1.146402099609375,0.03429555892944336,-0.09340763092041016,0.10041439533233643
1782774761836381400,1.15638134765625,-0.003968715667724609,-0.16785144805908203,0.061887264251708984
1782774761846391300,1.166391357421875,-0.06866073608398438,-0.2351398468017578,-0.06919366121292114
1782774761856401200,1.176401123046875,-0.0616602897644043,-0.3526897430419922,-0.16860085725784302
1782774761866380300,1.18638037109375,0.02877664566040039,-0.34786224365234375,-0.060669779777526855
1782774761876390100,1.19639013671875,0.09467792510986328,-0.32583045959472656,0.0050103068351745605
1782774761886400000,1.20639990234375,0.1220088005065918,-0.2700653076171875,0.07456022500991821
1782774761896379100,1.216379150390625,0.01408243179321289,-0.24118518829345703,0.10270166397094727
1782774761906388700,1.226388671875,-0.1440138816833496,-0.31182289123535156,-0.06935465335845947
1782774761916398600,1.236398681640625,-0.25580453872680664,-0.3230924606323242,-0.1639818549156189
1782774761926377700,1.246377685546875,-0.0532069206237793,-0.3215465545654297,-0.2227899432182312
1782774761936387600,1.2563876953125,-0.0772705078125,-0.39574241638183594,-0.29181987047195435
1782774761946397400,1.2663974609375,-0.12720346450805664,-0.3455629348754883,-0.21602356433868408
1782774761956407000,1.276406982421875,-0.15230751037597656,-0.2765951156616211,-0.11244088411331177
1782774761966386400,1.286386474609375,-0.16758012771606445,-0.19084644317626953,0.0014513731002807617
1782774761976396300,1.296396240234375,-0.21152400970458984,-0.1314382553100586,0.007368206977844238
1782774761986406000,1.306406005859375,-0.2625918388366699,-0.11283016204833984,-0.07693374156951904
1782774761996385000,1.316385009765625,-0.28705787658691406,-0.09436893463134766,-0.06290507316589355
1782774762006395000,1.326394775390625,-0.25885486602783203,-0.07115554809570312,-0.1370592713356018
1782774762016404500,1.336404541015625,-0.2163548469543457,-0.026472091674804688,-0.17886048555374146
1782774762026384000,1.3463837890625,-0.15703964233398438,0.07324981689453125,-0.12491005659103394
1782774762036393700,1.356393798828125,-0.1094818115234375,0.18346595764160156,-0.0644184947013855
1782774762046403600,1.366403564453125,-0.06196260452270508,0.2746868133544922,0.10232740640640259
1782774762056382700,1.3763828125,-0.0409855842590332,0.354156494140625,0.19844090938568115
1782774762066392600,1.386392578125,-0.06522369384765625,0.2802419662475586,0.20619261264801025
1782774762076402200,1.396402099609375,-0.14808225631713867,0.15649986267089844,0.12200695276260376
1782774762086381600,1.406381591796875,-0.15180349349975586,0.04689788818359375,-0.017908155918121338
1782774762096391200,1.41639111328125,-0.1769123077392578,-0.070068359375,-0.10165512561798096
1782774762106400800,1.42640087890625,-0.19689226150512695,-0.1464996337890625,-0.09441494941711426
1782774762116380200,1.436380126953125,-0.1428966522216797,-0.10547161102294922,-0.010774433612823486
1782774762126390000,1.44639013671875,-0.08990335464477539,-0.05671501159667969,0.08917278051376343
1782774762136399600,1.456399658203125,-0.10428714752197266,-0.0604705810546875,0.11739671230316162
1782774762146379000,1.46637890625,-0.14043140411376953,-0.12169933319091797,-0.04457700252532959
1782774762156388900,1.476388916015625,-0.06723546981811523,-0.21857833862304688,-0.13087427616119385
1782774762166398700,1.486398681640625,-0.00666046142578125,-0.27205562591552734,-0.14273035526275635
1782774762176377900,1.4963779296875,0.06394529342651367,-0.30893611907958984,-0.16722643375396729
1782774762186387700,1.5063876953125,0.05175495147705078,-0.30316638946533203,-0.10609978437423706
1782774762196397300,1.516397216796875,-0.011246681213378906,-0.2910032272338867,0.01814788579940796
1782774762206407200,1.5264072265625,-0.12064170837402344,-0.1574268341064453,0.14428722858428955
1782774762216386300,1.53638623046875,-0.23143672943115234,-0.12485218048095703,0.16220581531524658
1782774762226396200,1.546396240234375,-0.313448429107666,-0.1737356185913086,0.04881250858306885
1782774762236406000,1.556406005859375,-0.26445579528808594,-0.2366924285888672,-0.020897865295410156
1782774762246385200,1.56638525390625,-0.1791830062866211,-0.2771129608154297,-0.07845890522003174
1782774762256395000,1.57639501953125,-0.167724609375,-0.28059864044189453,-0.13646197319030762
1782774762266404600,1.586404541015625,-0.1381840705871582,-0.2811126708984375,-0.13756710290908813
1782774762276384000,1.596384033203125,-0.11412191390991211,-0.24765586853027344,-0.041735827922821045
1782774762286393900,1.606393798828125,-0.09526777267456055,-0.16598892211914062,0.02396214008331299
1782774762296403700,1.61640380859375,0.07851457595825195,-0.13179683685302734,0.11286002397537231
1782774762306382800,1.6263828125,0.2532525062561035,-0.08483028411865234,0.3443658947944641
1782774762316392400,1.636392333984375,0.2853574752807617,-0.09210777282714844,0.3899305462837219
1782774762326402300,1.64640234375,0.16059207916259766,-0.14794540405273438,0.15665662288665771
1782774762336381400,1.65638134765625,0.011762619018554688,-0.23736858367919922,0.06875228881835938
1782774762346391300,1.666391357421875,-0.16825103759765625,-0.30643653869628906,0.007620513439178467
1782774762356401000,1.67640087890625,-0.26814937591552734,-0.31622982025146484,-0.03632307052612305
1782774762366380300,1.68638037109375,-0.30423402786254883,-0.2897071838378906,-0.017894864082336426
1782774762376390100,1.69639013671875,-0.2579479217529297,-0.3007326126098633,0.0621606707572937
1782774762386400000,1.70639990234375,-0.23181819915771484,-0.31598377227783203,0.100746750831604
1782774762396379100,1.716379150390625,-0.15831518173217773,-0.3261404037475586,0.09327328205108643
1782774762406388700,1.726388671875,-0.1450042724609375,-0.3361530303955078,0.042942702770233154
1782774762416398600,1.736398681640625,-0.10800743103027344,-0.28140735626220703,0.03820830583572388
1782774762426377700,1.746377685546875,-0.18343448638916016,-0.28654956817626953,0.05485635995864868
1782774762436387600,1.7563876953125,-0.30462646484375,-0.3060150146484375,-0.09745514392852783
1782774762446397400,1.7663974609375,-0.22650718688964844,-0.29835987091064453,-0.20320403575897217
1782774762456407000,1.776406982421875,-0.02175426483154297,-0.31088829040527344,-0.14440828561782837
1782774762466386400,1.786386474609375,0.18140268325805664,-0.2602815628051758,-0.017246723175048828
1782774762476396300,1.796396240234375,0.2721519470214844,-0.19289875030517578,0.10675007104873657
1782774762486406000,1.806406005859375,0.23990535736083984,-0.1430063247680664,0.11334681510925293
1782774762496385000,1.816385009765625,0.04775524139404297,-0.1305379867553711,-0.0300101637840271
1782774762506395000,1.826394775390625,-0.19388675689697266,-0.12932109832763672,-0.14348053932189941
1782774762516404500,1.836404541015625,-0.32860422134399414,-0.08097648620605469,-0.13268303871154785
1782774762526383900,1.8463837890625,-0.3206958770751953,-0.04880237579345703,-0.029376327991485596
1782774762536393700,1.856393798828125,-0.2742929458618164,0.010811805725097656,0.06652820110321045
1782774762546403300,1.8664033203125,-0.1463336944580078,0.06671524047851562,0.1627628207206726
1782774762556382700,1.8763828125,-0.035027503967285156,0.04224967956542969,0.07080966234207153
1782774762566392600,1.886392578125,0.09377050399780273,-0.04386711120605469,-0.07141751050949097
1782774762576402200,1.896402099609375,0.23349428176879883,-0.1846761703491211,-0.16181904077529907
1782774762586381600,1.906381591796875,0.2769908905029297,-0.2775077819824219,-0.25310444831848145
1782774762596391200,1.91639111328125,0.22536563873291016,-0.3061408996582031,-0.321414053440094
1782774762606401000,1.926401123046875,0.05692291259765625,-0.2715635299682617,-0.3010672330856323
1782774762616380200,1.936380126953125,-0.19767189025878906,-0.19364166259765625,-0.137384831905365
1782774762626390000,1.94639013671875,-0.35990381240844727,-0.07419967651367188,0.03265124559402466
1782774762636399900,1.95639990234375,-0.31870031356811523,0.07416820526123047,0.22968542575836182
1782774762646379000,1.96637890625,-0.21836042404174805,0.08754634857177734,0.2167465090751648
1782774762656388900,1.976388916015625,-0.11214160919189453,-0.03397846221923828,-0.03995859622955322
1782774762666398700,1.986398681640625,0.08407020568847656,-0.17089176177978516,-0.27894240617752075
1782774762676377900,1.9963779296875,0.20351934432983398,-0.21090221405029297,-0.2650787830352783
1782774762686387700,2.0063876953125,0.24344158172607422,-0.2481851577758789,-0.18966686725616455
1782774762696397300,2.016397216796875,0.19609451293945312,-0.25728702545166016,-0.1201101541519165
1782774762706407200,2.0264072265625,0.027401447296142578,-0.24624252319335938,-0.02843308448791504
1782774762716386300,2.03638623046875,-0.19957208633422852,-0.19873523712158203,0.021035432815551758
1782774762726396200,2.046396240234375,-0.44991207122802734,-0.17175865173339844,-0.00010859966278076172
1782774762736405800,2.05640576171875,-0.5027661323547363,-0.15009498596191406,0.08352327346801758
1782774762746385200,2.06638525390625,-0.40843725204467773,-0.12536144256591797,0.16900229454040527
1782774762756395000,2.07639501953125,-0.28039073944091797,-0.11278629302978516,0.08534741401672363
1782774762766404600,2.086404541015625,-0.12402009963989258,-0.19713878631591797,-0.09228432178497314
1782774762776384000,2.096384033203125,0.08777713775634766,-0.21588802337646484,-0.13278377056121826
1782774762786393900,2.106393798828125,0.25887012481689453,-0.16753196716308594,-0.15960192680358887
1782774762796403500,2.116403564453125,0.2742323875427246,-0.12745094299316406,-0.08161276578903198
1782774762806382800,2.1263828125,0.1688690185546875,-0.04366779327392578,0.024008750915527344
1782774762816392400,2.136392333984375,-0.052014827728271484,0.014094352722167969,0.07436764240264893
1782774762826402000,2.146402099609375,-0.30599498748779297,0.04645538330078125,0.06553930044174194
1782774762836381400,2.15638134765625,-0.5373291969299316,0.011107444763183594,-0.061512768268585205
1782774762846391300,2.166391357421875,-0.5868003368377686,-0.07463455200195312,-0.22482937574386597
1782774762856401200,2.176401123046875,-0.47573280334472656,-0.10909748077392578,-0.24295967817306519
1782774762866380300,2.18638037109375,-0.20634984970092773,-0.08384895324707031,-0.1296292543411255
1782774762876390100,2.19639013671875,0.03736400604248047,-0.02295970916748047,-0.05315041542053223
1782774762886400000,2.20639990234375,0.18148136138916016,0.010012626647949219,0.03893911838531494
1782774762896379100,2.216379150390625,0.14499330520629883,-0.007909774780273438,-0.006079435348510742
1782774762906388700,2.226388671875,0.1440119743347168,-0.046027183532714844,-0.09590214490890503
1782774762916398600,2.236398681640625,0.07732248306274414,-0.06569194793701172,-0.18521136045455933
1782774762926377700,2.246377685546875,0.10001516342163086,-0.08818531036376953,-0.2117975950241089
1782774762936387600,2.2563876953125,0.16373777389526367,-0.11080551147460938,-0.11906003952026367
1782774762946397400,2.2663974609375,0.11265993118286133,-0.1286153793334961,-0.027309000492095947
1782774762956407000,2.276406982421875,0.05995321273803711,-0.11804485321044922,0.02817004919052124
1782774762966386400,2.286386474609375,-0.05606651306152344,-0.08410930633544922,0.14733165502548218
1782774762976396300,2.296396240234375,-0.2583584785461426,-0.07281780242919922,0.18214523792266846
1782774762986406000,2.306406005859375,-0.4042534828186035,-0.11243247985839844,0.12805145978927612
1782774762996385000,2.316385009765625,-0.47066450119018555,-0.1953449249267578,0.009083688259124756
1782774763006395000,2.326394775390625,-0.4067568778991699,-0.2392749786376953,-0.045265793800354004
1782774763016404500,2.336404541015625,-0.1904892921447754,-0.2744121551513672,-0.07330119609832764
1782774763026384000,2.3463837890625,0.1485753059387207,-0.23089885711669922,0.08988922834396362
1782774763036393700,2.356393798828125,0.3274345397949219,-0.15511226654052734,0.2042543888092041
1782774763046403300,2.3664033203125,0.28711652755737305,-0.13733768463134766,0.11052322387695312
1782774763056382700,2.3763828125,0.08838653564453125,-0.22950172424316406,-0.05210423469543457
1782774763066392600,2.386392578125,-0.30826711654663086,-0.33156585693359375,-0.12878751754760742
1782774763076402200,2.396402099609375,-0.6007993221282959,-0.33233642578125,-0.1441938877105713
1782774763086381600,2.406381591796875,-0.6255495548248291,-0.2562274932861328,-0.11971497535705566
1782774763096391200,2.41639111328125,-0.5170934200286865,-0.24068927764892578,0.04030376672744751
1782774763106401000,2.426401123046875,-0.37931156158447266,-0.22544479370117188,0.027227580547332764
1782774763116380200,2.436380126953125,-0.21415090560913086,-0.1844806671142578,-0.054765284061431885
1782774763126390000,2.44639013671875,-0.037140846252441406,-0.17348957061767578,-0.12630754709243774
1782774763136399600,2.456399658203125,0.06670045852661133,-0.19536495208740234,-0.18107479810714722
1782774763146379000,2.46637890625,0.13945674896240234,-0.17416858673095703,-0.26928970217704773
1782774763156388900,2.476388916015625,0.32227373123168945,-0.11462688446044922,-0.1827148199081421
1782774763166398700,2.486398681640625,0.39917993545532227,-0.09067249298095703,-0.09909206628799438
1782774763176377900,2.4963779296875,0.4648323059082031,-0.055095672607421875,-0.008263468742370605
1782774763186387700,2.5063876953125,0.4045066833496094,-0.012767791748046875,0.07042157649993896
1782774763196397300,2.516397216796875,0.17975759506225586,-0.03426074981689453,0.039253413677215576
1782774763206407200,2.5264072265625,-0.13637971878051758,-0.10342121124267578,-0.029757916927337646
1782774763216386300,2.53638623046875,-0.38532590866088867,-0.1522846221923828,-0.08186817169189453
1782774763226396200,2.546396240234375,-0.49367308616638184,-0.1433248519897461,-0.0840875506401062
1782774763236406000,2.556406005859375,-0.4754064083099365,-0.171356201171875,-0.05295300483703613
1782774763246385200,2.56638525390625,-0.3548731803894043,-0.24817180633544922,-0.08403176069259644
1782774763256395000,2.57639501953125,-0.15176963806152344,-0.2538127899169922,-0.05502873659133911
1782774763266404600,2.586404541015625,0.06301021575927734,-0.19826221466064453,0.02394247055053711
1782774763276384000,2.596384033203125,0.20090007781982422,-0.09703540802001953,0.10235381126403809
1782774763286393900,2.606393798828125,0.18779563903808594,-0.18842124938964844,0.04898512363433838
1782774763296403700,2.61640380859375,0.0033020973205566406,-0.29344940185546875,-0.07119536399841309
1782774763306382800,2.6263828125,-0.1549973487854004,-0.2727670669555664,-0.1904083490371704
1782774763316392400,2.636392333984375,-0.13820123672485352,-0.18039226531982422,-0.13030743598937988
1782774763326402000,2.646402099609375,-0.07196664810180664,-0.13059234619140625,0.04826629161834717
1782774763336381400,2.65638134765625,-0.037354469299316406,-0.10921192169189453,0.12550336122512817
1782774763346391300,2.666391357421875,-0.0603179931640625,-0.1524953842163086,0.038434505462646484
1782774763356401000,2.67640087890625,-0.059329986572265625,-0.19109249114990234,-0.07145023345947266
1782774763366380300,2.68638037109375,-0.11791801452636719,-0.20589733123779297,-0.07825624942779541
1782774763376390100,2.69639013671875,-0.1925182342529297,-0.18271446228027344,-0.02567201852798462
1782774763386399700,2.706399658203125,-0.22842836380004883,-0.15008068084716797,0.011897385120391846
1782774763396379100,2.716379150390625,-0.19287967681884766,-0.09332084655761719,0.025471389293670654
1782774763406388700,2.726388671875,-0.17727231979370117,-0.07930278778076172,-0.05161309242248535
1782774763416398600,2.736398681640625,-0.09107828140258789,-0.13185977935791016,-0.20611333847045898
1782774763426377700,2.746377685546875,-0.009099006652832031,-0.14766788482666016,-0.19249647855758667
1782774763436387600,2.7563876953125,0.08382463455200195,-0.11273670196533203,-0.2263394594192505
1782774763446397200,2.766397216796875,0.17203569412231445,-0.1257781982421875,-0.23085373640060425
1782774763456407000,2.776406982421875,0.1582655906677246,-0.15122318267822266,-0.1161116361618042
1782774763466386400,2.786386474609375,0.12518692016601562,-0.03401660919189453,0.03835576772689819
1782774763476396300,2.796396240234375,-0.01051473617553711,0.017267227172851562,0.022319555282592773
1782774763486406100,2.80640625,-0.2510247230529785,-0.0071258544921875,-0.026852786540985107
1782774763496385300,2.81638525390625,-0.3654818534851074,-0.0635061264038086,-0.14898347854614258
1782774763506395000,2.826394775390625,-0.3212437629699707,-0.0904855728149414,-0.21899563074111938
1782774763516404500,2.836404541015625,-0.19901800155639648,-0.11829376220703125,-0.2161639928817749
1782774763526383900,2.8463837890625,-0.012916088104248047,-0.13015174865722656,-0.08468621969223022
1782774763536393700,2.856393798828125,0.14276695251464844,-0.12665843963623047,0.016196787357330322
1782774763546403300,2.8664033203125,0.1100912094116211,-0.13300228118896484,0.05593019723892212
1782774763556382700,2.8763828125,0.008100509643554688,-0.1668558120727539,0.06647717952728271
1782774763566392600,2.886392578125,-0.07010984420776367,-0.12520408630371094,0.13717615604400635
1782774763576402200,2.896402099609375,-0.19550561904907227,-0.10785198211669922,0.16263717412948608
1782774763586381300,2.90638134765625,-0.2115340232849121,-0.15966224670410156,0.13178008794784546
1782774763596391200,2.91639111328125,-0.0794525146484375,-0.2462158203125,0.018716096878051758
1782774763606401000,2.926401123046875,0.04622459411621094,-0.31043243408203125,0.025281548500061035
1782774763616380200,2.936380126953125,0.07835102081298828,-0.36256885528564453,-0.07855212688446045
1782774763626390000,2.94639013671875,0.0992441177368164,-0.3168525695800781,-0.072762131690979
1782774763636399900,2.95639990234375,0.1188516616821289,-0.19964122772216797,0.14621198177337646
1782774763646379000,2.96637890625,0.04391670227050781,-0.1354684829711914,0.28371548652648926
1782774763656388900,2.976388916015625,-0.11798286437988281,-0.1175537109375,0.2486938238143921
1782774763666398700,2.986398681640625,-0.16686296463012695,-0.11436843872070312,0.1480693817138672
1782774763676377900,2.9963779296875,-0.1714019775390625,-0.12509632110595703,0.08208250999450684
1782774763686387700,3.0063876953125,-0.16094493865966797,-0.20449256896972656,0.017031610012054443
1782774763696397300,3.016397216796875,-0.10651493072509766,-0.2640266418457031,-0.002254664897918701
1782774763706407200,3.0264072265625,-0.000579833984375,-0.23677349090576172,0.037905097007751465
1782774763716386300,3.03638623046875,0.054987430572509766,-0.21174907684326172,0.11265885829925537
1782774763726396200,3.046396240234375,0.061341285705566406,-0.1487884521484375,0.24094396829605103
1782774763736405800,3.05640576171875,-0.10970115661621094,-0.14423751831054688,0.21017247438430786
1782774763746385200,3.06638525390625,-0.31173181533813477,-0.16016101837158203,0.07759588956832886
1782774763756395000,3.07639501953125,-0.41953563690185547,-0.16221141815185547,0.008165717124938965
1782774763766404600,3.086404541015625,-0.3797922134399414,-0.13743209838867188,0.08653932809829712
1782774763776384000,3.096384033203125,-0.30118560791015625,-0.11406898498535156,0.14237231016159058
1782774763786393900,3.106393798828125,-0.061939239501953125,-0.08964061737060547,0.1907525658607483
1782774763796403500,3.116403564453125,0.02808523178100586,-0.06709957122802734,0.3407292366027832
1782774763806382800,3.1263828125,-0.012858867645263672,-0.10718822479248047,0.18707960844039917
1782774763816392400,3.136392333984375,-0.07808876037597656,-0.13411521911621094,0.059691667556762695
1782774763826402000,3.146402099609375,-0.12735223770141602,-0.19783592224121094,-0.04735004901885986
1782774763836381400,3.15638134765625,-0.24724340438842773,-0.19512557983398438,-0.07983642816543579
1782774763846391300,3.166391357421875,-0.2564229965209961,-0.12318706512451172,0.013878285884857178
1782774763856401200,3.176401123046875,-0.17975807189941406,-0.04376983642578125,0.11823594570159912
1782774763866380300,3.18638037109375,-0.125518798828125,0.0026102066040039062,0.1980695128440857
1782774763876390100,3.19639013671875,-0.1363224983215332,0.0300750732421875,0.27503299713134766
1782774763886400000,3.20639990234375,-0.17795562744140625,0.007082939147949219,0.2016204595565796
1782774763896379100,3.216379150390625,-0.2196183204650879,-0.09746074676513672,0.022128701210021973
1782774763906388700,3.226388671875,-0.16193675994873047,-0.18965530395507812,-0.0787317156791687
1782774763916398600,3.236398681640625,0.10032939910888672,-0.25628662109375,-0.0847359299659729
1782774763926377700,3.246377685546875,0.294558048248291,-0.30938720703125,-0.13089418411254883
1782774763936387600,3.2563876953125,0.33931875228881836,-0.31891632080078125,-0.12901657819747925
1782774763946397400,3.2663974609375,0.2725796699523926,-0.28819847106933594,-0.11546003818511963
1782774763956407000,3.276406982421875,0.08937549591064453,-0.3307762145996094,-0.14820128679275513
1782774763966386400,3.286386474609375,-0.06583452224731445,-0.2913856506347656,-0.05752748250961304
1782774763976396300,3.296396240234375,-0.24675703048706055,-0.18147659301757812,0.10845965147018433
1782774763986406000,3.306406005859375,-0.36742639541625977,-0.1627197265625,0.063629150390625
1782774763996385000,3.316385009765625,-0.34902095794677734,-0.23406982421875,-0.06087195873260498
1782774764006395000,3.326394775390625,-0.17857980728149414,-0.25356197357177734,-0.15060162544250488
1782774764016404500,3.336404541015625,-0.0324254035949707,-0.33779239654541016,-0.32031190395355225
1782774764026384000,3.3463837890625,0.14701223373413086,-0.38735103607177734,-0.39077064394950867
1782774764036393700,3.356393798828125,0.2741889953613281,-0.3641853332519531,-0.3816505968570709
1782774764046403300,3.3664033203125,0.37219953536987305,-0.2689046859741211,-0.2367526888847351
1782774764056382700,3.3763828125,0.3642292022705078,-0.17902565002441406,-0.03906655311584473
1782774764066392600,3.386392578125,0.1950545310974121,-0.06686019897460938,0.16796636581420898
1782774764076402200,3.396402099609375,-0.029094219207763672,0.026302337646484375,0.22549819946289062
1782774764086381600,3.406381591796875,-0.15268802642822266,0.08945655822753906,0.16945582628250122
1782774764096391200,3.41639111328125,-0.28345823287963867,0.03272819519042969,0.11278879642486572
1782774764106401000,3.426401123046875,-0.29152965545654297,-0.07834911346435547,-0.03576385974884033
1782774764116380200,3.436380126953125,-0.25372982025146484,-0.1909503936767578,-0.17371010780334473
1782774764126390000,3.44639013671875,-0.11217832565307617,-0.26685047149658203,-0.18264728784561157
1782774764136399600,3.456399658203125,-0.045558929443359375,-0.2489156723022461,-0.12815040349960327
1782774764146379000,3.46637890625,0.029193401336669922,-0.1450939178466797,0.04688841104507446
1782774764156388900,3.476388916015625,-0.06183767318725586,-0.027622222900390625,0.18195277452468872
1782774764166398700,3.486398681640625,-0.1723618507385254,0.04578399658203125,0.20675522089004517
1782774764176377900,3.4963779296875,-0.22182655334472656,0.09701919555664062,0.17458146810531616
1782774764186387700,3.5063876953125,-0.2066941261291504,0.03325653076171875,0.07400107383728027
1782774764196397300,3.516397216796875,-0.12559843063354492,-0.06366634368896484,-0.06325387954711914
1782774764206407200,3.5264072265625,0.010894298553466797,-0.0902566909790039,-0.04395240545272827
1782774764216386600,3.536386474609375,0.07410335540771484,-0.1401386260986328,-0.05525773763656616
1782774764226396200,3.546396240234375,-0.015325069427490234,-0.16397666931152344,-0.09280818700790405
1782774764236405800,3.55640576171875,-0.12662553787231445,-0.21987533569335938,-0.08065789937973022
1782774764246385200,3.56638525390625,-0.29094886779785156,-0.24788570404052734,-0.03159475326538086
1782774764256395000,3.57639501953125,-0.4367392063140869,-0.2431468963623047,-0.04323512315750122
1782774764266404900,3.58640478515625,-0.44516825675964355,-0.147735595703125,0.12825101613998413
1782774764276384000,3.596384033203125,-0.2789878845214844,-0.025720596313476562,0.3145824670791626
1782774764286393900,3.606393798828125,-0.17858123779296875,-0.02762603759765625,0.24196529388427734
1782774764296403500,3.616403564453125,-0.12564611434936523,-0.13178730010986328,0.04749655723571777
1782774764306382600,3.626382568359375,0.24707603454589844,-0.18200397491455078,-0.1192578673362732
1782774764316392400,3.636392333984375,0.12755155563354492,-0.32264041900634766,-0.4140065312385559
1782774764326402000,3.646402099609375,0.09842491149902344,-0.2606019973754883,-0.4145413339138031
1782774764336381400,3.65638134765625,0.06192445755004883,-0.23535633087158203,-0.23729640245437622
1782774764346391300,3.666391357421875,-0.04167890548706055,-0.16295146942138672,-0.07367950677871704
1782774764356401200,3.676401123046875,-0.18639898300170898,-0.05775642395019531,0.08531844615936279
1782774764366380300,3.68638037109375,-0.19787263870239258,0.050269126892089844,0.18406838178634644
1782774764376390100,3.69639013671875,-0.05204963684082031,0.06386852264404297,0.22202008962631226
1782774764386399700,3.706399658203125,0.0978536605834961,0.02610015869140625,0.23774027824401855
1782774764396379100,3.716379150390625,0.1744241714477539,-0.06375885009765625,0.13992184400558472
1782774764406389000,3.726388916015625,0.18674135208129883,-0.16588306427001953,0.007354080677032471
1782774764416398600,3.736398681640625,0.08086395263671875,-0.24009418487548828,-0.12892025709152222
1782774764426377700,3.746377685546875,-0.051700592041015625,-0.2674369812011719,-0.21921980381011963
1782774764436387600,3.7563876953125,-0.18703794479370117,-0.2908639907836914,-0.21219754219055176
1782774764446397200,3.766397216796875,-0.28455305099487305,-0.2502555847167969,-0.00475919246673584
1782774764456407000,3.776406982421875,-0.3511528968811035,-0.16869735717773438,0.16520148515701294
1782774764466326800,3.786326904296875,-0.34909486770629883,-0.0794992446899414,0.3150532841682434
1782774764476457200,3.796457275390625,-0.3278622627258301,-0.004591941833496094,0.36114704608917236
1782774764486346200,3.80634619140625,-0.3329029083251953,-0.056664466857910156,0.2043527364730835
1782774764496476700,3.8164765625,-0.3979194164276123,-0.18546295166015625,-0.00329667329788208
1782774764506395000,3.826394775390625,-0.41856837272644043,-0.26607227325439453,-0.24211597442626953
1782774764516404500,3.836404541015625,-0.3053321838378906,-0.3096446990966797,-0.3291945457458496
1782774764526383900,3.8463837890625,-0.1519784927368164,-0.25350284576416016,-0.15452420711517334
1782774764536393700,3.856393798828125,0.02289867401123047,-0.16012001037597656,0.08035486936569214
1782774764546403300,3.8664033203125,0.28023386001586914,-0.03729057312011719,0.3119744658470154
1782774764556382700,3.8763828125,0.3585696220397949,-0.02969074249267578,0.26397913694381714
1782774764566392600,3.886392578125,0.2569413185119629,-0.13817405700683594,0.014822304248809814
1782774764576402200,3.896402099609375,0.10290193557739258,-0.25531864166259766,-0.20323312282562256
1782774764586381600,3.906381591796875,-0.06775665283203125,-0.3114500045776367,-0.26286137104034424
1782774764596391200,3.91639111328125,-0.17456769943237305,-0.3610210418701172,-0.20892059803009033
1782774764606401000,3.926401123046875,-0.16619110107421875,-0.3315248489379883,-0.029987096786499023
1782774764616380200,3.936380126953125,-0.22344398498535156,-0.31579017639160156,0.11396515369415283
1782774764626390000,3.94639013671875,-0.2870054244995117,-0.3592510223388672,0.028662800788879395
1782774764636399900,3.95639990234375,-0.28090763092041016,-0.3898630142211914,-0.09344124794006348
1782774764646379000,3.96637890625,-0.25571203231811523,-0.3619365692138672,-0.15254497528076172
1782774764656388900,3.976388916015625,-0.12700366973876953,-0.2756643295288086,-0.16875243186950684
1782774764666398700,3.986398681640625,0.005186557769775391,-0.2173900604248047,-0.09515923261642456
1782774764676377900,3.9963779296875,0.17956256866455078,-0.14183998107910156,-0.022367358207702637
1782774764686387700,4.0063876953125,0.2913227081298828,-0.12356948852539062,-0.05253344774246216
1782774764696397300,4.016397216796875,0.29509830474853516,-0.11964225769042969,-0.10794031620025635
1782774764706407200,4.0264072265625,0.23049545288085938,-0.10673713684082031,-0.12157183885574341
1782774764716386300,4.03638623046875,0.21076679229736328,-0.053956031799316406,-0.05155074596405029
1782774764726396200,4.046396240234375,0.15705013275146484,-0.01635265350341797,0.06286853551864624
1782774764736406000,4.056406005859375,0.03145551681518555,0.02976226806640625,0.11927485466003418
1782774764746385200,4.06638525390625,-0.11118888854980469,0.031719207763671875,0.13317543268203735
1782774764756395000,4.07639501953125,-0.2937488555908203,-0.024261474609375,0.026037931442260742
1782774764766404600,4.086404541015625,-0.4259145259857178,-0.08519935607910156,-0.09191387891769409
1782774764776384000,4.096384033203125,-0.47386670112609863,-0.14157390594482422,-0.12813454866409302
1782774764786393900,4.106393798828125,-0.41670966148376465,-0.1570444107055664,-0.0815308690071106
1782774764796343600,4.116343505859375,-0.29375219345092773,-0.1670398712158203,-0.059847116470336914
1782774764806474200,4.12647412109375,-0.18929529190063477,-0.17853832244873047,-0.04120904207229614
1782774764816392400,4.136392333984375,-0.13401365280151367,-0.1606912612915039,-0.0536959171295166
1782774764826402000,4.146402099609375,-0.00045299530029296875,-0.14725303649902344,-0.004228830337524414
1782774764836381400,4.15638134765625,0.08546638488769531,-0.05006599426269531,0.11875379085540771
1782774764846391300,4.166391357421875,0.19704246520996094,0.09421920776367188,0.17914217710494995
1782774764856401200,4.176401123046875,-0.02331686019897461,0.11002349853515625,0.1680736541748047
1782774764866380300,4.18638037109375,-0.16294384002685547,0.044628143310546875,-0.0657089352607727
1782774764876330200,4.196330322265625,-0.29610729217529297,-0.09247112274169922,-0.301922082901001
1782774764886461000,4.2064609375,-0.23337936401367188,-0.15182209014892578,-0.3874284327030182
1782774764896379100,4.216379150390625,-0.09042739868164062,-0.19263935089111328,-0.29892200231552124
1782774764906388700,4.226388671875,0.005801200866699219,-0.19435787200927734,-0.1622646450996399
1782774764916398600,4.236398681640625,0.035790443420410156,-0.1387462615966797,0.06752777099609375
1782774764926377700,4.246377685546875,-0.014169692993164062,-0.03577995300292969,0.2381575107574463
1782774764936387600,4.2563876953125,-0.09630727767944336,0.025763511657714844,0.24924236536026
1782774764946397400,4.2663974609375,-0.19707679748535156,-0.030435562133789062,0.08262860774993896
1782774764956407000,4.276406982421875,-0.15280580520629883,-0.08874988555908203,-0.11058026552200317
1782774764966386400,4.286386474609375,0.03785133361816406,-0.14139366149902344,-0.20221197605133057
1782774764976396300,4.296396240234375,0.18840646743774414,-0.15246200561523438,-0.16235512495040894
1782774764986406000,4.306406005859375,0.20520448684692383,-0.1253194808959961,-0.07759976387023926
1782774764996385000,4.316385009765625,0.14002132415771484,-0.15163516998291016,-0.01997584104537964
1782774765006395000,4.326394775390625,-0.032480716705322266,-0.1840066909790039,0.020102322101593018
1782774765016404500,4.336404541015625,-0.2307600975036621,-0.20337677001953125,0.00948941707611084
1782774765026384000,4.3463837890625,-0.4730031490325928,-0.199493408203125,0.06317919492721558
1782774765036393700,4.356393798828125,-0.5806500911712646,-0.1622934341430664,0.05181288719177246
1782774765046403300,4.3664033203125,-0.5049645900726318,-0.12698650360107422,0.10017538070678711
1782774765056382700,4.3763828125,-0.2841167449951172,-0.10926532745361328,0.15795767307281494
1782774765066392600,4.386392578125,-0.11759042739868164,-0.16871166229248047,0.05361849069595337
1782774765076402200,4.396402099609375,0.013074874877929688,-0.22243499755859375,-0.11824434995651245
1782774765086381600,4.406381591796875,0.06984233856201172,-0.2140636444091797,-0.10811293125152588
1782774765096391200,4.41639111328125,0.032887935638427734,-0.15385055541992188,-0.1161993145942688
1782774765106401000,4.426401123046875,-0.018163204193115234,-0.16421985626220703,-0.11832213401794434
1782774765116380200,4.436380126953125,-0.0054264068603515625,-0.0866403579711914,-0.008886992931365967
1782774765126390000,4.44639013671875,-0.03009033203125,0.014555931091308594,0.06591624021530151
1782774765136400000,4.45639990234375,-0.0778346061706543,0.08185291290283203,0.07343900203704834
1782774765146379000,4.46637890625,-0.18178224563598633,0.13661670684814453,0.14055299758911133
1782774765156388900,4.476388916015625,-0.1895432472229004,0.17681121826171875,0.13597190380096436
1782774765166398700,4.486398681640625,-0.15767335891723633,0.08817291259765625,0.13196849822998047
1782774765176377900,4.4963779296875,-0.12084484100341797,0.06510257720947266,0.11011207103729248
1782774765186358300,4.506358154296875,0.028473377227783203,0.004729270935058594,-0.0012497901916503906
1782774765197394700,4.517394775390625,0.2097797393798828,-0.0981149673461914,-0.030211687088012695
1782774765216326700,4.53632666015625,0.2216634750366211,-0.3101530075073242,-0.07035833597183228
1782774765226457000,4.54645703125,0.014871597290039062,-0.31931495666503906,-0.08779239654541016
1782774765236405800,4.55640576171875,-0.14352083206176758,-0.29152584075927734,-0.08367878198623657
1782774765246385200,4.56638525390625,-0.3686826229095459,-0.3079977035522461,-0.06352001428604126
1782774765256395000,4.57639501953125,-0.4943268299102783,-0.3153982162475586,0.008114635944366455
1782774765266404900,4.58640478515625,-0.5323202610015869,-0.30552101135253906,0.035860419273376465
1782774765276384000,4.596384033203125,-0.44605183601379395,-0.27286529541015625,0.1377708911895752
1782774765286393900,4.606393798828125,-0.2252812385559082,-0.22149181365966797,0.12300795316696167
1782774765296403500,4.616403564453125,0.0046329498291015625,-0.24207401275634766,-0.01708543300628662
1782774765306382600,4.626382568359375,0.08295488357543945,-0.3533639907836914,-0.11562317609786987
1782774765316392400,4.636392333984375,0.13311195373535156,-0.42661571502685547,-0.31461453437805176
1782774765326402000,4.646402099609375,0.1876087188720703,-0.43259620666503906,-0.31995439529418945
1782774765336381400,4.65638134765625,0.2150583267211914,-0.36873531341552734,-0.21842259168624878
1782774765346391300,4.666391357421875,0.1974468231201172,-0.3073444366455078,-0.12300640344619751
1782774765356401000,4.67640087890625,0.14773130416870117,-0.21294784545898438,0.04264819622039795
1782774765366380300,4.68638037109375,0.045149803161621094,-0.10265731811523438,0.22097277641296387
1782774765376390100,4.69639013671875,-0.08147192001342773,0.004168510437011719,0.21746480464935303
1782774765386340000,4.706340087890625,-0.2069087028503418,-0.02617359161376953,0.06956875324249268
1782774765396470800,4.716470703125,-0.21149110794067383,-0.08485126495361328,-0.05478638410568237
1782774765406388700,4.726388671875,-0.13216543197631836,-0.12820816040039062,-0.1732240915298462
1782774765416398600,4.736398681640625,-0.01859140396118164,-0.1445150375366211,-0.24320483207702637
1782774765426377700,4.746377685546875,0.09410238265991211,-0.14603519439697266,-0.188812255859375
1782774765436387600,4.7563876953125,0.0728602409362793,-0.12603282928466797,-0.15159761905670166
1782774765446397200,4.766397216796875,0.04591941833496094,-0.08275222778320312,-0.08592677116394043
1782774765456407000,4.776406982421875,-0.0557093620300293,-0.03548622131347656,-0.025991499423980713
1782774765466386400,4.786386474609375,-0.1776270866394043,-0.027091026306152344,0.04809606075286865
1782774765476396300,4.796396240234375,-0.19666290283203125,-0.02585887908935547,0.05291104316711426
1782774765486406000,4.806406005859375,-0.12586069107055664,-0.07204055786132812,0.05355727672576904
1782774765496385000,4.816385009765625,-0.13090801239013672,-0.1726207733154297,-0.045428454875946045
1782774765506395000,4.826394775390625,-0.06525945663452148,-0.23694515228271484,-0.24296724796295166
1782774765516404500,4.836404541015625,0.013942241668701172,-0.2961692810058594,-0.23626846075057983
1782774765526383900,4.8463837890625,0.03532981872558594,-0.3527565002441406,-0.2328053116798401
1782774765536393700,4.856393798828125,0.028936386108398438,-0.29955101013183594,-0.12032032012939453
1782774765546403300,4.8664033203125,-0.045271873474121094,-0.14156246185302734,0.08825033903121948
1782774765556382700,4.8763828125,-0.12487220764160156,-0.09201335906982422,0.156488299369812
1782774765566392600,4.886392578125,-0.16777706146240234,-0.12185478210449219,0.16271764039993286
1782774765576402400,4.89640234375,-0.23284578323364258,-0.18022632598876953,0.026257991790771484
1782774765586381600,4.906381591796875,-0.26312780380249023,-0.2429971694946289,-0.16618412733078003
1782774765596391200,4.91639111328125,-0.17559814453125,-0.2402935028076172,-0.14741432666778564
1782774765606401000,4.926401123046875,0.017851829528808594,-0.21747875213623047,0.0041217803955078125
1782774765616380200,4.936380126953125,0.11037015914916992,-0.1967315673828125,0.1156345009803772
1782774765626390000,4.94639013671875,0.04355049133300781,-0.18596553802490234,0.13991916179656982
1782774765637368600,4.95736865234375,-0.07625055313110352,-0.18575668334960938,0.1116943359375
1782774765656388900,4.976388916015625,-0.3656175136566162,-0.20936203002929688,-0.025846242904663086
1782774765666398700,4.986398681640625,-0.34072279930114746,-0.2179241180419922,-0.04926645755767822
1782774765676377900,4.9963779296875,-0.27842140197753906,-0.10629940032958984,0.03679567575454712
1782774765686387700,5.0063876953125,-0.2196669578552246,-0.010817527770996094,0.0764419436454773
1782774765696337700,5.016337646484375,-0.07844400405883789,0.09966278076171875,0.13501930236816406
1782774765706468000,5.026468017578125,0.08224725723266602,0.1272878646850586,0.1818668246269226
1782774765716386300,5.03638623046875,0.1342301368713379,0.08347702026367188,0.17429304122924805
1782774765726336500,5.04633642578125,0.13398027420043945,0.005818367004394531,0.07475167512893677
1782774765736467000,5.056467041015625,0.034552574157714844,-0.09173583984375,-0.028422832489013672
1782774765746325500,5.066325439453125,-0.0869894027709961,-0.1757516860961914,-0.009731709957122803
1782774765756608500,5.0766083984375,-0.15229415893554688,-0.2554788589477539,0.013293206691741943
1782774765766404600,5.086404541015625,-0.17875289916992188,-0.24681568145751953,0.06927376985549927
1782774765776384000,5.096384033203125,-0.27205991744995117,-0.2717256546020508,0.09378933906555176
1782774765786393900,5.106393798828125,-0.352672815322876,-0.2969942092895508,-0.020295321941375732
1782774765796403500,5.116403564453125,-0.3661768436431885,-0.29836559295654297,-0.0839686393737793
1782774765806382800,5.1263828125,-0.28965020179748535,-0.27292442321777344,-0.10733258724212646
1782774765816392400,5.136392333984375,-0.1620345115661621,-0.24428367614746094,-0.06446093320846558
1782774765826402000,5.146402099609375,-0.026460647583007812,-0.20050048828125,-0.007559657096862793
1782774765836381400,5.15638134765625,0.007610797882080078,-0.22097110748291016,-0.055489420890808105
1782774765846391300,5.166391357421875,0.007694244384765625,-0.22695064544677734,-0.14315247535705566
1782774765856401200,5.176401123046875,0.04582023620605469,-0.18259143829345703,-0.15830016136169434
1782774765866380300,5.18638037109375,0.08187484741210938,-0.13358116149902344,-0.12329930067062378
1782774765876390100,5.19639013671875,0.1427016258239746,-0.0896768569946289,-0.04829728603363037
1782774765886340000,5.206340087890625,0.07265663146972656,-0.08922290802001953,-0.07644850015640259
1782774765896470800,5.216470703125,0.12253856658935547,-0.10100173950195312,-0.19145578145980835
1782774765906388700,5.226388671875,0.131103515625,-0.1197967529296875,-0.22142678499221802
1782774765916398600,5.236398681640625,0.13454723358154297,-0.1289215087890625,-0.18370473384857178
1782774765926377700,5.246377685546875,0.03357982635498047,-0.13126373291015625,-0.10084128379821777
1782774765936387600,5.2563876953125,-0.07026815414428711,-0.08886909484863281,0.033328115940093994
1782774765946397400,5.2663974609375,-0.1391897201538086,-0.0901336669921875,0.15220099687576294
1782774765956407000,5.276406982421875,-0.24355077743530273,-0.11794090270996094,0.18717670440673828
1782774765966386400,5.286386474609375,-0.2956526279449463,-0.1671743392944336,0.20373862981796265
1782774765976396300,5.296396240234375,-0.37006258964538574,-0.2280559539794922,0.12961775064468384
1782774765986406000,5.306406005859375,-0.33083271980285645,-0.30756473541259766,-0.008440554141998291
1782774765996385000,5.316385009765625,-0.23584318161010742,-0.3360328674316406,0.021314144134521484
1782774766006395000,5.326394775390625,-0.04002809524536133,-0.2820901870727539,0.026826858520507812
1782774766016404500,5.336404541015625,0.10121917724609375,-0.2823143005371094,-0.0037952065467834473
1782774766026384000,5.3463837890625,0.16353940963745117,-0.3017435073852539,-0.0893329381942749
1782774766036393700,5.356393798828125,0.10771465301513672,-0.33620452880859375,-0.14432287216186523
1782774766046403300,5.3664033203125,0.03987312316894531,-0.28783226013183594,-0.030646204948425293
1782774766056382700,5.3763828125,-0.07332229614257812,-0.20213603973388672,0.07863414287567139
1782774766066392600,5.386392578125,-0.2131795883178711,-0.10771846771240234,0.18928581476211548
1782774766076402200,5.396402099609375,-0.3328258991241455,0.0006017684936523438,0.21828681230545044
1782774766086381600,5.406381591796875,-0.3949925899505615,0.001132965087890625,0.12804627418518066
1782774766096391200,5.41639111328125,-0.36966681480407715,-0.03626728057861328,0.010487139225006104
1782774766106401000,5.426401123046875,-0.26312828063964844,-0.07024669647216797,-0.10057401657104492
1782774766116380400,5.43638037109375,-0.12824440002441406,-0.07193660736083984,-0.18649452924728394
1782774766126390000,5.44639013671875,0.15471601486206055,-0.07475757598876953,-0.15021604299545288
1782774766136399600,5.456399658203125,0.3213076591491699,-0.026429176330566406,0.11860847473144531
1782774766146379000,5.46637890625,0.31253719329833984,0.052208900451660156,0.15503281354904175
1782774766156388900,5.476388916015625,0.15432167053222656,0.05721092224121094,0.12504178285598755
1782774766166398700,5.486398681640625,-0.12455558776855469,-0.011430740356445312,0.12183421850204468
1782774766176377900,5.4963779296875,-0.3295309543609619,-0.06912708282470703,0.006801784038543701
1782774766186387700,5.5063876953125,-0.4535653591156006,-0.10516166687011719,-0.13108700513839722
1782774766196397300,5.516397216796875,-0.43318676948547363,-0.11418533325195312,-0.22025936841964722
1782774766206407200,5.5264072265625,-0.2792668342590332,-0.10748863220214844,-0.15147757530212402
1782774766216386300,5.53638623046875,-0.026351451873779297,-0.07493305206298828,0.01206672191619873
1782774766226336500,5.54633642578125,0.17799711227416992,-0.07440662384033203,0.124636709690094
1782774766237318700,5.557318603515625,0.2929062843322754,-0.06638431549072266,0.06810647249221802
1782774766256395000,5.57639501953125,0.15887212753295898,-0.1725749969482422,0.0036319494247436523
1782774766266404600,5.586404541015625,0.0663299560546875,-0.24399852752685547,-0.11031943559646606
1782774766276384000,5.596384033203125,-0.0413355827331543,-0.30901432037353516,-0.12590694427490234
1782774766286393900,5.606393798828125,-0.12668418884277344,-0.27857494354248047,-0.08448362350463867
1782774766296343600,5.616343505859375,-0.1853957176208496,-0.30330848693847656,-0.1367785930633545
1782774766306445000,5.626445068359375,-0.2444319725036621,-0.28476905822753906,-0.11273878812789917
1782774766317497600,5.63749755859375,-0.26822471618652344,-0.31611061096191406,-0.07526099681854248
1782774766336381400,5.65638134765625,-0.15373659133911133,-0.18794631958007812,0.1047559380531311
1782774766346331600,5.66633154296875,-0.03265237808227539,-0.23185062408447266,0.14303863048553467
1782774766356402400,5.67640234375,-0.022526264190673828,-0.2251729965209961,0.005028128623962402
1782774766366472000,5.686471923828125,-0.0020804405212402344,-0.23569679260253906,-0.14150208234786987
1782774766376390100,5.69639013671875,-0.004477500915527344,-0.21076488494873047,-0.09226399660110474
1782774766386400000,5.70639990234375,0.0679631233215332,-0.17167949676513672,-0.05579876899719238
1782774766396319500,5.716319580078125,0.11632299423217773,-0.09894275665283203,0.018246889114379883
1782774766406367500,5.726367431640625,0.1311507225036621,-0.05731391906738281,0.04668080806732178
1782774766416459800,5.736459716796875,0.13414573669433594,-0.04930591583251953,0.037222325801849365
1782774766426377700,5.746377685546875,0.02046966552734375,-0.07274150848388672,0.11176300048828125
1782774766436387600,5.7563876953125,-0.10424280166625977,-0.11582088470458984,0.03366166353225708
1782774766446337800,5.766337890625,-0.2544565200805664,-0.2072744369506836,-0.09603530168533325
1782774766456468200,5.77646826171875,-0.28538990020751953,-0.20757484436035156,-0.033904314041137695
1782774766466326800,5.786326904296875,-0.20749282836914062,-0.13776397705078125,0.06575942039489746
1782774766476457200,5.796457275390625,-0.11121129989624023,-0.1057891845703125,0.09479176998138428
1782774766486346200,5.80634619140625,-0.0035796165466308594,-0.12133407592773438,0.14219212532043457
1782774766496477000,5.816476806640625,0.07045221328735352,-0.11526679992675781,0.1510014533996582
1782774766506395000,5.826394775390625,0.06077861785888672,-0.14282703399658203,0.0767335295677185
1782774766516344800,5.8363447265625,0.039652347564697266,-0.17070484161376953,0.06314748525619507
1782774766526475300,5.846475341796875,-0.08081245422363281,-0.15601062774658203,0.13282650709152222
1782774766536393700,5.856393798828125,-0.16655683517456055,-0.22803783416748047,0.10879462957382202
1782774766546403300,5.8664033203125,-0.17145967483520508,-0.29744529724121094,0.027717232704162598
1782774766556382700,5.8763828125,-0.11432027816772461,-0.31786632537841797,-0.013800442218780518
1782774766566392600,5.886392578125,-0.08912324905395508,-0.34741687774658203,-0.058381617069244385
1782774766576402400,5.89640234375,-0.10374832153320312,-0.33895015716552734,0.02260535955429077
1782774766586381600,5.906381591796875,-0.12877655029296875,-0.2927227020263672,0.07761144638061523
1782774766596391200,5.91639111328125,-0.26024961471557617,-0.299652099609375,0.09776097536087036
1782774766606401000,5.926401123046875,-0.2527647018432617,-0.2227764129638672,0.11497175693511963
1782774766616380200,5.936380126953125,-0.12245416641235352,-0.1570901870727539,0.1179049015045166
1782774766626330400,5.946330322265625,-0.11078357696533203,-0.16023921966552734,0.13070785999298096
1782774766637355800,5.957355712890625,0.02191781997680664,-0.1246957778930664,0.025092363357543945
1782774766656390100,5.97639013671875,0.21755170822143555,-0.09428691864013672,0.026092588901519775
1782774766666459600,5.986459716796875,0.1755504608154297,-0.05264091491699219,0.07769012451171875
1782774766676377900,5.9963779296875,0.03178977966308594,-0.012606620788574219,0.1428181529045105
1782774766686387700,6.0063876953125,-0.17560625076293945,-0.02923107147216797,0.12883979082107544
1782774766696397300,6.016397216796875,-0.409503698348999,-0.0684823989868164,0.0649670958518982
1782774766706347300,6.02634716796875,-0.5424988269805908,-0.12234973907470703,-0.07209491729736328
1782774766717718800,6.03771875,-0.6063470840454102,-0.17615890502929688,-0.18674218654632568
1782774766736833500,6.05683349609375,-0.272702693939209,-0.09818363189697266,-0.089530348777771
1782774766746751700,6.066751708984375,0.1477036476135254,0.047428131103515625,0.20579171180725098
1782774766756761600,6.07676171875,0.3641014099121094,0.17050743103027344,0.28751593828201294
1782774766766771200,6.086771240234375,0.38537025451660156,0.16832256317138672,0.19183015823364258
1782774766776750300,6.096750244140625,0.35697460174560547,0.16451644897460938,0.10069030523300171
1782774766786760200,6.10676025390625,0.19540023803710938,0.09676551818847656,-0.05596923828125
1782774766796769800,6.116769775390625,-0.01063394546508789,-0.03016376495361328,-0.1659753918647766
1782774766806749200,6.126749267578125,-0.23157501220703125,-0.1412372589111328,-0.2564060091972351
1782774766816759000,6.136759033203125,-0.28304147720336914,-0.1563129425048828,-0.24372202157974243
1782774766826709000,6.146708984375,-0.15753602981567383,-0.1557178497314453,-0.04522860050201416
1782774766837620500,6.157620361328125,-0.0610346794128418,-0.14896202087402344,0.14957910776138306
1782774766856767700,6.176767822265625,-0.10711145401000977,-0.213592529296875,-0.0009807348251342773
1782774766866746600,6.18674658203125,-0.10443925857543945,-0.34812068939208984,-0.18677526712417603
1782774766876756500,6.196756591796875,-0.07109880447387695,-0.3938722610473633,-0.24067193269729614
1782774766886706700,6.206706787109375,0.03775501251220703,-0.39360618591308594,-0.27313631772994995
1782774766896837000,6.216837158203125,0.09510993957519531,-0.34246349334716797,-0.21491146087646484
1782774766906755300,6.22675537109375,0.18048810958862305,-0.2932767868041992,-0.1123436689376831
1782774766916765200,6.23676513671875,0.23237371444702148,-0.21759605407714844,0.06749927997589111
1782774766926684700,6.2466845703125,0.1303563117980957,-0.1808614730834961,0.19055157899856567
1782774766936845600,6.256845458984375,-0.040833473205566406,-0.17406368255615234,0.1935402750968933
1782774766946763800,6.266763671875,-0.18816804885864258,-0.20196151733398438,0.058686912059783936
1782774766956773600,6.276773681640625,-0.3108391761779785,-0.26860904693603516,0.030303657054901123
1782774766966752800,6.286752685546875,-0.36242222785949707,-0.2511615753173828,-0.031089842319488525
1782774766976703000,6.296702880859375,-0.3272535800933838,-0.3071269989013672,-0.15422463417053223
1782774766986833400,6.30683349609375,-0.1204233169555664,-0.31027889251708984,-0.12381047010421753
1782774766996751600,6.316751708984375,0.03325319290161133,-0.31683349609375,-0.11535054445266724
1782774767006761500,6.326761474609375,0.16966772079467773,-0.28479766845703125,-0.11452972888946533
1782774767016771000,6.33677099609375,0.27849531173706055,-0.1861276626586914,0.014270603656768799
1782774767026750500,6.34675048828125,0.30834150314331055,-0.042903900146484375,0.21524232625961304
1782774767036760300,6.35676025390625,0.17369794845581055,0.01036834716796875,0.266837477684021
1782774767046770000,6.36677001953125,0.006200313568115234,0.01655864715576172,0.06628406047821045
1782774767056749300,6.376749267578125,-0.16660737991333008,-0.016643524169921875,-0.089016854763031
1782774767066759200,6.38675927734375,-0.27025842666625977,-0.10243415832519531,-0.08819210529327393
1782774767076768800,6.396768798828125,-0.24118900299072266,-0.065399169921875,-0.02122211456298828
1782774767086748200,6.406748046875,-0.2351822853088379,-0.10420036315917969,0.05219370126724243
1782774767096757800,6.4167578125,-0.20678329467773438,-0.1230936050415039,0.08461755514144897
1782774767106767600,6.426767578125,-0.12433338165283203,-0.08165454864501953,0.11463087797164917
1782774767116746800,6.436746826171875,-0.020537376403808594,-0.05205821990966797,0.18738502264022827
1782774767126756600,6.446756591796875,-0.002979278564453125,-0.058342933654785156,0.17145323753356934
1782774767136766500,6.456766357421875,-0.0517725944519043,-0.06743431091308594,0.05592697858810425
1782774767146745600,6.46674560546875,0.0028367042541503906,-0.0888214111328125,-0.02492457628250122
1782774767156755500,6.47675537109375,0.12681293487548828,-0.08863353729248047,0.023547708988189697
1782774767166765300,6.486765380859375,0.15972232818603516,-0.12427902221679688,0.01175767183303833
1782774767176744400,6.496744384765625,0.11230659484863281,-0.14847469329833984,-0.05492842197418213
1782774767186754000,6.506754150390625,-0.02681446075439453,-0.1518726348876953,0.07198911905288696
1782774767196764000,6.516763916015625,-0.20930910110473633,-0.11305999755859375,0.16671931743621826
1782774767206773500,6.5267734375,-0.29694557189941406,-0.0963754653930664,0.21241599321365356
1782774767216753000,6.5367529296875,-0.4029510021209717,-0.12546443939208984,0.25492000579833984
1782774767226762800,6.5467626953125,-0.5211217403411865,-0.2670612335205078,0.044445812702178955
1782774767236772400,6.5567724609375,-0.4760892391204834,-0.36491966247558594,-0.23487186431884766
1782774767246751700,6.566751708984375,-0.2885761260986328,-0.36309146881103516,-0.23990005254745483
1782774767256761600,6.57676171875,-0.12125205993652344,-0.4002647399902344,-0.1933334469795227
1782774767266771200,6.586771240234375,-0.029040813446044922,-0.3387022018432617,-0.15318429470062256
1782774767276750600,6.59675048828125,0.10032129287719727,-0.2655792236328125,-0.05487173795700073
1782774767286760200,6.60676025390625,0.11468267440795898,-0.13831615447998047,0.08499360084533691
1782774767296769800,6.616769775390625,-0.02670001983642578,-0.03839874267578125,0.1908581256866455
1782774767306749200,6.626749267578125,-0.15247154235839844,0.029712677001953125,0.03924274444580078
1782774767316759000,6.636759033203125,-0.2300887107849121,0.025646209716796875,-0.09810250997543335
1782774767326768600,6.6467685546875,-0.18640804290771484,-0.057170867919921875,-0.07144784927368164
1782774767336748000,6.656748046875,-0.1330242156982422,-0.0623321533203125,0.015169262886047363
1782774767346758000,6.6667578125,-0.036520957946777344,-0.07361602783203125,-0.027081787586212158
1782774767356767500,6.676767578125,0.0013446807861328125,-0.16339874267578125,-0.06896483898162842
1782774767366747000,6.686746826171875,0.025046825408935547,-0.24365806579589844,-0.02745276689529419
1782774767376756500,6.696756591796875,-0.010058403015136719,-0.25969409942626953,-0.04645693302154541
1782774767386766000,6.70676611328125,-0.06333541870117188,-0.2522134780883789,-0.044227004051208496
1782774767396745500,6.716745361328125,-0.02285480499267578,-0.1946277618408203,-0.032492995262145996
1782774767406755300,6.72675537109375,-0.004207134246826172,-0.18956947326660156,0.005460560321807861
1782774767416765200,6.73676513671875,-0.03319358825683594,-0.1654653549194336,-0.0069397687911987305
1782774767426744300,6.746744384765625,-0.05062723159790039,-0.1747274398803711,-0.07639014720916748
1782774767436754200,6.756754150390625,-0.0066547393798828125,-0.14532852172851562,-0.07838094234466553
1782774767446763800,6.766763671875,0.05575704574584961,-0.12996196746826172,-0.054055213928222656
1782774767456773600,6.776773681640625,0.09576034545898438,-0.16208457946777344,-0.020078301429748535
1782774767466752800,6.786752685546875,0.13077020645141602,-0.15105056762695312,-0.05755972862243652
1782774767476762600,6.7967626953125,0.12775611877441406,-0.14731788635253906,0.012542366981506348
1782774767486772200,6.806772216796875,-0.0005526542663574219,-0.12271976470947266,0.04133784770965576
1782774767496751600,6.816751708984375,-0.06201457977294922,-0.09198951721191406,0.010486304759979248
1782774767506761500,6.826761474609375,-0.08754873275756836,-0.15226459503173828,-0.015383362770080566
1782774767516771000,6.83677099609375,-0.07565069198608398,-0.1978168487548828,-0.06705713272094727
1782774767526750500,6.84675048828125,0.03138875961303711,-0.1976327896118164,-0.11587870121002197
1782774767536760300,6.85676025390625,0.28652429580688477,-0.15172958374023438,0.009361565113067627
1782774767546770000,6.86677001953125,0.043065547943115234,-0.18078327178955078,-0.002886056900024414
1782774767556749300,6.876749267578125,-0.014977455139160156,-0.11090564727783203,-0.024584710597991943
1782774767566759200,6.88675927734375,-0.3078041076660156,-0.14746856689453125,-0.14632153511047363
1782774767576768800,6.896768798828125,-0.42197728157043457,-0.09125518798828125,-0.13720983266830444
1782774767586748000,6.906747802734375,-0.44066357612609863,-0.013309478759765625,-0.025635957717895508
1782774767596757800,6.9167578125,-0.3984997272491455,-0.02803325653076172,-0.024690210819244385
1782774767606767400,6.926767333984375,-0.24442815780639648,-0.036620140075683594,-0.004099786281585693
1782774767616746800,6.936746826171875,-0.08937597274780273,-0.02918243408203125,-0.02795487642288208
1782774767626756600,6.946756591796875,0.019869327545166016,-0.03974437713623047,-0.12262684106826782
1782774767636766500,6.956766357421875,0.09732437133789062,-0.09312152862548828,-0.16667985916137695
1782774767646745600,6.96674560546875,0.1324620246887207,-0.08695697784423828,-0.07953393459320068
1782774767656755500,6.97675537109375,0.04742765426635742,-0.06485557556152344,-0.08410859107971191
1782774767666765300,6.986765380859375,-0.08781862258911133,-0.07501506805419922,-0.11508208513259888
1782774767676744400,6.996744384765625,-0.1781630516052246,-0.035696983337402344,0.025963008403778076
1782774767686754000,7.006754150390625,-0.3250110149383545,0.01763153076171875,0.14456307888031006
1782774767696763600,7.016763671875,-0.3535921573638916,0.05615520477294922,0.1243254542350769
1782774767706773500,7.0267734375,-0.28426265716552734,-0.01297760009765625,0.13559865951538086
1782774767716753000,7.0367529296875,-0.2830772399902344,-0.06968879699707031,0.042149901390075684
1782774767726762800,7.0467626953125,-0.24944734573364258,-0.14044666290283203,-0.1356680989265442
1782774767736772400,7.0567724609375,-0.13878822326660156,-0.21519756317138672,-0.1805770993232727
1782774767746751700,7.066751708984375,-0.02097320556640625,-0.23608875274658203,-0.0083845853805542
1782774767756761600,7.07676171875,0.03559398651123047,-0.23467540740966797,0.08365345001220703
1782774767766771500,7.086771484375,-0.03657245635986328,-0.28858375549316406,0.003339707851409912
1782774767776750300,7.096750244140625,-0.047548770904541016,-0.300079345703125,-0.011661648750305176
1782774767786760200,7.10676025390625,-0.10983943939208984,-0.3480710983276367,-0.06543445587158203
1782774767796769800,7.116769775390625,-0.28564882278442383,-0.37752723693847656,-0.15538376569747925
1782774767806749200,7.126749267578125,-0.33571410179138184,-0.30218029022216797,-0.17387336492538452
1782774767816759000,7.136759033203125,-0.2572822570800781,-0.2431354522705078,-0.04486769437789917
1782774767826768600,7.1467685546875,-0.12351751327514648,-0.15073490142822266,0.17119485139846802
1782774767836748000,7.156748046875,0.0652761459350586,-0.07401657104492188,0.16032278537750244
1782774767846758000,7.1667578125,0.1886911392211914,-0.08319759368896484,0.22658467292785645
1782774767856767700,7.176767822265625,0.14533758163452148,-0.12390613555908203,0.1470712423324585
1782774767866746600,7.18674658203125,0.16535711288452148,-0.14606761932373047,0.01818794012069702
1782774767876756500,7.196756591796875,0.14498281478881836,-0.20674800872802734,-0.023765921592712402
1782774767886766300,7.206766357421875,0.07236671447753906,-0.22933673858642578,-0.034420907497406006
1782774767896745500,7.216745361328125,-0.0040130615234375,-0.23799610137939453,-0.002396821975708008
1782774767906755300,7.22675537109375,-0.14795351028442383,-0.3001413345336914,-0.03320568799972534
1782774767916765200,7.23676513671875,-0.30753278732299805,-0.29577064514160156,0.019778728485107422
1782774767926744300,7.246744384765625,-0.3097801208496094,-0.2527809143066406,-0.056449711322784424
1782774767936754200,7.256754150390625,-0.16727113723754883,-0.25705528259277344,0.06584501266479492
1782774767946764000,7.266763916015625,-0.15227508544921875,-0.22022724151611328,0.12710821628570557
1782774767956773600,7.276773681640625,-0.13444185256958008,-0.21232128143310547,0.025433719158172607
1782774767966752800,7.286752685546875,-0.023331165313720703,-0.18290328979492188,0.0036038756370544434
1782774767976762600,7.2967626953125,0.017599105834960938,-0.1412067413330078,-0.017796754837036133
1782774767986772500,7.3067724609375,0.04129981994628906,-0.14725208282470703,-0.12455552816390991
1782774767996751600,7.316751708984375,0.027047157287597656,-0.08882331848144531,-0.07807791233062744
1782774768006761500,7.326761474609375,-0.058386802673339844,-0.06414318084716797,-0.04666620492935181
1782774768016771000,7.33677099609375,-0.040747642517089844,-0.13291454315185547,-0.10603958368301392
1782774768026750500,7.34675048828125,-0.040780067443847656,-0.13665485382080078,-0.09316402673721313
1782774768036760300,7.35676025390625,0.025262832641601562,-0.09456062316894531,-0.1198880672454834
1782774768046770000,7.36677001953125,-0.0018281936645507812,-0.10523033142089844,-0.07976776361465454
1782774768056749300,7.376749267578125,0.06319236755371094,-0.058981895446777344,-0.06824040412902832
1782774768066759200,7.38675927734375,0.06197500228881836,0.001285552978515625,-0.0019241571426391602
1782774768076768800,7.396768798828125,0.07525157928466797,0.035091400146484375,-0.021120965480804443
1782774768086748200,7.406748046875,0.05797767639160156,0.03980255126953125,-0.04652887582778931
1782774768096757800,7.4167578125,-0.0993494987487793,-0.006363868713378906,-0.06193506717681885
1782774768106767600,7.426767578125,-0.2714400291442871,-0.05106544494628906,-0.09656941890716553
1782774768116746800,7.436746826171875,-0.33498716354370117,-0.07459259033203125,-0.08812618255615234
1782774768126756600,7.446756591796875,-0.2846651077270508,-0.0928201675415039,-0.007998824119567871
1782774768136766500,7.456766357421875,-0.18856334686279297,-0.1315937042236328,0.05759388208389282
1782774768146745600,7.46674560546875,-0.14686918258666992,-0.13845157623291016,0.0012968778610229492
1782774768156755500,7.47675537109375,-0.19428205490112305,-0.19063377380371094,-0.097209632396698
1782774768166765300,7.486765380859375,-0.1823434829711914,-0.17084026336669922,-0.09895485639572144
1782774768176744400,7.496744384765625,-0.1665968894958496,-0.1768951416015625,-0.11772900819778442
1782774768186754000,7.506754150390625,-0.2161083221435547,-0.17539119720458984,-0.015323162078857422
1782774768196764000,7.516763916015625,-0.12505197525024414,-0.24533462524414062,-0.0954277515411377
1782774768206773500,7.5267734375,-0.10648250579833984,-0.4107627868652344,-0.3978591859340668
1782774768216753000,7.5367529296875,0.006870746612548828,-0.32094860076904297,-0.4529217779636383
1782774768226762800,7.5467626953125,-0.09365320205688477,-0.17876625061035156,-0.02068573236465454
1782774768236772400,7.5567724609375,-0.13772964477539062,-0.032769203186035156,0.4815077781677246
1782774768246751700,7.566751708984375,-0.23944330215454102,0.02185535430908203,0.24292200803756714
1782774768256761600,7.57676171875,-0.005132198333740234,0.01662158966064453,0.0014545321464538574
1782774768266771200,7.586771240234375,-0.01590585708618164,-0.06374073028564453,-0.10763108730316162
1782774768276750600,7.59675048828125,0.14120960235595703,-0.050704002380371094,0.03532600402832031
1782774768286760200,7.60676025390625,0.28325700759887695,-0.06110095977783203,0.09261596202850342
1782774768296769800,7.616769775390625,0.38956594467163086,-0.08721542358398438,0.028086066246032715
1782774768306749200,7.626749267578125,0.19857215881347656,-0.10609722137451172,0.013407707214355469
1782774768316759000,7.636759033203125,-0.0036535263061523438,-0.07132720947265625,0.07217049598693848
1782774768326768600,7.6467685546875,-0.12132596969604492,-0.07853317260742188,0.061280786991119385
1782774768336748000,7.656748046875,-0.08195304870605469,-0.16307640075683594,0.053305745124816895
1782774768346758000,7.6667578125,-0.016107559204101562,-0.22144126892089844,-0.01824849843978882
