time,seconds_elapsed,z,y,x
1782774779686392000,0.17939208984375,0.02932153269648552,0.024434609338641167,0.04886921867728233
1782774779696380700,0.189380615234375,0.03726277872920036,0.018936822190880775,0.05497787147760391
1782774779706412000,0.199412109375,0.03481931984424591,0.010995574295520782,0.0507018156349659
1782774779716369700,0.20936962890625,0.033597588539123535,0.004886921960860491,0.03298672288656235
1782774779726401000,0.219401123046875,0.029932396486401558,0.006108652334660292,0.012217304669320583
1782774779736389000,0.22938916015625,0.01771509274840355,-0.0024434609804302454,-0.00366519158706069
1782774779746390000,0.23939013671875,0.012217304669320583,-0.006719517521560192,-0.014049900695681572
1782774779756378400,0.24937841796875,0.009162978269159794,-0.003054326167330146,-0.02076941914856434
1782774779766409200,0.2594091796875,0.007941247895359993,0.0006108652451075613,-0.030543262138962746
1782774779776367000,0.2693671875,0.007941247895359993,0.004886921960860491,-0.02932153269648552
1782774779786398200,0.279398193359375,0.01038470957428217,0.007941247895359993,-0.021380282938480377
1782774779796386800,0.28938671875,0.01771509274840355,0.010995574295520782,-0.006719517521560192
1782774779806387200,0.29938720703125,0.029932396486401558,0.0012217304902151227,0.015271631069481373
1782774779816374800,0.309374755859375,0.03848451003432274,-0.00855211354792118,0.03726277872920036
1782774779826406400,0.319406494140625,0.03237585723400116,-0.006108652334660292,0.04886921867728233
1782774779836364000,0.329364013671875,0.021991148591041565,-0.00427605677396059,0.0403171069920063
1782774779846395400,0.3393955078125,0.021380282938480377,0.01038470957428217,0.018325956538319588
1782774779856383700,0.3493837890625,0.015271631069481373,0.016493361443281174,0.0012217304902151227
1782774779866384400,0.35938427734375,0.012828170321881771,0.01038470957428217,-0.01038470957428217
1782774779876372700,0.369372802734375,0.02015855349600315,0.006108652334660292,-0.016493361443281174
1782774779886404000,0.379404052734375,0.021380282938480377,-0.004886921960860491,-0.012828170321881771
1782774779896361700,0.38936181640625,0.016493361443281174,-0.012217304669320583,-0.00733038317412138
1782774779906392800,0.399392822265625,0.01771509274840355,-0.003054326167330146,-0.003054326167330146
1782774779916381700,0.409381591796875,0.01771509274840355,0.00366519158706069,0.001832595793530345
1782774779926382600,0.419382568359375,0.01038470957428217,-0.001832595793530345,0.01160643994808197
1782774779936371000,0.429370849609375,0.006719517521560192,-0.01160643994808197,0.012828170321881771
1782774779946401800,0.43940185546875,0.01160643994808197,-0.003054326167330146,0.00855211354792118
1782774779956390400,0.449390380859375,0.012828170321881771,0.006108652334660292,0.014049900695681572
1782774779966390800,0.459390869140625,0.010995574295520782,-0.0012217304902151227,0.02626720629632473
1782774779976379100,0.469379150390625,0.015271631069481373,-0.00733038317412138,0.03848451003432274
1782774779986410500,0.479410400390625,0.02076941914856434,-0.015271631069481373,0.04398229718208313
1782774779996368400,0.489368408203125,0.015271631069481373,-0.021380282938480377,0.04214970022439957
1782774780006399500,0.4993994140625,0.003054326167330146,-0.02321287989616394,0.02382374368607998
1782774780016387800,0.509387939453125,-0.00733038317412138,-0.01710422709584236,0.0012217304902151227
1782774780026388500,0.519388427734375,-0.012828170321881771,-0.015882495790719986,-0.014049900695681572
1782774780036377000,0.529377197265625,-0.015882495790719986,-0.025656340643763542,-0.018325956538319588
1782774780046408200,0.539408203125,-0.019547687843441963,-0.029932396486401558,-0.016493361443281174
1782774780056366000,0.549365966796875,-0.025656340643763542,-0.02687807008624077,-0.01710422709584236
1782774780066397000,0.55939697265625,-0.02871066704392433,-0.013439035043120384,-0.021380282938480377
1782774780076385300,0.56938525390625,-0.0354301854968071,0,-0.01466076634824276
1782774780086386000,0.579385986328125,-0.028099801391363144,-0.003054326167330146,-0.005497787147760391
1782774780096374500,0.58937451171875,-0.01466076634824276,-0.00733038317412138,0.009162978269159794
1782774780106405600,0.599405517578125,-0.015882495790719986,-0.00855211354792118,0.022602014243602753
1782774780116363500,0.609363525390625,-0.02076941914856434,-0.0012217304902151227,0.02932153269648552
1782774780126395000,0.619394775390625,-0.025656340643763542,0.00855211354792118,0.033597588539123535
1782774780136383200,0.62938330078125,-0.022602014243602753,0.004886921960860491,0.02932153269648552
1782774780146383600,0.639383544921875,-0.007941247895359993,0.0006108652451075613,0.018325956538319588
1782774780156372000,0.6493720703125,-0.00366519158706069,0.0012217304902151227,0.009162978269159794
1782774780166403000,0.659403076171875,-0.001832595793530345,0.010995574295520782,0.0012217304902151227
1782774780176361000,0.66936083984375,-0.01160643994808197,0.01771509274840355,0.0012217304902151227
1782774780186392000,0.67939208984375,-0.019547687843441963,0.015271631069481373,0.006108652334660292
1782774780196380700,0.689380615234375,-0.01771509274840355,0.018325956538319588,0.009773843921720982
1782774780206411800,0.699411865234375,-0.009773843921720982,0.022602014243602753,0.015882495790719986
1782774780216369700,0.70936962890625,-0.007941247895359993,0.021991148591041565,0.02382374368607998
1782774780226400800,0.71940087890625,-0.010995574295520782,0.021991148591041565,0.02871066704392433
1782774780236389000,0.72938916015625,-0.01710422709584236,0.02321287989616394,0.03237585723400116
1782774780246389800,0.7393896484375,-0.021991148591041565,0.016493361443281174,0.02382374368607998
1782774780256378000,0.749378173828125,-0.01466076634824276,0.02076941914856434,0.003054326167330146
1782774780266409200,0.7594091796875,-0.01160643994808197,0.01710422709584236,-0.01466076634824276
1782774780276367000,0.7693671875,-0.012217304669320583,0.0012217304902151227,-0.024434609338641167
1782774780286398200,0.779398193359375,-0.01466076634824276,-0.004886921960860491,-0.025045474991202354
1782774780296386600,0.789386474609375,-0.015882495790719986,-0.006719517521560192,-0.02076941914856434
1782774780306387500,0.799387451171875,-0.010995574295520782,-0.0006108652451075613,-0.013439035043120384
1782774780316375800,0.809375732421875,0.0012217304902151227,0.00733038317412138,-0.004886921960860491
1782774780326407000,0.819406982421875,0.004886921960860491,0.00733038317412138,0.016493361443281174
1782774780336364500,0.829364501953125,0.001832595793530345,0.003054326167330146,0.039706241339445114
1782774780346396000,0.83939599609375,-0.0006108652451075613,0.0024434609804302454,0.05497787147760391
1782774780356384300,0.84938427734375,-0.001832595793530345,0.00427605677396059,0.051312681287527084
1782774780366384600,0.859384521484375,-0.0006108652451075613,0.005497787147760391,0.03481931984424591
1782774780376373200,0.869373291015625,-0.003054326167330146,0.0006108652451075613,0.01771509274840355
1782774780386404400,0.879404296875,0,-0.00855211354792118,-0.003054326167330146
1782774780396362200,0.8893623046875,-0.003054326167330146,-0.012828170321881771,-0.018325956538319588
1782774780406393600,0.8993935546875,-0.012828170321881771,-0.00855211354792118,-0.028099801391363144
1782774780416382000,0.9093818359375,-0.015271631069481373,-0.001832595793530345,-0.031154127791523933
1782774780426382600,0.919382568359375,-0.01710422709584236,-0.003054326167330146,-0.019547687843441963
1782774780436371000,0.929370849609375,-0.018325956538319588,-0.01038470957428217,0.0006108652451075613
1782774780446401800,0.93940185546875,-0.01466076634824276,-0.014049900695681572,0.015271631069481373
1782774780456390400,0.949390380859375,-0.009773843921720982,-0.004886921960860491,0.02321287989616394
1782774780466391000,0.95939111328125,-0.009773843921720982,0,0.02626720629632473
1782774780476379400,0.96937939453125,-0.015882495790719986,0.004886921960860491,0.03237585723400116
1782774780486410500,0.979410400390625,-0.02382374368607998,0.009773843921720982,0.03298672288656235
1782774780496368400,0.989368408203125,-0.02076941914856434,0.009162978269159794,0.033597588539123535
1782774780506399700,0.999399658203125,-0.016493361443281174,0.00366519158706069,0.039706241339445114
1782774780516387800,1.009387939453125,-0.01038470957428217,-0.0006108652451075613,0.03726277872920036
1782774780526389000,1.019388916015625,-0.007941247895359993,-0.00366519158706069,0.027488935738801956
1782774780536377000,1.029377197265625,-0.00366519158706069,-0.0006108652451075613,0.009773843921720982
1782774780546408200,1.039408203125,0.003054326167330146,0.003054326167330146,-0.006108652334660292
1782774780556366000,1.049365966796875,0.004886921960860491,0.001832595793530345,-0.016493361443281174
1782774780566397000,1.05939697265625,0.00427605677396059,0.001832595793530345,-0.025045474991202354
1782774780576385300,1.06938525390625,0.00366519158706069,0.010995574295520782,-0.031154127791523933
1782774780586386200,1.07938623046875,0.003054326167330146,0.024434609338641167,-0.027488935738801956
1782774780596374500,1.08937451171875,-0.006108652334660292,0.03176499158143997,-0.0024434609804302454
1782774780606405600,1.099405517578125,-0.013439035043120384,0.02076941914856434,0.02687807008624077
1782774780616363500,1.109363525390625,-0.00366519158706069,0.012828170321881771,0.04703662544488907
1782774780626395000,1.119394775390625,0.009162978269159794,0.006108652334660292,0.04764748737215996
1782774780636413000,1.129412841796875,0.015882495790719986,0.006108652334660292,0.03787364438176155
1782774780646383600,1.139383544921875,0.015882495790719986,0.00855211354792118,0.018325956538319588
1782774780656372000,1.1493720703125,0.018936822190880775,0.00855211354792118,0.0012217304902151227
1782774780666403300,1.1594033203125,0.021380282938480377,0,-0.012217304669320583
1782774780676361000,1.16936083984375,0.028099801391363144,-0.015271631069481373,-0.019547687843441963
1782774780686392000,1.17939208984375,0.03237585723400116,-0.022602014243602753,-0.021991148591041565
1782774780696380700,1.189380615234375,0.02626720629632473,-0.01771509274840355,-0.021991148591041565
1782774780706411800,1.199411865234375,0.010995574295520782,-0.00366519158706069,-0.019547687843441963
1782774780716369700,1.20936962890625,-0.00733038317412138,0.010995574295520782,-0.01771509274840355
1782774780726401000,1.219401123046875,-0.012828170321881771,0.025045474991202354,-0.01160643994808197
1782774780736389000,1.22938916015625,-0.01038470957428217,0.025656340643763542,0.0006108652451075613
1782774780746389800,1.2393896484375,0.0006108652451075613,0.029932396486401558,0.01466076634824276
1782774780756378400,1.24937841796875,0.014049900695681572,0.031154127791523933,0.031154127791523933
1782774780766409500,1.259409423828125,0.01771509274840355,0.025045474991202354,0.04886921867728233
1782774780776367000,1.2693671875,0.013439035043120384,0.01160643994808197,0.06169738993048668
1782774780786398200,1.279398193359375,0.007941247895359993,0.001832595793530345,0.05925392732024193
1782774780796386600,1.289386474609375,0.006719517521560192,0.005497787147760391,0.039095375686883926
1782774780806387200,1.29938720703125,0.009773843921720982,0.010995574295520782,0.014049900695681572
1782774780816374800,1.309374755859375,0.018936822190880775,0.010995574295520782,-0.003054326167330146
1782774780826406400,1.319406494140625,0.02321287989616394,0.01160643994808197,0.001832595793530345
1782774780836364300,1.3293642578125,0.01466076634824276,0.00855211354792118,0.02687807008624077
1782774780846395400,1.3393955078125,0.0024434609804302454,0,0.05375614017248154
1782774780856383700,1.3493837890625,-0.0006108652451075613,-0.0024434609804302454,0.05619960278272629
1782774780866384400,1.35938427734375,0.00427605677396059,0.00427605677396059,0.04092797264456749
1782774780876372700,1.369372802734375,0.009773843921720982,0.00855211354792118,0.030543262138962746
1782774780886404000,1.379404052734375,0.005497787147760391,0.00855211354792118,0.04092797264456749
1782774780896361700,1.38936181640625,0.003054326167330146,-0.00427605677396059,0.03848451003432274
1782774780906392600,1.399392578125,-0.003054326167330146,-0.015271631069481373,0.02382374368607998
1782774780916382000,1.4093818359375,-0.01038470957428217,-0.005497787147760391,0.00366519158706069
1782774780926382600,1.419382568359375,-0.018325956538319588,0.01771509274840355,-0.015882495790719986
1782774780936371000,1.429370849609375,-0.021380282938480377,0.01466076634824276,-0.01038470957428217
1782774780946402000,1.439402099609375,-0.01466076634824276,0.0012217304902151227,0.009162978269159794
1782774780956390400,1.449390380859375,0.0006108652451075613,-0.00733038317412138,0.03176499158143997
1782774780966390800,1.459390869140625,0.009162978269159794,-0.009162978269159794,0.05192354694008827
1782774780976379100,1.469379150390625,0.003054326167330146,-0.006108652334660292,0.0659734457731247
1782774780986410500,1.479410400390625,-0.00427605677396059,0.00855211354792118,0.06291911751031876
1782774780996368400,1.489368408203125,-0.0024434609804302454,0.02076941914856434,0.0507018156349659
1782774781006399700,1.499399658203125,0.01466076634824276,0.04214970022439957,0.060475658625364304
1782774781016387800,1.509387939453125,-0.00366519158706069,-0.007941247895359993,0.054367005825042725
1782774781026388500,1.519388427734375,-0.00427605677396059,-0.01771509274840355,0.03481931984424591
1782774781036377000,1.529377197265625,0.003054326167330146,0.016493361443281174,0.014049900695681572
1782774781046408000,1.539407958984375,0.00733038317412138,0.0006108652451075613,-0.010995574295520782
1782774781056366000,1.549365966796875,0.0024434609804302454,-0.019547687843441963,-0.021380282938480377
1782774781066397000,1.55939697265625,0.0006108652451075613,-0.02321287989616394,-0.02626720629632473
1782774781076385500,1.569385498046875,-0.005497787147760391,-0.013439035043120384,-0.030543262138962746
1782774781086386000,1.579385986328125,-0.014049900695681572,-0.00427605677396059,-0.029932396486401558
1782774781096374500,1.58937451171875,-0.01160643994808197,-0.0012217304902151227,-0.02321287989616394
1782774781106405600,1.599405517578125,-0.001832595793530345,0.0024434609804302454,-0.01038470957428217
1782774781116363500,1.609363525390625,0.01160643994808197,0.0024434609804302454,0.007941247895359993
1782774781126395000,1.619394775390625,0.02626720629632473,-0.004886921960860491,0.02321287989616394
1782774781136383200,1.62938330078125,0.02871066704392433,-0.013439035043120384,0.0354301854968071
1782774781146384000,1.6393837890625,0.02076941914856434,-0.018936822190880775,0.03298672288656235
1782774781156372200,1.649372314453125,0.01160643994808197,-0.018325956538319588,0.018325956538319588
1782774781166403000,1.659403076171875,0.0006108652451075613,-0.01710422709584236,-0.003054326167330146
1782774781176361000,1.66936083984375,-0.009162978269159794,-0.024434609338641167,-0.02687807008624077
1782774781186392300,1.679392333984375,-0.012828170321881771,-0.031154127791523933,-0.05009094998240471
1782774781196380700,1.689380615234375,0,-0.03298672288656235,-0.07330382615327835
1782774781206411800,1.699411865234375,0.021380282938480377,-0.024434609338641167,-0.08491026610136032
1782774781216369700,1.70936962890625,0.03176499158143997,-0.019547687843441963,-0.07330382615327835
1782774781226400800,1.71940087890625,0.029932396486401558,-0.015882495790719986,-0.04398229718208313
1782774781236389400,1.729389404296875,0.025045474991202354,-0.0012217304902151227,-0.006108652334660292
1782774781246390000,1.73939013671875,0.01710422709584236,0.006719517521560192,0.025045474991202354
1782774781256378000,1.749378173828125,0.01771509274840355,0.018325956538319588,0.045204028487205505
1782774781266409200,1.7594091796875,0.012828170321881771,0.025045474991202354,0.06291911751031876
1782774781276367000,1.7693671875,0,0.018936822190880775,0.07024950534105301
1782774781286398200,1.779398193359375,-0.006108652334660292,0.01038470957428217,0.05619960278272629
1782774781296386600,1.789386474609375,-0.003054326167330146,0.021380282938480377,0.031154127791523933
1782774781306387500,1.799387451171875,0.0012217304902151227,0.02687807008624077,0.006719517521560192
1782774781316375800,1.809375732421875,0.00855211354792118,0.016493361443281174,-0.00366519158706069
1782774781326406700,1.81940673828125,0.010995574295520782,-0.006719517521560192,-0.00427605677396059
1782774781336364500,1.829364501953125,0.004886921960860491,-0.01710422709584236,-0.00427605677396059
1782774781346396000,1.83939599609375,-0.01710422709584236,-0.012828170321881771,-0.010995574295520782
1782774781356384300,1.84938427734375,-0.02626720629632473,-0.009162978269159794,-0.018325956538319588
1782774781366384600,1.859384521484375,-0.02321287989616394,-0.009162978269159794,-0.02626720629632473
1782774781376373200,1.869373291015625,-0.012828170321881771,-0.012217304669320583,-0.02687807008624077
1782774781386404400,1.879404296875,-0.0024434609804302454,-0.015882495790719986,-0.02382374368607998
1782774781396362200,1.8893623046875,0.012828170321881771,0.0024434609804302454,-0.013439035043120384
1782774781406393300,1.899393310546875,0.018936822190880775,0.012828170321881771,0.00427605677396059
1782774781416382000,1.9093818359375,0.018936822190880775,0.006108652334660292,0.02076941914856434
1782774781426382600,1.919382568359375,0.01771509274840355,0.00366519158706069,0.02932153269648552
1782774781436371000,1.929370849609375,0.01160643994808197,0.001832595793530345,0.02687807008624077
1782774781446401800,1.93940185546875,-0.0024434609804302454,-0.003054326167330146,0.012828170321881771
1782774781456390400,1.949390380859375,-0.006719517521560192,-0.003054326167330146,-0.013439035043120384
1782774781466390800,1.959390869140625,-0.0012217304902151227,-0.0012217304902151227,-0.039706241339445114
1782774781476379400,1.96937939453125,0.0024434609804302454,-0.00427605677396059,-0.05619960278272629
1782774781486410500,1.979410400390625,0.01038470957428217,-0.006719517521560192,-0.06230825558304787
1782774781496368400,1.989368408203125,0.015882495790719986,-0.01038470957428217,-0.05253441259264946
1782774781506399500,1.9993994140625,0.015271631069481373,-0.003054326167330146,-0.029932396486401558
1782774781516387800,2.009387939453125,0.007941247895359993,0.007941247895359993,-0.007941247895359993
1782774781526388700,2.019388671875,0.005497787147760391,0.015271631069481373,0.010995574295520782
1782774781536377000,2.029377197265625,0.006719517521560192,0.01771509274840355,0.02321287989616394
1782774781546408000,2.039407958984375,0.012828170321881771,0.02076941914856434,0.025656340643763542
1782774781556366000,2.049365966796875,0.02382374368607998,0.024434609338641167,0.02626720629632473
1782774781566397000,2.05939697265625,0.025656340643763542,0.02382374368607998,0.028099801391363144
1782774781576385300,2.06938525390625,0.02626720629632473,0.024434609338641167,0.02626720629632473
1782774781586386200,2.07938623046875,0.02321287989616394,0.02321287989616394,0.021991148591041565
1782774781596374300,2.089374267578125,0.01466076634824276,0.019547687843441963,0.01771509274840355
1782774781606405600,2.099405517578125,0.0012217304902151227,0.012828170321881771,0.013439035043120384
1782774781616363500,2.109363525390625,-0.01160643994808197,0.00366519158706069,0.0024434609804302454
1782774781626394600,2.11939453125,-0.02382374368607998,0,-0.01466076634824276
1782774781636383200,2.12938330078125,-0.033597588539123535,0.004886921960860491,-0.02687807008624077
1782774781646383600,2.139383544921875,-0.04398229718208313,-0.0006108652451075613,-0.03420845419168472
1782774781656372000,2.1493720703125,-0.04642575979232788,-0.006108652334660292,-0.033597588539123535
1782774781666403300,2.1594033203125,-0.04459316283464432,-0.00366519158706069,-0.02687807008624077
1782774781676361000,2.16936083984375,-0.0403171069920063,0.0012217304902151227,-0.015271631069481373
1782774781686392000,2.17939208984375,-0.03176499158143997,-0.001832595793530345,-0.005497787147760391
1782774781696380700,2.189380615234375,-0.01771509274840355,-0.005497787147760391,0
1782774781706411800,2.199411865234375,-0.012828170321881771,-0.006108652334660292,0.007941247895359993
1782774781716369700,2.20936962890625,-0.02015855349600315,-0.003054326167330146,0.015271631069481373
1782774781726401000,2.219401123046875,-0.02871066704392433,-0.0024434609804302454,0.01160643994808197
1782774781736389000,2.22938916015625,-0.02687807008624077,0.003054326167330146,-0.001832595793530345
1782774781746390000,2.23939013671875,-0.018325956538319588,0.01160643994808197,-0.015882495790719986
1782774781756378000,2.249378173828125,-0.006108652334660292,0.01771509274840355,-0.014049900695681572
1782774781766409500,2.259409423828125,-0.01038470957428217,0.015882495790719986,0.015882495790719986
1782774781776367000,2.2693671875,-0.018325956538319588,0.024434609338641167,0.03848451003432274
1782774781786398200,2.279398193359375,-0.024434609338641167,0.04642575979232788,0.060475658625364304
1782774781796386800,2.28938671875,-0.029932396486401558,0.05314527451992035,0.07391469180583954
1782774781806387200,2.29938720703125,-0.02015855349600315,0.054367005825042725,0.07880161702632904
1782774781816374500,2.30937451171875,-0.00366519158706069,0.04764748737215996,0.07819075137376785
1782774781826406100,2.31940625,0.0024434609804302454,0.028099801391363144,0.06902777403593063
1782774781836364300,2.3293642578125,0.00427605677396059,0.01771509274840355,0.04764748737215996
1782774781846395400,2.3393955078125,-0.0006108652451075613,0.01710422709584236,0.021380282938480377
1782774781856383700,2.3493837890625,-0.00855211354792118,0.013439035043120384,-0.0012217304902151227
1782774781866384400,2.35938427734375,-0.009773843921720982,0.007941247895359993,-0.018325956538319588
1782774781876372700,2.369372802734375,-0.00855211354792118,0.00427605677396059,-0.025656340643763542
1782774781886403800,2.37940380859375,-0.005497787147760391,0,-0.021991148591041565
1782774781896361700,2.38936181640625,-0.004886921960860491,-0.0006108652451075613,-0.004886921960860491
1782774781906393000,2.39939306640625,-0.004886921960860491,-0.00366519158706069,0.01160643994808197
1782774781916382000,2.4093818359375,-0.00427605677396059,0,0.022602014243602753
1782774781926382300,2.41938232421875,-0.00855211354792118,0.004886921960860491,0.02871066704392433
1782774781936371000,2.429370849609375,-0.012217304669320583,0.00427605677396059,0.02626720629632473
1782774781946402300,2.43940234375,-0.01771509274840355,0.0024434609804302454,0.022602014243602753
1782774781956390400,2.449390380859375,-0.028099801391363144,-0.00733038317412138,0.012828170321881771
1782774781966391000,2.45939111328125,-0.036651913076639175,-0.009162978269159794,-0.005497787147760391
1782774781976379100,2.469379150390625,-0.04642575979232788,-0.004886921960860491,-0.02321287989616394
1782774781986410500,2.479410400390625,-0.05375614017248154,-0.009773843921720982,-0.03420845419168472
1782774781996368400,2.489368408203125,-0.056810468435287476,-0.01771509274840355,-0.03787364438176155
1782774782006399500,2.4993994140625,-0.05192354694008827,-0.01710422709584236,-0.039095375686883926
1782774782016388000,2.50938818359375,-0.04886921867728233,-0.012217304669320583,-0.033597588539123535
1782774782026388500,2.519388427734375,-0.03726277872920036,0.0006108652451075613,-0.021991148591041565
1782774782036377000,2.529377197265625,-0.02871066704392433,0.007941247895359993,-0.00366519158706069
1782774782046408000,2.539407958984375,-0.021380282938480377,-0.0024434609804302454,0.016493361443281174
1782774782056365800,2.54936572265625,-0.013439035043120384,-0.00855211354792118,0.029932396486401558
1782774782066397000,2.55939697265625,-0.006108652334660292,-0.00366519158706069,0.03298672288656235
1782774782076385300,2.56938525390625,-0.003054326167330146,0.0012217304902151227,0.02687807008624077
1782774782086386200,2.57938623046875,-0.0006108652451075613,-0.00366519158706069,0.01466076634824276
1782774782096374500,2.58937451171875,-0.00427605677396059,-0.012828170321881771,0.0012217304902151227
1782774782106405600,2.599405517578125,-0.007941247895359993,-0.01710422709584236,-0.015271631069481373
1782774782116363500,2.609363525390625,-0.006719517521560192,-0.003054326167330146,-0.02871066704392433
1782774782126394600,2.61939453125,-0.00427605677396059,0.00427605677396059,-0.03237585723400116
1782774782136383200,2.62938330078125,0.001832595793530345,-0.006719517521560192,-0.027488935738801956
1782774782146384000,2.6393837890625,0.009773843921720982,-0.015882495790719986,-0.02015855349600315
1782774782156372000,2.6493720703125,0.02015855349600315,-0.02015855349600315,-0.01771509274840355
1782774782166403000,2.659403076171875,0.02871066704392433,-0.015271631069481373,-0.01771509274840355
1782774782176361000,2.66936083984375,0.03237585723400116,-0.014049900695681572,-0.012828170321881771
1782774782186392000,2.67939208984375,0.021991148591041565,-0.02015855349600315,-0.00855211354792118
1782774782196380700,2.689380615234375,-0.00427605677396059,-0.014049900695681572,-0.01038470957428217
1782774782206411800,2.699411865234375,-0.015271631069481373,-0.003054326167330146,-0.018936822190880775
1782774782216369700,2.70936962890625,-0.013439035043120384,0.004886921960860491,-0.02076941914856434
1782774782226400800,2.71940087890625,-0.006719517521560192,0.001832595793530345,-0.015271631069481373
1782774782236389000,2.72938916015625,0.001832595793530345,-0.012217304669320583,-0.004886921960860491
1782774782246389800,2.7393896484375,0.01710422709584236,-0.01771509274840355,0.004886921960860491
1782774782256378000,2.749378173828125,0.031154127791523933,-0.025656340643763542,0.00733038317412138
1782774782266409500,2.759409423828125,0.036651913076639175,-0.0354301854968071,0
1782774782276367000,2.7693671875,0.02871066704392433,-0.0354301854968071,-0.009162978269159794
1782774782286398200,2.779398193359375,0.00733038317412138,-0.029932396486401558,-0.019547687843441963
1782774782296386800,2.78938671875,-0.01710422709584236,-0.025045474991202354,-0.030543262138962746
1782774782306387500,2.799387451171875,-0.02687807008624077,-0.016493361443281174,-0.04214970022439957
1782774782316375800,2.809375732421875,-0.024434609338641167,-0.01038470957428217,-0.04337143152952194
1782774782326407000,2.819406982421875,-0.015882495790719986,-0.00855211354792118,-0.03420845419168472
1782774782336364500,2.829364501953125,0.0012217304902151227,-0.003054326167330146,-0.02076941914856434
1782774782346396000,2.83939599609375,0.010995574295520782,-0.005497787147760391,0
1782774782356384300,2.84938427734375,0.015271631069481373,-0.007941247895359993,0.018325956538319588
1782774782366384600,2.859384521484375,0.009162978269159794,-0.006108652334660292,0.03237585723400116
1782774782376373200,2.869373291015625,-0.00366519158706069,-0.009162978269159794,0.03848451003432274
1782774782386404400,2.879404296875,-0.01160643994808197,-0.015271631069481373,0.02687807008624077
1782774782396362200,2.8893623046875,-0.00733038317412138,-0.024434609338641167,0.0006108652451075613
1782774782406393300,2.899393310546875,0,-0.02382374368607998,-0.02626720629632473
1782774782416382000,2.9093818359375,0.006719517521560192,-0.025656340643763542,-0.04886921867728233
1782774782426382300,2.91938232421875,0.014049900695681572,-0.02015855349600315,-0.05619960278272629
1782774782436371000,2.929370849609375,0.016493361443281174,-0.01710422709584236,-0.04214970022439957
1782774782446402000,2.939402099609375,0.01466076634824276,-0.01771509274840355,-0.018325956538319588
1782774782456390400,2.949390380859375,0.014049900695681572,-0.01771509274840355,0.00366519158706069
1782774782466391000,2.95939111328125,0.01160643994808197,-0.015271631069481373,0.01710422709584236
1782774782476379400,2.96937939453125,0.006719517521560192,-0.02076941914856434,0.015882495790719986
1782774782486410200,2.97941015625,0.003054326167330146,-0.02687807008624077,-0.0006108652451075613
1782774782496368400,2.989368408203125,0.006108652334660292,-0.02382374368607998,-0.025045474991202354
1782774782506399500,2.9993994140625,0.00855211354792118,-0.012828170321881771,-0.04886921867728233
1782774782516388000,3.00938818359375,0.009773843921720982,0.0024434609804302454,-0.05742133408784866
1782774782526388700,3.019388671875,0.00733038317412138,0.001832595793530345,-0.04581489413976669
1782774782536377000,3.029377197265625,0.007941247895359993,-0.006719517521560192,-0.018936822190880775
1782774782546408000,3.039407958984375,0.015271631069481373,-0.00855211354792118,0.01160643994808197
1782774782556366000,3.049365966796875,0.012217304669320583,-0.009162978269159794,0.031154127791523933
1782774782566397000,3.05939697265625,0.010995574295520782,-0.001832595793530345,0.039095375686883926
1782774782576385300,3.06938525390625,0.001832595793530345,-0.0012217304902151227,0.03848451003432274
1782774782586386000,3.079385986328125,-0.001832595793530345,-0.0024434609804302454,0.02687807008624077
1782774782596374500,3.08937451171875,0,-0.0006108652451075613,0.0024434609804302454
1782774782606405600,3.099405517578125,0.003054326167330146,0.00855211354792118,-0.02687807008624077
1782774782616363500,3.109363525390625,-0.003054326167330146,0.015882495790719986,-0.056810468435287476
1782774782626394600,3.11939453125,-0.013439035043120384,0.019547687843441963,-0.06658431142568588
1782774782636413200,3.1294130859375,-0.015882495790719986,0.019547687843441963,-0.07147123664617538
1782774782646383900,3.1393837890625,-0.015882495790719986,0.01466076634824276,-0.06780604273080826
1782774782656372000,3.1493720703125,-0.015271631069481373,0.005497787147760391,-0.06475171446800232
1782774782666403300,3.1594033203125,-0.004886921960860491,0.012217304669320583,-0.06291911751031876
1782774782676361000,3.16936083984375,0.00733038317412138,0.04092797264456749,-0.05009094998240471
1782774782686392000,3.17939208984375,0.009773843921720982,0.05009094998240471,-0.021991148591041565
1782774782696380700,3.189380615234375,0.013439035043120384,0.03237585723400116,0.019547687843441963
1782774782706411800,3.199411865234375,0.01466076634824276,0.006719517521560192,0.060475658625364304
1782774782716369700,3.20936962890625,0.012828170321881771,0.00427605677396059,0.08124507963657379
1782774782726400800,3.21940087890625,0.012828170321881771,0.015882495790719986,0.08124507963657379
1782774782736389400,3.229389404296875,0.005497787147760391,0.015882495790719986,0.06414084881544113
1782774782746389800,3.2393896484375,0,0.01466076634824276,0.0403171069920063
1782774782756378400,3.24937841796875,-0.003054326167330146,0.00733038317412138,0.015882495790719986
1782774782766409200,3.2594091796875,0.0006108652451075613,0.00427605677396059,-0.004886921960860491
1782774782776367000,3.2693671875,0.006719517521560192,0.005497787147760391,-0.015882495790719986
1782774782786398200,3.279398193359375,0.005497787147760391,-0.0006108652451075613,-0.018325956538319588
1782774782796386600,3.289386474609375,0.0012217304902151227,-0.005497787147760391,-0.013439035043120384
1782774782806387500,3.299387451171875,-0.00366519158706069,0.001832595793530345,-0.001832595793530345
1782774782816374800,3.309374755859375,-0.00855211354792118,0.00733038317412138,0.01160643994808197
1782774782826406400,3.319406494140625,-0.009162978269159794,0.004886921960860491,0.019547687843441963
1782774782836364300,3.3293642578125,-0.0012217304902151227,0.00855211354792118,0.02321287989616394
1782774782846395100,3.33939501953125,0.01038470957428217,0.019547687843441963,0.02932153269648552
1782774782856383700,3.3493837890625,0.01038470957428217,0.025045474991202354,0.036041051149368286
1782774782866384400,3.35938427734375,0.01160643994808197,0.02015855349600315,0.04153883829712868
1782774782876372700,3.369372802734375,0.010995574295520782,0.024434609338641167,0.04642575979232788
1782774782886403800,3.37940380859375,0.0024434609804302454,0.019547687843441963,0.04642575979232788
1782774782896361700,3.38936181640625,-0.006108652334660292,0.0012217304902151227,0.04153883829712868
1782774782906393000,3.39939306640625,-0.01038470957428217,-0.007941247895359993,0.02626720629632473
1782774782916382000,3.4093818359375,-0.006719517521560192,-0.00855211354792118,-0.0006108652451075613
1782774782926382300,3.41938232421875,-0.005497787147760391,-0.003054326167330146,-0.025045474991202354
1782774782936371000,3.429370849609375,-0.007941247895359993,-0.0024434609804302454,-0.042760565876960754
1782774782946402000,3.439402099609375,-0.004886921960860491,0.003054326167330146,-0.051312681287527084
1782774782956390400,3.449390380859375,-0.00366519158706069,0.009162978269159794,-0.04153883829712868
1782774782966391000,3.45939111328125,-0.007941247895359993,0.012828170321881771,-0.018325956538319588
1782774782976339200,3.469339111328125,-0.016493361443281174,0.00855211354792118,0.012217304669320583
1782774782986471400,3.479471435546875,-0.02321287989616394,0.00855211354792118,0.039706241339445114
1782774782997413400,3.490413330078125,-0.03787364438176155,0.00366519158706069,0.04398229718208313
1782774783016387800,3.509387939453125,-0.0403171069920063,0.014049900695681572,0.0012217304902151227
1782774783026388700,3.519388671875,-0.04092797264456749,0.01466076634824276,-0.031154127791523933
1782774783036336600,3.529336669921875,-0.030543262138962746,0.025656340643763542,-0.051312681287527084
1782774783046469000,3.53946923828125,-0.03726277872920036,0.029932396486401558,-0.04153883829712868
1782774783056365800,3.54936572265625,-0.04092797264456749,0.0354301854968071,-0.025045474991202354
1782774783066397200,3.559397216796875,-0.04459316283464432,0.036041051149368286,-0.00366519158706069
1782774783076385500,3.569385498046875,-0.048258353024721146,0.030543262138962746,0.014049900695681572
1782774783086386200,3.57938623046875,-0.04703662544488907,0.03481931984424591,0.019547687843441963
1782774783096374500,3.58937451171875,-0.028099801391363144,0.033597588539123535,0.01038470957428217
1782774783106405600,3.599405517578125,-0.01160643994808197,0.015882495790719986,0.0006108652451075613
1782774783116363500,3.609363525390625,0.0006108652451075613,-0.003054326167330146,-0.015271631069481373
1782774783126395000,3.619394775390625,0.003054326167330146,-0.003054326167330146,-0.033597588539123535
1782774783136383200,3.62938330078125,0.0012217304902151227,0.01710422709584236,-0.04398229718208313
1782774783146384000,3.6393837890625,0.00366519158706069,0.024434609338641167,-0.036041051149368286
1782774783156372000,3.6493720703125,0.00733038317412138,0.012828170321881771,-0.006719517521560192
1782774783166403300,3.6594033203125,0.007941247895359993,-0.0006108652451075613,0.025656340643763542
1782774783176361000,3.66936083984375,0.014049900695681572,0.0006108652451075613,0.04398229718208313
1782774783186392000,3.67939208984375,0.016493361443281174,0.00855211354792118,0.04153883829712868
1782774783196380700,3.689380615234375,0.01466076634824276,0.010995574295520782,0.022602014243602753
1782774783206380800,3.699380859375,0.01710422709584236,0.018936822190880775,-0.003054326167330146
1782774783216461000,3.7094609375,0.016493361443281174,0.018936822190880775,-0.021991148591041565
1782774783226369800,3.719369873046875,0.019547687843441963,0.005497787147760391,-0.03420845419168472
1782774783236409900,3.729409912109375,0.018325956538319588,-0.00733038317412138,-0.036041051149368286
1782774783246481400,3.7394814453125,0.012217304669320583,-0.01038470957428217,-0.0354301854968071
1782774783256378000,3.749378173828125,0.00366519158706069,0.00366519158706069,-0.02626720629632473
1782774783266409500,3.759409423828125,-0.006108652334660292,0.01038470957428217,-0.012828170321881771
1782774783276327200,3.7693271484375,-0.00855211354792118,0.016493361443281174,-0.00427605677396059
1782774783286459400,3.77945947265625,-0.001832595793530345,0.00855211354792118,-0.00427605677396059
1782774783296386600,3.789386474609375,0.00855211354792118,0.004886921960860491,-0.006719517521560192
1782774783306387200,3.79938720703125,0.025045474991202354,0.012217304669320583,-0.004886921960860491
1782774783316375800,3.809375732421875,0.03237585723400116,0.01038470957428217,-0.0006108652451075613
1782774783326407000,3.819406982421875,0.036041051149368286,-0.0006108652451075613,0.006108652334660292
1782774783336324600,3.82932470703125,0.024434609338641167,-0.00733038317412138,0.013439035043120384
1782774783346395400,3.8393955078125,0.0024434609804302454,-0.00733038317412138,0.012217304669320583
1782774783357418200,3.850418212890625,-0.01038470957428217,-0.001832595793530345,0
1782774783376373200,3.869373291015625,-0.004886921960860491,-0.003054326167330146,-0.025656340643763542
1782774783386404400,3.879404296875,0.004886921960860491,-0.00733038317412138,-0.021991148591041565
1782774783396362200,3.8893623046875,0.015271631069481373,-0.012217304669320583,-0.010995574295520782
1782774783406393300,3.899393310546875,0.018936822190880775,-0.01038470957428217,0.0024434609804302454
1782774783416382000,3.9093818359375,0.015271631069481373,-0.006108652334660292,0.01038470957428217
1782774783426382300,3.91938232421875,0.001832595793530345,-0.0024434609804302454,0.014049900695681572
1782774783436371000,3.929370849609375,-0.010995574295520782,-0.006108652334660292,0.012217304669320583
1782774783446402000,3.939402099609375,-0.01466076634824276,-0.010995574295520782,-0.00427605677396059
1782774783456390400,3.949390380859375,-0.01038470957428217,-0.015882495790719986,-0.02382374368607998
1782774783466390800,3.959390869140625,-0.00366519158706069,-0.02871066704392433,-0.04459316283464432
1782774783476339200,3.969339111328125,0.0024434609804302454,-0.027488935738801956,-0.04398229718208313
1782774783486471400,3.979471435546875,0.004886921960860491,-0.027488935738801956,-0.030543262138962746
1782774783496368400,3.989368408203125,0.006108652334660292,-0.02626720629632473,-0.01160643994808197
1782774783506399500,3.9993994140625,0.012828170321881771,-0.021380282938480377,0.00855211354792118
1782774783516347600,4.00934765625,0.01466076634824276,-0.01771509274840355,0.028099801391363144
1782774783526480100,4.019480224609375,0.012217304669320583,-0.02015855349600315,0.036041051149368286
1782774783536377000,4.029377197265625,0.012217304669320583,-0.02076941914856434,0.0354301854968071
1782774783546408200,4.039408203125,0.01038470957428217,-0.021380282938480377,0.02321287989616394
1782774783557427200,4.05042724609375,0.009162978269159794,-0.028099801391363144,0.00733038317412138
1782774783576385300,4.06938525390625,0.004886921960860491,-0.033597588539123535,-0.016493361443281174
1782774783586386200,4.07938623046875,-0.0006108652451075613,-0.0354301854968071,-0.03237585723400116
1782774783596374500,4.08937451171875,0.00733038317412138,-0.02626720629632473,-0.056810468435287476
1782774783606405600,4.099405517578125,0.019547687843441963,-0.00366519158706069,-0.06780604273080826
1782774783616363500,4.109363525390625,0.02382374368607998,-0.004886921960860491,-0.05253441259264946
1782774783626395000,4.119394775390625,0.024434609338641167,-0.01160643994808197,-0.015271631069481373
1782774783636383200,4.12938330078125,0.022602014243602753,-0.013439035043120384,0.024434609338641167
1782774783646352600,4.1393525390625,0.019547687843441963,-0.013439035043120384,0.05497787147760391
1782774783656393000,4.14939306640625,0.022602014243602753,-0.010995574295520782,0.06291911751031876
1782774783666464300,4.15946435546875,0.033597588539123535,-0.009773843921720982,0.05192354694008827
1782774783676361000,4.16936083984375,0.04337143152952194,-0.01466076634824276,0.031154127791523933
1782774783686392000,4.17939208984375,0.03787364438176155,-0.01771509274840355,0.006108652334660292
1782774783696380700,4.189380615234375,0.018936822190880775,-0.00366519158706069,-0.016493361443281174
1782774783706411800,4.199411865234375,-0.0012217304902151227,0.006108652334660292,-0.03787364438176155
1782774783716369700,4.20936962890625,-0.010995574295520782,0.009162978269159794,-0.05253441259264946
1782774783726401000,4.219401123046875,-0.01038470957428217,0.006719517521560192,-0.05192354694008827
1782774783736389000,4.22938916015625,0.0012217304902151227,0.004886921960860491,-0.04214970022439957
1782774783746390000,4.23939013671875,0.016493361443281174,0.010995574295520782,-0.02015855349600315
1782774783756378000,4.249378173828125,0.02076941914856434,0.012217304669320583,0.007941247895359993
1782774783766409500,4.259409423828125,0.02687807008624077,0.009773843921720982,0.024434609338641167
1782774783776367000,4.2693671875,0.04214970022439957,0.021991148591041565,0.030543262138962746
1782774783786398500,4.2793984375,0.0507018156349659,0.025045474991202354,0.03848451003432274
1782774783796386800,4.28938671875,0.03848451003432274,0.013439035043120384,0.04703662544488907
1782774783806387500,4.299387451171875,0.02932153269648552,-0.0012217304902151227,0.05009094998240471
1782774783816374800,4.309374755859375,0.019547687843441963,-0.003054326167330146,0.04581489413976669
1782774783826406400,4.319406494140625,0.007941247895359993,-0.00733038317412138,0.03848451003432274
1782774783836364000,4.329364013671875,0.001832595793530345,-0.01466076634824276,0.021380282938480377
1782774783846395100,4.33939501953125,-0.0024434609804302454,-0.02015855349600315,-0.0012217304902151227
1782774783856383700,4.3493837890625,-0.00366519158706069,-0.015882495790719986,-0.025045474991202354
1782774783866384400,4.35938427734375,-0.005497787147760391,-0.0006108652451075613,-0.039095375686883926
1782774783876372700,4.369372802734375,-0.0024434609804302454,0.007941247895359993,-0.03848451003432274
1782774783886404000,4.379404052734375,-0.00427605677396059,0.006719517521560192,-0.0006108652451075613
1782774783896361700,4.38936181640625,-0.00855211354792118,-0.00427605677396059,0.03237585723400116
1782774783906393000,4.39939306640625,-0.01038470957428217,-0.009773843921720982,0.056810468435287476
1782774783916341800,4.409341796875,-0.012217304669320583,-0.012217304669320583,0.06352998316287994
1782774783926474000,4.419473876953125,-0.028099801391363144,-0.016493361443281174,0.0555887371301651
1782774783936371000,4.429370849609375,-0.036651913076639175,-0.01466076634824276,0.025656340643763542
1782774783946370800,4.439370849609375,-0.02321287989616394,-0.0012217304902151227,-0.00733038317412138
1782774783956533200,4.449533203125,-0.014049900695681572,-0.006719517521560192,-0.021991148591041565
1782774783966421000,4.4594208984375,-0.007941247895359993,-0.028099801391363144,-0.016493361443281174
1782774783976409900,4.469409912109375,-0.006108652334660292,-0.031154127791523933,0.00427605677396059
1782774783986379500,4.479379638671875,-0.009773843921720982,-0.02626720629632473,0.02626720629632473
1782774783997319200,4.490319091796875,-0.015882495790719986,-0.025045474991202354,0.0403171069920063
1782774784016387800,4.509387939453125,-0.004886921960860491,-0.025656340643763542,0.02382374368607998
1782774784026388700,4.519388671875,0.001832595793530345,-0.019547687843441963,0.0024434609804302454
1782774784036336600,4.529336669921875,0.01160643994808197,-0.009773843921720982,-0.018936822190880775
1782774784046468900,4.53946875,0.015271631069481373,0.009162978269159794,-0.02076941914856434
1782774784056325600,4.54932568359375,0.006719517521560192,0.006108652334660292,-0.0012217304902151227
1782774784066396700,4.559396728515625,0.00366519158706069,-0.001832595793530345,0.02076941914856434
1782774784077388500,4.570388427734375,0.005497787147760391,0.0006108652451075613,0.03420845419168472
1782774784096405000,4.589405029296875,0.01160643994808197,0.0012217304902151227,0.02932153269648552
1782774784106405600,4.599405517578125,0.010995574295520782,0.005497787147760391,0.021380282938480377
1782774784116363500,4.609363525390625,0.006719517521560192,0.005497787147760391,0.01038470957428217
1782774784126395000,4.619394775390625,0.013439035043120384,0.01038470957428217,-0.0012217304902151227
1782774784136383200,4.62938330078125,0.014049900695681572,0.012828170321881771,-0.005497787147760391
1782774784146384000,4.6393837890625,-0.0006108652451075613,0.00855211354792118,-0.0024434609804302454
1782774784156372000,4.6493720703125,-0.00427605677396059,0.022602014243602753,0.0012217304902151227
1782774784166403000,4.659403076171875,-0.0024434609804302454,0.030543262138962746,0.012217304669320583
1782774784176361000,4.66936083984375,0,0.01466076634824276,0.029932396486401558
1782774784186391800,4.679391845703125,0.00366519158706069,0.001832595793530345,0.04153883829712868
1782774784197299500,4.690299560546875,0.01038470957428217,-0.0012217304902151227,0.0403171069920063
1782774784216369700,4.70936962890625,0.001832595793530345,0.007941247895359993,0.006108652334660292
1782774784226400800,4.71940087890625,0.001832595793530345,0.01466076634824276,-0.016493361443281174
1782774784236349000,4.729348876953125,0.0024434609804302454,0.021380282938480377,-0.02687807008624077
1782774784246481400,4.7394814453125,0.005497787147760391,0.02076941914856434,-0.018936822190880775
1782774784256378000,4.749378173828125,0.00427605677396059,0.021380282938480377,0.004886921960860491
1782774784266409500,4.759409423828125,-0.007941247895359993,0.01160643994808197,0.0354301854968071
1782774784276327200,4.7693271484375,-0.01038470957428217,0.00427605677396059,0.04337143152952194
1782774784286428400,4.779428466796875,-0.009162978269159794,0.01160643994808197,0.039706241339445114
1782774784296447700,4.78944775390625,-0.015271631069481373,0.009162978269159794,0.027488935738801956
1782774784306387500,4.799387451171875,-0.009162978269159794,0.01710422709584236,0.006719517521560192
1782774784316375800,4.809375732421875,-0.0024434609804302454,0.016493361443281174,0.007941247895359993
1782774784326407000,4.819406982421875,-0.00427605677396059,0.006108652334660292,0.014049900695681572
1782774784336364800,4.82936474609375,-0.0024434609804302454,0,0.015271631069481373
1782774784346396000,4.83939599609375,0.00427605677396059,0.004886921960860491,0.013439035043120384
1782774784356344000,4.849343994140625,0.006108652334660292,0.0006108652451075613,0.01160643994808197
1782774784366445300,4.8594453125,0.0024434609804302454,-0.004886921960860491,0.009773843921720982
1782774784376434200,4.86943408203125,-0.001832595793530345,-0.006719517521560192,0.00733038317412138
1782774784386373400,4.879373291015625,-0.010995574295520782,0.0012217304902151227,0.0024434609804302454
1782774784397188900,4.89018896484375,-0.02076941914856434,0.013439035043120384,-0.003054326167330146
1782774784416443000,4.90944287109375,-0.04153883829712868,0.015882495790719986,-0.001832595793530345
1782774784426382600,4.919382568359375,-0.04337143152952194,0.01710422709584236,0.007941247895359993
1782774784436371000,4.929370849609375,-0.04642575979232788,0.012828170321881771,0.013439035043120384
1782774784446370800,4.939370849609375,-0.04214970022439957,0.012217304669320583,0.01771509274840355
1782774784456451300,4.949451416015625,-0.039095375686883926,0.010995574295520782,0.021380282938480377
1782774784466391000,4.95939111328125,-0.042760565876960754,0.0024434609804302454,0.022602014243602753
1782774784476339200,4.969339111328125,-0.04337143152952194,0.003054326167330146,0.012828170321881771
1782774784486440400,4.9794404296875,-0.04398229718208313,0.01466076634824276,0.004886921960860491
1782774784496459800,4.989459716796875,-0.05619960278272629,0.01466076634824276,0.006719517521560192
1782774784506399700,4.999399658203125,-0.06841690838336945,0.003054326167330146,0.009773843921720982
1782774784516388000,5.00938818359375,-0.0659734457731247,0.0012217304902151227,0.00427605677396059
1782774784526388700,5.019388671875,-0.05619960278272629,0,0.001832595793530345
1782774784536377000,5.029377197265625,-0.04703662544488907,-0.009162978269159794,0
1782774784546377000,5.039376953125,-0.033597588539123535,-0.009773843921720982,-0.004886921960860491
1782774784556457500,5.04945751953125,-0.014049900695681572,0.0006108652451075613,-0.01160643994808197
1782774784566397200,5.059397216796875,0.0006108652451075613,0.015882495790719986,-0.01038470957428217
1782774784576385500,5.069385498046875,0.001832595793530345,0.01466076634824276,-0.003054326167330146
1782774784586386000,5.079385986328125,-0.003054326167330146,0.007941247895359993,0.006719517521560192
1782774784596374500,5.08937451171875,-0.010995574295520782,-0.004886921960860491,0.009162978269159794
1782774784606405600,5.099405517578125,-0.013439035043120384,-0.015271631069481373,-0.0012217304902151227
1782774784616363500,5.109363525390625,0.0012217304902151227,-0.0012217304902151227,-0.019547687843441963
1782774784626394600,5.11939453125,0.018936822190880775,0.009162978269159794,-0.02932153269648552
1782774784636413200,5.1294130859375,0.022602014243602753,-0.025656340643763542,-0.03787364438176155
1782774784646383900,5.1393837890625,0.036041051149368286,-0.00427605677396059,-0.03481931984424591
1782774784656372000,5.1493720703125,0.039706241339445114,0.02626720629632473,-0.02321287989616394
1782774784666403300,5.1594033203125,0.0354301854968071,0.02687807008624077,-0.004886921960860491
1782774784676361000,5.16936083984375,0.03420845419168472,0.03298672288656235,0.021380282938480377
1782774784686392300,5.179392333984375,0.030543262138962746,0.033597588539123535,0.039706241339445114
1782774784696380700,5.189380615234375,0.030543262138962746,0.033597588539123535,0.04948008432984352
1782774784706411800,5.199411865234375,0.02871066704392433,0.04092797264456749,0.04581489413976669
1782774784716369700,5.20936962890625,0.030543262138962746,0.0403171069920063,0.03298672288656235
1782774784726401000,5.219401123046875,0.030543262138962746,0.025656340643763542,0.01038470957428217
1782774784736389000,5.22938916015625,0.02687807008624077,0.025656340643763542,0.001832595793530345
1782774784746390000,5.23939013671875,0.015882495790719986,0.02015855349600315,-0.004886921960860491
1782774784756378000,5.249378173828125,0.013439035043120384,0.021991148591041565,-0.01160643994808197
1782774784766409200,5.2594091796875,0.01466076634824276,0.02871066704392433,-0.006719517521560192
1782774784776367000,5.2693671875,0.014049900695681572,0.02382374368607998,0.006108652334660292
1782774784786398200,5.279398193359375,0.00855211354792118,0.00427605677396059,0.02382374368607998
1782774784796386600,5.289386474609375,0.0012217304902151227,-0.00427605677396059,0.03481931984424591
1782774784806387500,5.299387451171875,-0.00733038317412138,-0.009773843921720982,0.025045474991202354
1782774784816374500,5.30937451171875,-0.00733038317412138,-0.00427605677396059,0.0012217304902151227
1782774784826406400,5.319406494140625,-0.0006108652451075613,-0.0024434609804302454,-0.025045474991202354
1782774784836364000,5.329364013671875,0.009162978269159794,-0.019547687843441963,-0.04092797264456749
1782774784846395100,5.33939501953125,0.01710422709584236,-0.04337143152952194,-0.04764748737215996
1782774784856383700,5.3493837890625,0.02687807008624077,-0.04703662544488907,-0.0555887371301651
1782774784866384400,5.35938427734375,0.031154127791523933,-0.02626720629632473,-0.05803219974040985
1782774784876372700,5.369372802734375,0.031154127791523933,-0.00366519158706069,-0.05253441259264946
1782774784886403800,5.37940380859375,0.027488935738801956,-0.0012217304902151227,-0.02932153269648552
1782774784896361700,5.38936181640625,0.018325956538319588,-0.02076941914856434,-0.0006108652451075613
1782774784906393000,5.39939306640625,0.015882495790719986,-0.031154127791523933,0.01160643994808197
1782774784916381700,5.409381591796875,0.019547687843441963,-0.005497787147760391,0.0012217304902151227
1782774784926382600,5.419382568359375,0.028099801391363144,0.021380282938480377,-0.02382374368607998
1782774784936371000,5.429370849609375,0.04092797264456749,0.03298672288656235,-0.03848451003432274
1782774784946402000,5.439402099609375,0.04581489413976669,0.02687807008624077,-0.02871066704392433
1782774784956390400,5.449390380859375,0.039706241339445114,0.009162978269159794,-0.004886921960860491
1782774784966391000,5.45939111328125,0.0354301854968071,0.009773843921720982,0.012828170321881771
1782774784976379100,5.469379150390625,0.03481931984424591,0.015882495790719986,0.013439035043120384
1782774784986410500,5.479410400390625,0.039095375686883926,0.01771509274840355,0.00855211354792118
1782774784996368400,5.489368408203125,0.036651913076639175,0.009162978269159794,0.006719517521560192
1782774785006399500,5.4993994140625,0.02932153269648552,-0.0024434609804302454,0.007941247895359993
1782774785016387800,5.509387939453125,0.01466076634824276,-0.00733038317412138,0.00733038317412138
1782774785026388500,5.519388427734375,0.0024434609804302454,-0.004886921960860491,-0.00366519158706069
1782774785036377000,5.529377197265625,-0.003054326167330146,-0.00427605677396059,-0.025045474991202354
1782774785046408200,5.539408203125,0.003054326167330146,-0.006108652334660292,-0.048258353024721146
1782774785056366000,5.549365966796875,0.006719517521560192,-0.006719517521560192,-0.06108652427792549
1782774785066397000,5.55939697265625,-0.0006108652451075613,-0.009162978269159794,-0.05864306539297104
1782774785076385500,5.569385498046875,-0.00855211354792118,-0.001832595793530345,-0.04948008432984352
1782774785086386200,5.57938623046875,-0.006719517521560192,0.005497787147760391,-0.036041051149368286
1782774785096374500,5.58937451171875,-0.0012217304902151227,0.0006108652451075613,-0.016493361443281174
1782774785106405600,5.599405517578125,0.0012217304902151227,-0.015882495790719986,0.012217304669320583
1782774785116363500,5.609363525390625,0.007941247895359993,-0.010995574295520782,0.036041051149368286
1782774785126394600,5.61939453125,0.009162978269159794,0.005497787147760391,0.04642575979232788
1782774785136383000,5.629383056640625,0.01160643994808197,0.01160643994808197,0.042760565876960754
1782774785146384000,5.6393837890625,0.012217304669320583,0.010995574295520782,0.029932396486401558
1782774785156372000,5.6493720703125,0.00733038317412138,0.006719517521560192,-0.005497787147760391
1782774785166402800,5.65940283203125,0.00733038317412138,0.00855211354792118,-0.027488935738801956
1782774785176361000,5.66936083984375,0.00366519158706069,0.005497787147760391,-0.0354301854968071
1782774785186392300,5.679392333984375,0,-0.001832595793530345,-0.031154127791523933
1782774785196380400,5.68938037109375,-0.00366519158706069,-0.004886921960860491,-0.015271631069481373
1782774785206411500,5.69941162109375,-0.00855211354792118,-0.00427605677396059,-0.001832595793530345
1782774785216369700,5.70936962890625,0,0.006719517521560192,0.004886921960860491
1782774785226400800,5.71940087890625,0.01160643994808197,0.013439035043120384,0.009773843921720982
1782774785236389000,5.72938916015625,0.019547687843441963,0.010995574295520782,0.01466076634824276
1782774785246390000,5.73939013671875,0.02321287989616394,0.01466076634824276,0.022602014243602753
1782774785256378000,5.749378173828125,0.02015855349600315,0.019547687843441963,0.02932153269648552
1782774785266409200,5.7594091796875,0.009773843921720982,0.012828170321881771,0.039095375686883926
1782774785276367000,5.7693671875,-0.009162978269159794,0,0.045204028487205505
1782774785286398200,5.779398193359375,-0.021380282938480377,-0.00427605677396059,0.031154127791523933
1782774785296386600,5.789386474609375,-0.019547687843441963,0.00855211354792118,0.0006108652451075613
1782774785306387200,5.79938720703125,-0.01466076634824276,0.02015855349600315,-0.031154127791523933
1782774785316375800,5.809375732421875,-0.00855211354792118,0.02321287989616394,-0.04337143152952194
1782774785326407000,5.819406982421875,-0.00366519158706069,0.015882495790719986,-0.028099801391363144
1782774785336364800,5.82936474609375,-0.004886921960860491,0.007941247895359993,0.003054326167330146
1782774785346396000,5.83939599609375,-0.01466076634824276,0.005497787147760391,0.033597588539123535
1782774785356384300,5.84938427734375,-0.02076941914856434,0.001832595793530345,0.05192354694008827
1782774785366385000,5.859385009765625,-0.015271631069481373,0.0012217304902151227,0.04642575979232788
1782774785376373200,5.869373291015625,-0.005497787147760391,-0.003054326167330146,0.02626720629632473
1782774785386404600,5.879404541015625,0.00427605677396059,-0.0006108652451075613,0.00366519158706069
1782774785396362200,5.8893623046875,0.00733038317412138,0.01160643994808197,-0.012828170321881771
1782774785406393300,5.899393310546875,0.001832595793530345,0.015882495790719986,-0.01466076634824276
1782774785416382000,5.9093818359375,-0.004886921960860491,0.018936822190880775,-0.004886921960860491
1782774785426382600,5.919382568359375,-0.01710422709584236,0.02871066704392433,0.02015855349600315
1782774785436371000,5.929370849609375,-0.02626720629632473,0.02015855349600315,0.04642575979232788
1782774785446402300,5.93940234375,-0.025656340643763542,0.009773843921720982,0.05803219974040985
1782774785456390400,5.949390380859375,-0.021991148591041565,0.006108652334660292,0.04886921867728233
1782774785466390800,5.959390869140625,-0.015271631069481373,0.005497787147760391,0.02626720629632473
1782774785476379400,5.96937939453125,-0.01160643994808197,0.010995574295520782,0.00366519158706069
1782774785486410200,5.97941015625,-0.00855211354792118,0.009773843921720982,-0.005497787147760391
1782774785496368400,5.989368408203125,-0.014049900695681572,0.00366519158706069,0
1782774785506399500,5.9993994140625,-0.02382374368607998,-0.006108652334660292,0.010995574295520782
1782774785516388000,6.00938818359375,-0.02382374368607998,-0.006719517521560192,0.019547687843441963
1782774785526388700,6.019388671875,-0.02626720629632473,-0.00855211354792118,0.024434609338641167
1782774785536377000,6.029377197265625,-0.03176499158143997,-0.019547687843441963,0.015271631069481373
1782774785546408200,6.039408203125,-0.02076941914856434,-0.010995574295520782,-0.006719517521560192
1782774785556366000,6.049365966796875,-0.014049900695681572,-0.003054326167330146,-0.027488935738801956
1782774785566397200,6.059397216796875,-0.006108652334660292,-0.0024434609804302454,-0.03237585723400116
1782774785576385300,6.06938525390625,-0.00427605677396059,-0.006108652334660292,-0.010995574295520782
1782774785586386200,6.07938623046875,-0.010995574295520782,-0.00855211354792118,0.00733038317412138
1782774785596374500,6.08937451171875,-0.014049900695681572,-0.00427605677396059,0.01771509274840355
1782774785606406000,6.099406005859375,-0.009773843921720982,0,0.019547687843441963
1782774785616363500,6.109363525390625,0,0.0012217304902151227,0.01710422709584236
1782774785626395000,6.119394775390625,0.00733038317412138,-0.009773843921720982,0.01466076634824276
1782774785636383200,6.12938330078125,0.014049900695681572,-0.018325956538319588,0.012217304669320583
1782774785646383900,6.1393837890625,0.01710422709584236,-0.021991148591041565,0.00427605677396059
1782774785656372200,6.149372314453125,0.018936822190880775,-0.019547687843441963,-0.009162978269159794
1782774785666403000,6.159403076171875,0.019547687843441963,-0.016493361443281174,-0.018936822190880775
1782774785676361000,6.16936083984375,0.018936822190880775,-0.019547687843441963,-0.016493361443281174
1782774785686392000,6.17939208984375,0.01710422709584236,-0.02015855349600315,-0.00733038317412138
1782774785696380700,6.189380615234375,0.01710422709584236,-0.012828170321881771,0
1782774785706411500,6.19941162109375,0.02015855349600315,-0.012828170321881771,0.001832595793530345
1782774785716369700,6.20936962890625,0.025656340643763542,-0.015882495790719986,-0.00427605677396059
1782774785726400800,6.21940087890625,0.03481931984424591,-0.015882495790719986,-0.02626720629632473
1782774785736389000,6.22938916015625,0.042760565876960754,-0.003054326167330146,-0.045204028487205505
1782774785746390000,6.23939013671875,0.0354301854968071,-0.0012217304902151227,-0.039095375686883926
1782774785756378000,6.249378173828125,0.018325956538319588,-0.00427605677396059,-0.012828170321881771
1782774785766409500,6.259409423828125,0.006719517521560192,-0.007941247895359993,0.010995574295520782
1782774785776367000,6.2693671875,0.004886921960860491,-0.00855211354792118,0.02321287989616394
1782774785786398200,6.279398193359375,0.01160643994808197,0.0024434609804302454,0.02321287989616394
1782774785796386600,6.289386474609375,0.02015855349600315,0.00427605677396059,0.01771509274840355
1782774785806387500,6.299387451171875,0.02382374368607998,-0.006719517521560192,0.006719517521560192
1782774785816374500,6.30937451171875,0.025656340643763542,-0.007941247895359993,-0.007941247895359993
1782774785826406400,6.319406494140625,0.01771509274840355,-0.006719517521560192,-0.02932153269648552
1782774785836364000,6.329364013671875,0.009162978269159794,0.0006108652451075613,-0.04764748737215996
1782774785846395100,6.33939501953125,-0.0012217304902151227,0.00366519158706069,-0.0507018156349659
1782774785856383700,6.3493837890625,-0.01160643994808197,-0.00427605677396059,-0.03848451003432274
1782774785866384400,6.35938427734375,-0.015882495790719986,-0.02015855349600315,-0.02382374368607998
1782774785876372700,6.369372802734375,-0.00855211354792118,-0.02932153269648552,-0.02076941914856434
1782774785886403800,6.37940380859375,-0.001832595793530345,-0.02626720629632473,-0.02687807008624077
1782774785896361700,6.38936181640625,-0.005497787147760391,-0.015882495790719986,-0.03237585723400116
1782774785906393000,6.39939306640625,-0.00855211354792118,-0.009162978269159794,-0.04337143152952194
1782774785916382000,6.4093818359375,0.0012217304902151227,0.00427605677396059,-0.048258353024721146
1782774785926382600,6.419382568359375,0.009773843921720982,0.003054326167330146,-0.036651913076639175
1782774785936371000,6.429370849609375,0.009162978269159794,-0.007941247895359993,-0.01710422709584236
1782774785946401800,6.43940185546875,0.004886921960860491,0.001832595793530345,-0.003054326167330146
1782774785956350200,6.44935009765625,-0.001832595793530345,0.0012217304902151227,-0.00366519158706069
1782774785966482200,6.459482177734375,-0.009773843921720982,0.00427605677396059,-0.009162978269159794
1782774785976379400,6.46937939453125,-0.021380282938480377,0.00855211354792118,-0.015271631069481373
1782774785986410500,6.479410400390625,-0.02382374368607998,0.001832595793530345,-0.03176499158143997
1782774785996368400,6.489368408203125,-0.015271631069481373,0.0024434609804302454,-0.04948008432984352
1782774786006399500,6.4993994140625,-0.0024434609804302454,0,-0.059864792972803116
1782774786016387800,6.509387939453125,0.0012217304902151227,-0.001832595793530345,-0.05314527451992035
1782774786026357500,6.519357421875,-0.004886921960860491,-0.003054326167330146,-0.03481931984424591
1782774786036438000,6.52943798828125,-0.019547687843441963,-0.010995574295520782,-0.019547687843441963
1782774786046377000,6.539376953125,-0.018936822190880775,-0.013439035043120384,-0.018325956538319588
1782774786056417300,6.549417236328125,-0.010995574295520782,-0.007941247895359993,-0.025656340643763542
1782774786066458000,6.5594580078125,-0.001832595793530345,-0.00366519158706069,-0.039706241339445114
1782774786076345300,6.569345458984375,0.014049900695681572,0.0024434609804302454,-0.048258353024721146
1782774786086477600,6.5794775390625,0.018325956538319588,0.009773843921720982,-0.03787364438176155
1782774786096374500,6.58937451171875,0.009162978269159794,0.001832595793530345,-0.016493361443281174
1782774786106405600,6.599405517578125,-0.003054326167330146,-0.007941247895359993,0.006108652334660292
1782774786116363500,6.609363525390625,-0.01466076634824276,-0.007941247895359993,0.018936822190880775
1782774786126395000,6.619394775390625,-0.01771509274840355,-0.006719517521560192,0.015882495790719986
1782774786136383200,6.62938330078125,-0.01466076634824276,-0.003054326167330146,0.0012217304902151227
1782774786146384000,6.6393837890625,-0.014049900695681572,0.0024434609804302454,-0.00733038317412138
1782774786156331800,6.649331787109375,-0.016493361443281174,0.010995574295520782,-0.003054326167330146
1782774786166433300,6.659433349609375,-0.012828170321881771,0.014049900695681572,0.010995574295520782
1782774786176452600,6.66945263671875,-0.0012217304902151227,0.013439035043120384,0.027488935738801956
1782774786186361300,6.679361328125,0.003054326167330146,0.006719517521560192,0.04581489413976669
1782774786197146000,6.69014599609375,-0.006108652334660292,-0.006108652334660292,0.05009094998240471
1782774786216369700,6.70936962890625,-0.021991148591041565,0.0024434609804302454,0.021380282938480377
1782774786226401000,6.719401123046875,-0.03176499158143997,-0.0012217304902151227,-0.0012217304902151227
1782774786236389000,6.72938916015625,-0.03726277872920036,0.003054326167330146,-0.02321287989616394
1782774786246358800,6.73935888671875,-0.03176499158143997,0.00366519158706069,-0.04214970022439957
1782774786256439300,6.749439208984375,-0.01771509274840355,0.009773843921720982,-0.04581489413976669
1782774786266409000,6.759408935546875,-0.016493361443281174,0.010995574295520782,-0.03848451003432274
1782774786276367000,6.7693671875,-0.003054326167330146,0.022602014243602753,-0.01466076634824276
1782774786286398200,6.779398193359375,0.005497787147760391,0.028099801391363144,0.018325956538319588
1782774786296386600,6.789386474609375,-0.0012217304902151227,0.025045474991202354,0.04581489413976669
1782774786306387200,6.79938720703125,-0.01466076634824276,0.006719517521560192,0.05375614017248154
1782774786316375800,6.809375732421875,-0.022602014243602753,0.012828170321881771,0.04337143152952194
1782774786326376000,6.8193759765625,-0.03420845419168472,0.009162978269159794,0.018936822190880775
1782774786336456200,6.829456298828125,-0.03176499158143997,0.012217304669320583,-0.015882495790719986
1782774786346364700,6.83936474609375,-0.01038470957428217,0.02687807008624077,-0.042760565876960754
1782774786356537000,6.849537109375,0.006108652334660292,0.01710422709584236,-0.051312681287527084
1782774786366384600,6.859384521484375,0.014049900695681572,0.006719517521560192,-0.039095375686883926
1782774786376373200,6.869373291015625,0.01771509274840355,0.0012217304902151227,-0.015271631069481373
1782774786386404000,6.879404052734375,0.01710422709584236,-0.001832595793530345,0.01160643994808197
1782774786396362200,6.8893623046875,0.022602014243602753,-0.012828170321881771,0.02687807008624077
1782774786406393600,6.8993935546875,0.031154127791523933,-0.018936822190880775,0.02626720629632473
1782774786416382000,6.9093818359375,0.04642575979232788,-0.025656340643763542,0.00733038317412138
1782774786426382600,6.919382568359375,0.05803219974040985,-0.021991148591041565,-0.025045474991202354
1782774786436371000,6.929370849609375,0.04703662544488907,0.004886921960860491,-0.036041051149368286
1782774786446401800,6.93940185546875,0.029932396486401558,0.06536258012056351,0.0012217304902151227
1782774786456390400,6.949390380859375,0.03726277872920036,0.05009094998240471,0.07024950534105301
1782774786466391000,6.95939111328125,0.048258353024721146,-0.039095375686883926,0.11545353382825851
1782774786476379400,6.96937939453125,0.08124507963657379,-0.04764748737215996,0.15821409225463867
1782774786486410500,6.979410400390625,0.08796459436416626,-0.036651913076639175,0.14355333149433136
1782774786496368400,6.989368408203125,0.07513642311096191,-0.025656340643763542,0.11056660860776901
1782774786506399500,6.9993994140625,0.06352998316287994,-0.012828170321881771,0.0806342139840126
1782774786516388000,7.00938818359375,0.05314527451992035,-0.051312681287527084,0.03420845419168472
1782774786526388700,7.019388671875,0.031154127791523933,-0.06108652427792549,-0.042760565876960754
1782774786536377000,7.029377197265625,-0.005497787147760391,-0.0012217304902151227,-0.12950342893600464
1782774786546408000,7.039407958984375,-0.04214970022439957,0.022602014243602753,-0.19058994948863983
1782774786556365800,7.04936572265625,-0.06108652427792549,-0.007941247895359993,-0.21319197118282318
1782774786566397200,7.059397216796875,-0.06291911751031876,-0.05192354694008827,-0.19547687470912933
1782774786576385300,7.06938525390625,-0.036041051149368286,-0.07269296050071716,-0.14538592100143433
1782774786586386200,7.07938623046875,-0.00855211354792118,-0.045204028487205505,-0.05497787147760391
