time,seconds_elapsed,z,y,x
1782774929386398500,0.1723984375,0.42293262481689453,-0.37055397033691406,-0.38413894176483154
1782774929396377600,0.182377685546875,0.32487058639526367,-0.4965553283691406,-0.5192105770111084
1782774929406387200,0.19238720703125,0.43987321853637695,-0.6334123611450195,-0.6511896848678589
1782774929416397000,0.20239697265625,0.7629866600036621,-0.6102695465087891,-0.7343348860740662
1782774929426376200,0.212376220703125,0.8566083908081055,-0.37654876708984375,-0.035988569259643555
1782774929436386000,0.222385986328125,0.3089475631713867,0.0035648345947265625,0.7960226535797119
1782774929446395600,0.232395751953125,-0.558948278427124,0.5557823181152344,1.1761046648025513
1782774929456375000,0.242375,-1.518899917602539,0.6048192977905273,0.8468595743179321
1782774929466385000,0.252385009765625,-1.887289047241211,0.47434234619140625,0.6726473569869995
1782774929476394800,0.262394775390625,-1.9374561309814453,0.36234569549560547,0.19466423988342285
1782774929486404400,0.272404296875,-2.0761656761169434,0.21081924438476562,-0.6488795280456543
1782774929496383700,0.2823837890625,-1.569507122039795,0.1144571304321289,-0.5498269200325012
1782774929506393300,0.292393310546875,-1.1214301586151123,-0.001964569091796875,-0.2041987180709839
1782774929516403000,0.30240283203125,-0.729816198348999,0.008764266967773438,-0.027597427368164062
1782774929526382300,0.31238232421875,-0.35697007179260254,0.04170036315917969,-0.006845593452453613
1782774929536392200,0.32239208984375,-0.19429564476013184,-0.1030435562133789,-0.17013144493103027
1782774929546401800,0.33240185546875,-0.07893228530883789,-0.1848468780517578,-0.25327086448669434
1782774929556381200,0.342381103515625,0.15058231353759766,-0.1345195770263672,-0.22879505157470703
1782774929566391000,0.35239111328125,0.3265557289123535,0.023204803466796875,-0.14132976531982422
1782774929576400600,0.362400634765625,0.5116276741027832,0.06059074401855469,-0.06449997425079346
1782774929586379800,0.3723798828125,0.5269899368286133,0.0010814666748046875,0.028861045837402344
1782774929596389600,0.3823896484375,0.43964242935180664,-0.018707275390625,-0.10197961330413818
1782774929606399500,0.3923994140625,0.42511796951293945,0.020620346069335938,-0.16262316703796387
1782774929616378600,0.402378662109375,0.22672462463378906,-0.02241802215576172,-0.050585150718688965
1782774929626388500,0.412388427734375,-0.1240544319152832,-0.05634784698486328,0.0011131763458251953
1782774929636398300,0.4223984375,-0.43131232261657715,-0.15477752685546875,-0.13972246646881104
1782774929646377500,0.43237744140625,-0.6481180191040039,-0.2636375427246094,-0.23028349876403809
1782774929656387300,0.44238720703125,-0.7271733283996582,-0.2929658889770508,-0.2298659086227417
1782774929666397200,0.452397216796875,-0.5794830322265625,-0.26087093353271484,-0.19204843044281006
1782774929676376300,0.462376220703125,-0.35668158531188965,-0.24955177307128906,-0.05047404766082764
1782774929686386200,0.47238623046875,-0.22650909423828125,-0.24985504150390625,0.016730427742004395
1782774929696395800,0.482395751953125,-0.24068164825439453,-0.1354198455810547,0.1107478141784668
1782774929706375200,0.492375244140625,-0.026436567306518555,0.00063323974609375,0.25080549716949463
1782774929716384800,0.502384765625,0.13894891738891602,-0.05711841583251953,0.21467185020446777
1782774929726394600,0.51239453125,0.14495301246643066,-0.1584796905517578,0.0118560791015625
1782774929736404200,0.522404296875,0.07125425338745117,-0.2724142074584961,-0.17531907558441162
1782774929746383600,0.532383544921875,0.04407143592834473,-0.2889585494995117,-0.2813459634780884
1782774929756393500,0.5423935546875,-0.011278152465820312,-0.2435626983642578,-0.1953749656677246
1782774929766403000,0.552403076171875,-0.18560576438903809,-0.1510457992553711,-0.017843127250671387
1782774929776382500,0.562382568359375,-0.3979990482330322,-0.03301525115966797,0.11658203601837158
1782774929786392300,0.572392333984375,-0.337780237197876,0.03012371063232422,0.2125082015991211
1782774929796402000,0.58240185546875,-0.12373590469360352,0.042464256286621094,0.363608717918396
1782774929806381300,0.59238134765625,0.12176513671875,0.006205558776855469,0.32783663272857666
1782774929816391000,0.602390869140625,0.19080162048339844,-0.1350860595703125,0.10847997665405273
1782774929826400500,0.612400390625,0.07709312438964844,-0.30861759185791016,-0.20152711868286133
1782774929836380000,0.6223798828125,-0.10810279846191406,-0.36620521545410156,-0.407573401927948
1782774929846389800,0.6323896484375,-0.10035228729248047,-0.2828950881958008,-0.33533036708831787
1782774929856399400,0.6423994140625,0.01742839813232422,-0.11297130584716797,-0.04533696174621582
1782774929866378800,0.652378662109375,-0.014103889465332031,-0.038140296936035156,0.2739757299423218
1782774929876388600,0.662388671875,-0.0979461669921875,-0.11335468292236328,0.18015050888061523
1782774929886398200,0.672398193359375,-0.1956615447998047,-0.19768714904785156,0.05102121829986572
1782774929896377600,0.682377685546875,-0.28325510025024414,-0.27904510498046875,-0.11191880702972412
1782774929906387200,0.69238720703125,-0.2287459373474121,-0.338134765625,-0.2123725414276123
1782774929916397000,0.70239697265625,-0.12313270568847656,-0.350830078125,-0.1677013635635376
1782774929926376200,0.712376220703125,-0.09042596817016602,-0.39626598358154297,-0.22520899772644043
1782774929936386000,0.722385986328125,0.015697479248046875,-0.4578561782836914,-0.23846912384033203
1782774929946396000,0.73239599609375,0.07340717315673828,-0.4471454620361328,-0.16919541358947754
1782774929956375000,0.742375,0.18352079391479492,-0.4121551513671875,-0.02442944049835205
1782774929966385000,0.752385009765625,0.2762413024902344,-0.21867847442626953,0.24881160259246826
1782774929976394800,0.762394775390625,0.3826265335083008,-0.0030841827392578125,0.4489697217941284
1782774929986404400,0.772404296875,0.5334382057189941,0.028494834899902344,0.27734506130218506
1782774929996383500,0.782383544921875,0.47074031829833984,-0.13420772552490234,-0.04061877727508545
1782774930006393300,0.792393310546875,0.4344825744628906,-0.3263254165649414,-0.41569191217422485
1782774930016403000,0.80240283203125,0.382814884185791,-0.40812206268310547,-0.5530788898468018
1782774930026382300,0.81238232421875,0.33014392852783203,-0.43679332733154297,-0.5194041132926941
1782774930036392200,0.82239208984375,0.2639274597167969,-0.3697376251220703,-0.3967118263244629
1782774930046401800,0.83240185546875,0.25427770614624023,-0.2010202407836914,-0.1108696460723877
1782774930056381200,0.842381103515625,0.16430950164794922,-0.14210987091064453,0.13493108749389648
1782774930066391000,0.85239111328125,0.005897045135498047,-0.1384449005126953,0.13155114650726318
1782774930076400600,0.862400634765625,-0.08653974533081055,-0.15587425231933594,-0.03425192832946777
1782774930086380000,0.872380126953125,-0.14460420608520508,-0.19060325622558594,-0.10584878921508789
1782774930096390000,0.882389892578125,-0.28646230697631836,-0.17747974395751953,-0.043132662773132324
1782774930106399500,0.8923994140625,-0.36466360092163086,-0.22849655151367188,-0.11207342147827148
1782774930116378600,0.902378662109375,-0.36126279830932617,-0.24489402770996094,-0.16884779930114746
1782774930126388500,0.912388427734375,-0.281125545501709,-0.25052833557128906,-0.10604584217071533
1782774930136398300,0.9223984375,-0.20073604583740234,-0.2334146499633789,-0.09421741962432861
1782774930146377500,0.93237744140625,-0.08366584777832031,-0.1938018798828125,-0.0615847110748291
1782774930156387300,0.94238720703125,-0.04904651641845703,-0.18945789337158203,-0.067879319190979
1782774930166397200,0.952397216796875,0.04790019989013672,-0.13000869750976562,0.10497236251831055
1782774930176376300,0.962376220703125,-0.04393196105957031,-0.11606597900390625,0.12824797630310059
1782774930186386200,0.97238623046875,-0.12932634353637695,-0.15573501586914062,-0.044022321701049805
1782774930196395800,0.982395751953125,-0.22791767120361328,-0.21763992309570312,-0.2179672122001648
1782774930206375200,0.992375244140625,-0.15349388122558594,-0.19107341766357422,-0.2019450068473816
1782774930216384800,1.002384765625,-0.016765594482421875,-0.03965473175048828,0.09133100509643555
1782774930226394600,1.01239453125,0.07001066207885742,0.11677265167236328,0.33144235610961914
1782774930236404200,1.022404296875,0.1793961524963379,0.19370555877685547,0.36279475688934326
1782774930246383600,1.032383544921875,0.34519243240356445,0.2626962661743164,0.44251954555511475
1782774930256393500,1.0423935546875,0.35106468200683594,0.08922100067138672,0.24515843391418457
1782774930266403000,1.052403076171875,0.30390167236328125,-0.0894918441772461,-0.16038966178894043
1782774930276382500,1.062382568359375,0.25393199920654297,-0.20383453369140625,-0.4999239444732666
1782774930286392300,1.072392333984375,0.22358417510986328,-0.26578807830810547,-0.4871866703033447
1782774930296402000,1.08240185546875,0.24814224243164062,-0.21599292755126953,-0.28361499309539795
1782774930306381300,1.09238134765625,0.21168756484985352,-0.1652383804321289,-0.026469945907592773
1782774930316391000,1.102390869140625,0.059248924255371094,-0.12578868865966797,0.022762417793273926
1782774930326400500,1.112400390625,-0.0617375373840332,-0.08543205261230469,-0.013924479484558105
1782774930336380000,1.1223798828125,-0.27870750427246094,-0.0797872543334961,0.09331250190734863
1782774930346389800,1.1323896484375,-0.5331921577453613,-0.06029033660888672,0.08162200450897217
1782774930356399600,1.142399658203125,-0.5092687606811523,-0.02814769744873047,-0.0622866153717041
1782774930366378800,1.152378662109375,-0.3954348564147949,-0.10205268859863281,-0.09012472629547119
1782774930376388600,1.162388671875,-0.25881481170654297,-0.14069461822509766,-0.09537756443023682
1782774930386398200,1.172398193359375,-0.10082292556762695,-0.1972208023071289,-0.22203713655471802
1782774930396377600,1.182377685546875,-0.013506889343261719,-0.22432613372802734,-0.19088882207870483
1782774930406387500,1.192387451171875,0.03827095031738281,-0.2539024353027344,-0.1726219654083252
1782774930416397000,1.20239697265625,0.10832881927490234,-0.20509815216064453,-0.04079890251159668
1782774930426376200,1.212376220703125,0.016010284423828125,-0.15031719207763672,0.14626622200012207
1782774930436386000,1.222385986328125,-0.18778705596923828,-0.14042377471923828,0.06488704681396484
1782774930446396000,1.23239599609375,-0.3054971694946289,-0.19887638092041016,-0.030105113983154297
1782774930456375000,1.242375,-0.4038996696472168,-0.27898216247558594,-0.0626218318939209
1782774930466385000,1.252385009765625,-0.3102750778198242,-0.2073040008544922,0.03462982177734375
1782774930476394800,1.262394775390625,-0.30240726470947266,-0.23032474517822266,0.057418227195739746
1782774930486404600,1.272404541015625,-0.2693662643432617,-0.2909717559814453,0.01984536647796631
1782774930496383500,1.282383544921875,-0.18433761596679688,-0.37516021728515625,-0.08982658386230469
1782774930506393300,1.292393310546875,-0.04483461380004883,-0.4062814712524414,-0.07083761692047119
1782774930516403000,1.30240283203125,-0.02950143814086914,-0.38951873779296875,0.0019135475158691406
1782774930526382300,1.31238232421875,0.041588783264160156,-0.2796592712402344,0.018980741500854492
1782774930536392200,1.32239208984375,0.10313701629638672,-0.2631502151489258,0.004619717597961426
1782774930546401800,1.33240185546875,0.1376810073852539,-0.3181447982788086,-0.04300880432128906
1782774930556381200,1.342381103515625,0.19548845291137695,-0.3464994430541992,-0.1500917673110962
1782774930566391000,1.35239111328125,0.3291635513305664,-0.2929964065551758,-0.02058994770050049
1782774930576400600,1.362400634765625,0.317659854888916,-0.13652610778808594,0.3257472515106201
1782774930586380000,1.372380126953125,0.17507314682006836,-0.0003261566162109375,0.455743670463562
1782774930596389600,1.3823896484375,0.08145761489868164,0.035923004150390625,0.3844418525695801
1782774930606399500,1.3923994140625,-0.2076735496520996,-0.06862926483154297,0.22176241874694824
1782774930616379000,1.40237890625,-0.42021703720092773,-0.15584754943847656,-0.08505105972290039
1782774930626388500,1.412388427734375,-0.4661693572998047,-0.2393789291381836,-0.2877911925315857
1782774930636398300,1.4223984375,-0.39182424545288086,-0.2273387908935547,-0.2535085678100586
1782774930646377500,1.43237744140625,-0.14725923538208008,-0.19843387603759766,-0.13872981071472168
1782774930656387300,1.44238720703125,0.10828876495361328,-0.13893985748291016,-0.017474889755249023
1782774930666397200,1.452397216796875,0.25969982147216797,-0.11951541900634766,0.06780600547790527
1782774930676376300,1.462376220703125,0.1758275032043457,-0.18724822998046875,-0.033254265785217285
1782774930686386200,1.47238623046875,-0.019962787628173828,-0.2591104507446289,-0.23127472400665283
1782774930696395800,1.482395751953125,-0.12768888473510742,-0.2650489807128906,-0.3086140751838684
1782774930706375200,1.492375244140625,-0.19027042388916016,-0.25881385803222656,-0.2927396893501282
1782774930716384800,1.502384765625,-0.1531381607055664,-0.19942188262939453,-0.21252834796905518
1782774930726394600,1.51239453125,-0.123992919921875,-0.12511062622070312,-0.08059835433959961
1782774930736404200,1.522404296875,-0.08588361740112305,-0.04326343536376953,-0.05422937870025635
1782774930746383600,1.532383544921875,-0.0814824104309082,-0.03798484802246094,-0.0993276834487915
1782774930756393500,1.5423935546875,-0.09837102890014648,-0.0376129150390625,-0.04398989677429199
1782774930766403000,1.552403076171875,-0.12932538986206055,-0.008600234985351562,0.003721952438354492
1782774930776382500,1.562382568359375,-0.12218427658081055,-0.017777442932128906,0.041815876960754395
1782774930786392300,1.572392333984375,-0.2231450080871582,-0.012446403503417969,0.09938287734985352
1782774930796402000,1.58240185546875,-0.2891225814819336,-0.027169227600097656,0.06931030750274658
1782774930806381300,1.59238134765625,-0.21514272689819336,-0.03403663635253906,0.08476650714874268
1782774930816391000,1.602390869140625,-0.11837100982666016,-0.05468177795410156,0.1362147331237793
1782774930826400500,1.612400390625,-0.022383689880371094,-0.10140419006347656,0.06180298328399658
1782774930836380000,1.6223798828125,-0.05532503128051758,-0.15322303771972656,-0.03811752796173096
1782774930846389800,1.6323896484375,-0.07009410858154297,-0.14123153686523438,-0.08708786964416504
1782774930856399400,1.6423994140625,-0.0642247200012207,-0.09165477752685547,0.004835605621337891
1782774930866378800,1.652378662109375,-0.09494256973266602,-0.13135528564453125,0.04747331142425537
1782774930876388600,1.662388671875,-0.09514999389648438,-0.13602638244628906,0.008436083793640137
1782774930886398500,1.6723984375,-0.04683876037597656,-0.10990428924560547,0.012516021728515625
1782774930896377600,1.682377685546875,-0.07967853546142578,-0.13173770904541016,0.05930674076080322
1782774930906387200,1.69238720703125,-0.020587921142578125,-0.043913841247558594,0.1730659008026123
1782774930916397000,1.70239697265625,-0.04187202453613281,0.007640838623046875,0.25931286811828613
1782774930926376200,1.712376220703125,-0.12387371063232422,-0.018141746520996094,0.2374485731124878
1782774930936386000,1.722385986328125,-0.1571793556213379,-0.07085800170898438,0.03492081165313721
1782774930946396000,1.73239599609375,-0.08807182312011719,-0.10427284240722656,0.07996678352355957
1782774930956375000,1.742375,-0.0942068099975586,-0.10360240936279297,0.1463479995727539
1782774930966385000,1.752385009765625,-0.12700796127319336,-0.13866615295410156,0.06429183483123779
1782774930976394800,1.762394775390625,-0.15238523483276367,-0.19783401489257812,0.06396126747131348
1782774930986404600,1.772404541015625,-0.12066268920898438,-0.2591438293457031,0.13265860080718994
1782774930996383500,1.782383544921875,-0.13770437240600586,-0.21476364135742188,0.04168260097503662
1782774931006393300,1.792393310546875,-0.2322697639465332,-0.2634544372558594,-0.009830474853515625
1782774931016403000,1.80240283203125,-0.22689199447631836,-0.31203174591064453,-0.062381625175476074
1782774931026382300,1.81238232421875,-0.28154897689819336,-0.33655452728271484,-0.10306692123413086
1782774931036392200,1.82239208984375,-0.3574380874633789,-0.3658332824707031,-0.015756964683532715
1782774931046401800,1.83240185546875,-0.35083818435668945,-0.3608875274658203,-0.1059105396270752
1782774931056381200,1.842381103515625,-0.2818617820739746,-0.3524017333984375,-0.1338292360305786
1782774931066391000,1.85239111328125,-0.20796442031860352,-0.38109493255615234,-0.14734268188476562
1782774931076400600,1.862400634765625,-0.1618213653564453,-0.43053436279296875,-0.1901869773864746
1782774931086380000,1.872380126953125,-0.07806825637817383,-0.34305858612060547,-0.1666330099105835
1782774931096389600,1.8823896484375,0.051239967346191406,-0.17644023895263672,-0.07720065116882324
1782774931106399500,1.8923994140625,0.10252666473388672,-0.02926158905029297,0.14247047901153564
1782774931116379000,1.90237890625,0.05249214172363281,0.03097820281982422,0.1725062131881714
1782774931126388500,1.912388427734375,-0.08019638061523438,0.001800537109375,0.010376334190368652
1782774931136398300,1.9223984375,-0.18929147720336914,-0.08026790618896484,-0.2520022392272949
1782774931146377500,1.93237744140625,-0.08529901504516602,-0.10637187957763672,-0.3901848793029785
1782774931156387300,1.94238720703125,0.1349644660949707,-0.12131214141845703,-0.3046696186065674
1782774931166397200,1.952397216796875,0.35024595260620117,-0.08458518981933594,-0.21011793613433838
1782774931176376300,1.962376220703125,0.47689390182495117,-0.009333610534667969,-0.042626261711120605
1782774931186386200,1.97238623046875,0.4916825294494629,0.052734375,0.15609633922576904
1782774931196395800,1.982395751953125,0.35347509384155273,0.035866737365722656,0.15932929515838623
1782774931206375200,1.992375244140625,0.0438847541809082,-0.06531333923339844,0.06425809860229492
1782774931216384800,2.002384765625,-0.26624393463134766,-0.19759750366210938,-0.12259554862976074
1782774931226394600,2.01239453125,-0.44403839111328125,-0.24419784545898438,-0.25541770458221436
1782774931236404200,2.022404296875,-0.42566871643066406,-0.2201833724975586,-0.24856352806091309
1782774931246383600,2.032383544921875,-0.29647016525268555,-0.19406604766845703,-0.0983353853225708
1782774931256393500,2.0423935546875,-0.13970375061035156,-0.11815643310546875,0.1324162483215332
1782774931266403000,2.052403076171875,-0.04419851303100586,-0.09178829193115234,0.16185009479522705
1782774931276382500,2.062382568359375,-0.07222938537597656,-0.14969444274902344,0.05476963520050049
1782774931286392300,2.072392333984375,-0.15523433685302734,-0.18964576721191406,-0.0023537874221801758
1782774931296402000,2.08240185546875,-0.29114246368408203,-0.1826620101928711,0.0018655061721801758
1782774931306381300,2.09238134765625,-0.4190049171447754,-0.24547290802001953,-0.08293497562408447
1782774931316391000,2.102390869140625,-0.4281272888183594,-0.22644901275634766,-0.038059234619140625
1782774931326400800,2.11240087890625,-0.31303882598876953,-0.11029338836669922,0.07845985889434814
1782774931336380000,2.1223798828125,-0.16992950439453125,-0.011713981628417969,0.2067188024520874
1782774931346389800,2.1323896484375,-0.0028853416442871094,-0.014936447143554688,0.2108142375946045
1782774931356399400,2.1423994140625,0.12179279327392578,-0.029499053955078125,0.12052595615386963
1782774931366378800,2.152378662109375,0.12247848510742188,-0.07798099517822266,0.040875911712646484
1782774931376388600,2.162388671875,0.02007150650024414,-0.14197254180908203,-0.06258237361907959
1782774931386398500,2.1723984375,-0.11549091339111328,-0.11864376068115234,-0.025554895401000977
1782774931396377600,2.182377685546875,-0.19884300231933594,-0.07456588745117188,-0.042350172996520996
1782774931406387200,2.19238720703125,-0.18854188919067383,-0.06165599822998047,-0.021492838859558105
1782774931416397000,2.20239697265625,-0.17477893829345703,-0.11267280578613281,-0.015405416488647461
1782774931426376200,2.212376220703125,-0.1270747184753418,-0.1675863265991211,-0.08766460418701172
1782774931436386000,2.222385986328125,-0.05240154266357422,-0.24325942993164062,-0.18324530124664307
1782774931446396000,2.23239599609375,0.011600017547607422,-0.30638599395751953,-0.18804943561553955
1782774931456375000,2.242375,0.011303901672363281,-0.31922149658203125,-0.12470781803131104
1782774931466385000,2.252385009765625,-0.006566524505615234,-0.28470611572265625,-0.05594456195831299
1782774931476394800,2.262394775390625,-0.006941795349121094,-0.24901103973388672,0.01998615264892578
1782774931486404400,2.272404296875,0.06853294372558594,-0.19487762451171875,-0.08427369594573975
1782774931496383500,2.282383544921875,0.06654071807861328,-0.1629190444946289,-0.038651466369628906
1782774931506393300,2.292393310546875,0.05151844024658203,-0.10521984100341797,-0.055657029151916504
1782774931516403000,2.30240283203125,0.06989049911499023,-0.07146739959716797,-0.005120754241943359
1782774931526382300,2.31238232421875,0.003276824951171875,-0.013271331787109375,0.1131293773651123
1782774931536392200,2.32239208984375,-0.03341817855834961,0.05239677429199219,0.08265984058380127
1782774931546401800,2.33240185546875,-0.06624364852905273,0.005770683288574219,0.0848010778427124
1782774931556381200,2.342381103515625,-0.15694141387939453,-0.011988639831542969,0.12574851512908936
1782774931566391000,2.35239111328125,-0.23323297500610352,0.030043601989746094,0.11190295219421387
1782774931576400600,2.362400634765625,-0.23794269561767578,0.00039958953857421875,0.10026705265045166
1782774931586380000,2.372380126953125,-0.18895292282104492,-0.06218528747558594,0.058164000511169434
1782774931596389600,2.3823896484375,-0.0661468505859375,-0.12842941284179688,-0.05167877674102783
1782774931606399500,2.3923994140625,0.06403398513793945,-0.15306568145751953,-0.06694912910461426
1782774931616379000,2.40237890625,0.11514091491699219,-0.19678497314453125,-0.001042485237121582
1782774931626388500,2.412388427734375,0.0512995719909668,-0.1960163116455078,0.03739333152770996
1782774931636398000,2.422398193359375,-0.10721588134765625,-0.2015848159790039,0.04351687431335449
1782774931646377500,2.43237744140625,-0.2416243553161621,-0.15802288055419922,0.10631835460662842
1782774931656387300,2.44238720703125,-0.32950353622436523,-0.06934547424316406,0.15624821186065674
1782774931666397200,2.452397216796875,-0.3287067413330078,-0.02376556396484375,0.16044068336486816
1782774931676376300,2.462376220703125,-0.345151424407959,-0.148040771484375,0.04804039001464844
1782774931686386200,2.47238623046875,-0.3580498695373535,-0.23843002319335938,-0.11539101600646973
1782774931696396000,2.48239599609375,-0.2986149787902832,-0.2610607147216797,-0.25111567974090576
1782774931706375200,2.492375244140625,-0.18348312377929688,-0.24446964263916016,-0.20040631294250488
1782774931716384800,2.502384765625,-0.06695699691772461,-0.18163776397705078,-0.05565464496612549
1782774931726394600,2.51239453125,0.004089832305908203,-0.1687765121459961,0.09421908855438232
1782774931736404200,2.522404296875,0.05215930938720703,-0.05805492401123047,0.2932474613189697
1782774931746383600,2.532383544921875,-0.058714866638183594,0.030454635620117188,0.2908121347427368
1782774931756393500,2.5423935546875,-0.20581722259521484,-0.013901710510253906,0.09552288055419922
1782774931766403000,2.552403076171875,-0.3632345199584961,-0.10722160339355469,-0.0812222957611084
1782774931776382500,2.562382568359375,-0.36060571670532227,-0.18375682830810547,-0.18273329734802246
1782774931786392300,2.572392333984375,-0.20798540115356445,-0.24444103240966797,-0.22371840476989746
1782774931796402000,2.58240185546875,0.012900352478027344,-0.24586200714111328,-0.1453932523727417
1782774931806381000,2.592381103515625,0.20813417434692383,-0.18394756317138672,0.022294044494628906
1782774931816391000,2.602390869140625,0.21732282638549805,-0.18203067779541016,0.10967457294464111
1782774931826400500,2.612400390625,0.0992889404296875,-0.1643991470336914,0.08236145973205566
1782774931836380000,2.6223798828125,-0.1170496940612793,-0.16000747680664062,-0.02528202533721924
1782774931846389800,2.6323896484375,-0.16236066818237305,-0.1659088134765625,-0.14355385303497314
1782774931856399600,2.642399658203125,-0.1511688232421875,-0.16187095642089844,-0.17015719413757324
1782774931866378800,2.652378662109375,-0.09630632400512695,-0.19766807556152344,-0.2037752866744995
1782774931876388600,2.662388671875,0.024404048919677734,-0.21374034881591797,-0.22774016857147217
1782774931886398500,2.6723984375,0.1275019645690918,-0.22456932067871094,-0.18012559413909912
1782774931896377600,2.682377685546875,0.17506837844848633,-0.18240833282470703,-0.15702128410339355
1782774931906387200,2.69238720703125,0.1465134620666504,-0.19561481475830078,-0.15746080875396729
1782774931916397000,2.70239697265625,0.08332300186157227,-0.18788719177246094,-0.12927842140197754
1782774931926376200,2.712376220703125,0.045217037200927734,-0.12805557250976562,-0.17524635791778564
1782774931936386000,2.722385986328125,0.010663986206054688,-0.08553695678710938,-0.15667176246643066
1782774931946395600,2.732395751953125,0.0036754608154296875,-0.06743907928466797,-0.09101307392120361
1782774931956375000,2.742375,0.029292583465576172,0.043440818786621094,-0.021434903144836426
1782774931966385000,2.752385009765625,-0.008859634399414062,0.09170722961425781,0.06453144550323486
1782774931976394800,2.762394775390625,-0.1328434944152832,0.019987106323242188,0.060185790061950684
1782774931986404400,2.772404296875,-0.24039649963378906,-0.047080039978027344,-0.06672883033752441
1782774931996383500,2.782383544921875,-0.2933773994445801,-0.03506660461425781,-0.11593520641326904
1782774932006393300,2.792393310546875,-0.3104367256164551,-0.06366157531738281,-0.0005383491516113281
1782774932016403000,2.80240283203125,-0.3053855895996094,-0.106658935546875,0.12532079219818115
1782774932026382300,2.81238232421875,-0.3143644332885742,-0.14251995086669922,0.14991223812103271
1782774932036392200,2.82239208984375,-0.30368995666503906,-0.09236431121826172,0.2147996425628662
1782774932046402000,2.832402099609375,-0.30674171447753906,-0.11197185516357422,0.11705267429351807
1782774932056381200,2.842381103515625,-0.3431425094604492,-0.17249011993408203,0.029736876487731934
1782774932066391000,2.85239111328125,-0.3014984130859375,-0.18719100952148438,-0.05426990985870361
1782774932076400600,2.862400634765625,-0.19933557510375977,-0.16277313232421875,0.007931351661682129
1782774932086380000,2.872380126953125,-0.07764625549316406,-0.11827278137207031,-0.03011953830718994
1782774932096389600,2.8823896484375,0.0282745361328125,-0.0707101821899414,0.06593334674835205
1782774932106399500,2.8923994140625,0.13067293167114258,-0.03460884094238281,0.1262742280960083
1782774932116378600,2.902378662109375,0.22084569931030273,-0.05601024627685547,0.022481799125671387
1782774932126388500,2.912388427734375,0.2324080467224121,-0.12088203430175781,-0.03226161003112793
1782774932136398300,2.9223984375,0.23949384689331055,-0.1452960968017578,-0.016953229904174805
1782774932146377500,2.93237744140625,0.22512197494506836,-0.1865682601928711,-0.05634665489196777
1782774932156387300,2.94238720703125,0.10155773162841797,-0.28102588653564453,-0.12646710872650146
1782774932166397200,2.952397216796875,0.005218505859375,-0.3783426284790039,-0.24420714378356934
1782774932176376300,2.962376220703125,-0.0830373764038086,-0.3635368347167969,-0.21367418766021729
1782774932186386200,2.97238623046875,-0.10631656646728516,-0.32946205139160156,-0.048450350761413574
1782774932196395800,2.982395751953125,-0.11775445938110352,-0.2951221466064453,0.0268862247467041
1782774932206375200,2.992375244140625,-0.06057405471801758,-0.21478843688964844,0.21640491485595703
1782774932216384800,3.002384765625,-0.08304452896118164,-0.1604461669921875,0.2620185613632202
1782774932226394600,3.01239453125,-0.21036005020141602,-0.259735107421875,0.06689715385437012
1782774932236404200,3.022404296875,-0.25782012939453125,-0.3453521728515625,-0.12393248081207275
1782774932246383600,3.032383544921875,-0.2625422477722168,-0.3973550796508789,-0.22326719760894775
1782774932256393500,3.0423935546875,-0.20406675338745117,-0.44617652893066406,-0.33760762214660645
1782774932266403000,3.052403076171875,-0.10692453384399414,-0.4412412643432617,-0.3425412178039551
1782774932276382500,3.062382568359375,4.76837158203125e-7,-0.3345298767089844,-0.20976674556732178
1782774932286392300,3.072392333984375,0.06268644332885742,-0.2557191848754883,-0.04293489456176758
1782774932296402000,3.08240185546875,0.040106773376464844,-0.1363058090209961,0.14798247814178467
1782774932306381300,3.09238134765625,-0.030376434326171875,0.04923248291015625,0.33742988109588623
1782774932316391000,3.102390869140625,-0.1674046516418457,0.14501094818115234,0.42018890380859375
1782774932326400500,3.112400390625,-0.2838873863220215,0.1695537567138672,0.3832108974456787
1782774932336380000,3.1223798828125,-0.37308835983276367,0.1455068588256836,0.1587815284729004
1782774932346389800,3.1323896484375,-0.36765003204345703,0.025809288024902344,-0.08202135562896729
1782774932356399400,3.1423994140625,-0.25493431091308594,-0.004273414611816406,-0.1817868947982788
1782774932366378800,3.152378662109375,-0.031262874603271484,-0.030196189880371094,-0.15145909786224365
1782774932376388600,3.162388671875,0.23510360717773438,-0.02357006072998047,-0.00441431999206543
1782774932386398500,3.1723984375,0.32510900497436523,0.00676727294921875,0.15361285209655762
1782774932396377600,3.182377685546875,0.21246814727783203,0.016462326049804688,0.24656975269317627
1782774932406387200,3.19238720703125,-0.004783153533935547,0.0029582977294921875,0.16577625274658203
1782774932416397000,3.20239697265625,-0.21794366836547852,-0.04043102264404297,0.0034502744674682617
1782774932426376200,3.212376220703125,-0.2877316474914551,-0.1413860321044922,-0.21953356266021729
1782774932436386000,3.222385986328125,-0.2649378776550293,-0.2418966293334961,-0.23703467845916748
1782774932446396000,3.23239599609375,-0.17871761322021484,-0.29852771759033203,-0.18883121013641357
1782774932456375000,3.242375,-0.11860322952270508,-0.3132486343383789,-0.13702070713043213
1782774932466385000,3.252385009765625,-0.024742603302001953,-0.2718801498413086,-0.0636131763458252
1782774932476394800,3.262394775390625,0.10815668106079102,-0.21062946319580078,0.007804989814758301
1782774932486404400,3.272404296875,0.1525125503540039,-0.19964313507080078,0.03592348098754883
1782774932496383700,3.2823837890625,0.14390087127685547,-0.18487071990966797,0.016181468963623047
1782774932506393300,3.292393310546875,-0.0030727386474609375,-0.21693992614746094,-0.13781499862670898
1782774932516403000,3.30240283203125,-0.13364410400390625,-0.2548799514770508,-0.32216572761535645
1782774932526382300,3.31238232421875,-0.2067117691040039,-0.3504371643066406,-0.4313836097717285
1782774932536392200,3.32239208984375,-0.21892833709716797,-0.39749622344970703,-0.45885002613067627
1782774932546401800,3.33240185546875,-0.0349574089050293,-0.31640148162841797,-0.3334609270095825
1782774932556381200,3.342381103515625,0.11806011199951172,-0.18359375,-0.057379961013793945
1782774932566391000,3.35239111328125,0.20582294464111328,-0.03566932678222656,0.1796964406967163
1782774932576400600,3.362400634765625,0.2303910255432129,0.07112884521484375,0.3408029079437256
1782774932586380000,3.372380126953125,0.08934307098388672,0.0619964599609375,0.3012704849243164
1782774932596389600,3.3823896484375,-0.09576988220214844,-0.010471343994140625,0.008275628089904785
1782774932606399500,3.3923994140625,-0.17575931549072266,-0.16947364807128906,-0.2721588611602783
1782774932616379000,3.40237890625,-0.09734344482421875,-0.2511138916015625,-0.37883609533309937
1782774932626388500,3.412388427734375,0.11734628677368164,-0.27640342712402344,-0.2919166088104248
1782774932636398000,3.422398193359375,0.31022024154663086,-0.27868175506591797,-0.12728571891784668
1782774932646377500,3.43237744140625,0.3489713668823242,-0.1821136474609375,0.04044449329376221
1782774932656387300,3.44238720703125,0.1768016815185547,-0.15822887420654297,0.07296061515808105
1782774932666397200,3.452397216796875,-0.013041496276855469,-0.1816425323486328,-0.024101734161376953
1782774932676376300,3.462376220703125,-0.1330404281616211,-0.18247318267822266,-0.04921388626098633
1782774932686386200,3.47238623046875,-0.12344598770141602,-0.1379261016845703,0.030776143074035645
1782774932696396000,3.48239599609375,-0.1028904914855957,-0.07130050659179688,0.03864336013793945
1782774932706375200,3.492375244140625,0.009747505187988281,-0.07114601135253906,0.07557296752929688
1782774932716384800,3.502384765625,0.03946256637573242,-0.07753944396972656,0.03649091720581055
1782774932726394600,3.51239453125,0.06080055236816406,-0.18889713287353516,-0.1449587345123291
1782774932736404200,3.522404296875,0.08791828155517578,-0.2519855499267578,-0.26226699352264404
1782774932746383600,3.532383544921875,0.12830162048339844,-0.2474365234375,-0.1717442274093628
1782774932756393500,3.5423935546875,0.09883689880371094,-0.1572866439819336,0.03612828254699707
1782774932766403300,3.5524033203125,-0.029653072357177734,-0.10692882537841797,0.18147945404052734
1782774932776382500,3.562382568359375,-0.19533824920654297,-0.03177356719970703,0.237329363822937
1782774932786392300,3.572392333984375,-0.3528003692626953,0.0020208358764648438,0.20089519023895264
1782774932796402000,3.58240185546875,-0.44008803367614746,-0.04033660888671875,0.023007631301879883
1782774932806381000,3.592381103515625,-0.3393287658691406,-0.014291763305664062,-0.04992556571960449
1782774932816391000,3.602390869140625,-0.11341714859008789,0.0184326171875,-0.0025835037231445312
1782774932826400500,3.612400390625,0.07908201217651367,0.03081798553466797,0.13740110397338867
1782774932836380000,3.6223798828125,0.19555997848510742,0.01917552947998047,0.2234339714050293
1782774932846389800,3.6323896484375,0.11145925521850586,-0.03921985626220703,0.2151656150817871
1782774932856399600,3.642399658203125,-0.02193450927734375,-0.05132865905761719,0.1324995756149292
1782774932866378800,3.652378662109375,-0.15774202346801758,-0.09810161590576172,0.05946671962738037
1782774932876388600,3.662388671875,-0.2706003189086914,-0.12638187408447266,0.03902029991149902
1782774932886398200,3.672398193359375,-0.28485870361328125,-0.11641311645507812,0.14690613746643066
1782774932896377600,3.682377685546875,-0.33016061782836914,-0.11115837097167969,0.1367419958114624
1782774932906387200,3.69238720703125,-0.25826215744018555,-0.08188629150390625,0.13125872611999512
1782774932916397000,3.70239697265625,-0.1946396827697754,-0.13109683990478516,0.14013850688934326
1782774932926376200,3.712376220703125,-0.16199016571044922,-0.21062088012695312,-0.02884054183959961
1782774932936386000,3.722385986328125,-0.0549921989440918,-0.15059566497802734,-0.15932250022888184
1782774932946395600,3.732395751953125,0.12678861618041992,-0.1376514434814453,-0.09781086444854736
1782774932956375000,3.742375,0.19322729110717773,-0.1985492706298828,0.04156041145324707
1782774932966385000,3.752385009765625,0.13181781768798828,-0.22898483276367188,-0.08975565433502197
1782774932976394800,3.762394775390625,0.010001659393310547,-0.2771615982055664,-0.22521674633026123
1782774932986404400,3.772404296875,-0.05797100067138672,-0.26121997833251953,-0.15739119052886963
1782774932996383500,3.782383544921875,-0.05371570587158203,-0.22612476348876953,-0.07404816150665283
1782774933006393300,3.792393310546875,-0.127838134765625,-0.23424243927001953,0.02005147933959961
1782774933016403000,3.80240283203125,-0.20617389678955078,-0.21860694885253906,-0.022862672805786133
1782774933026382300,3.81238232421875,-0.2200450897216797,-0.23886489868164062,-0.11083436012268066
1782774933036392200,3.82239208984375,-0.17973899841308594,-0.2706928253173828,-0.10288333892822266
1782774933046401800,3.83240185546875,-0.07435035705566406,-0.22736454010009766,-0.02313828468322754
1782774933056381200,3.842381103515625,0.08940267562866211,-0.12097454071044922,0.09664380550384521
1782774933066391000,3.85239111328125,0.18409347534179688,-0.01944732666015625,0.25167548656463623
1782774933076400600,3.862400634765625,0.115234375,-0.021543502807617188,0.2312091588973999
1782774933086380000,3.872380126953125,-0.07332181930541992,-0.03929901123046875,0.05608987808227539
1782774933096389600,3.8823896484375,-0.15273809432983398,-0.07479190826416016,-0.13853931427001953
1782774933106399500,3.8923994140625,-0.17022991180419922,-0.11020278930664062,-0.17467725276947021
1782774933116378600,3.902378662109375,-0.0980062484741211,-0.14485740661621094,-0.04421579837799072
1782774933126388500,3.912388427734375,0.040318965911865234,-0.08550643920898438,0.10659778118133545
1782774933136398300,3.9223984375,0.11102771759033203,-0.004180908203125,0.2755628824234009
1782774933146377500,3.93237744140625,0.10988903045654297,0.043702125549316406,0.3244227170944214
1782774933156387300,3.94238720703125,0.009411811828613281,-0.03599357604980469,0.22793936729431152
1782774933166397200,3.952397216796875,-0.17542600631713867,-0.10961055755615234,0.07792627811431885
1782774933176376300,3.962376220703125,-0.262514591217041,-0.11968994140625,0.005648493766784668
1782774933186386200,3.97238623046875,-0.2804884910583496,-0.1607217788696289,0.048179030418395996
1782774933196396000,3.98239599609375,-0.2284412384033203,-0.18175888061523438,0.10275256633758545
1782774933206375200,3.992375244140625,-0.12389945983886719,-0.15137004852294922,0.1170274019241333
1782774933216384800,4.002384765625,-0.08079671859741211,-0.1754589080810547,0.04133450984954834
1782774933226394600,4.01239453125,-0.062102317810058594,-0.22581005096435547,-0.028637170791625977
1782774933236404200,4.022404296875,-0.03167533874511719,-0.28093814849853516,-0.10035264492034912
1782774933246383600,4.032383544921875,-0.04506349563598633,-0.3166942596435547,-0.1521286964416504
1782774933256393500,4.0423935546875,-0.01373291015625,-0.2994203567504883,-0.19431376457214355
1782774933266403000,4.052403076171875,0.0005254745483398438,-0.2651653289794922,-0.1699070930480957
1782774933276382500,4.062382568359375,0.1036982536315918,-0.20458602905273438,-0.10091710090637207
1782774933286392300,4.072392333984375,0.12834548950195312,-0.10338973999023438,0.036551713943481445
1782774933296402000,4.08240185546875,0.10502433776855469,-0.05246925354003906,0.06894612312316895
1782774933306381300,4.09238134765625,0.07885503768920898,-0.09508037567138672,-0.08538198471069336
1782774933316391000,4.102390869140625,-0.022134780883789062,-0.19293212890625,-0.24150574207305908
1782774933326400500,4.112400390625,-0.045783042907714844,-0.21855640411376953,-0.42377811670303345
1782774933336380000,4.1223798828125,-0.026999950408935547,-0.2319345474243164,-0.43571043014526367
1782774933346389800,4.1323896484375,-0.07198429107666016,-0.29090213775634766,-0.3562741279602051
1782774933356399400,4.1423994140625,-0.06818103790283203,-0.2566356658935547,-0.2308516502380371
1782774933366378800,4.152378662109375,-0.06668281555175781,-0.1932992935180664,-0.0983806848526001
1782774933376388600,4.162388671875,-0.010202884674072266,-0.09139251708984375,-0.020058274269104004
1782774933386398500,4.1723984375,0.060785770416259766,-0.0875234603881836,0.04260051250457764
1782774933396377600,4.182377685546875,0.07671642303466797,-0.10753917694091797,0.009121537208557129
1782774933406387200,4.19238720703125,0.0377812385559082,-0.13010406494140625,-0.0670701265335083
1782774933416397000,4.20239697265625,0.021190166473388672,-0.10756683349609375,-0.06420326232910156
1782774933426376200,4.212376220703125,0.03676319122314453,-0.06861591339111328,-0.01683187484741211
1782774933436386000,4.222385986328125,-0.02794504165649414,-0.06116771697998047,0.04384291172027588
1782774933446396000,4.23239599609375,-0.11846685409545898,-0.10432720184326172,-0.07690787315368652
1782774933456375000,4.242375,-0.15961885452270508,-0.123291015625,-0.10547196865081787
1782774933466385000,4.252385009765625,-0.12575054168701172,-0.060112953186035156,-0.02136373519897461
1782774933476394800,4.262394775390625,-0.0682525634765625,-0.049269676208496094,0.10699617862701416
1782774933486404400,4.272404296875,-0.052054405212402344,-0.015015602111816406,0.2666682004928589
1782774933496383500,4.282383544921875,-0.14311456680297852,-0.010600090026855469,0.31924521923065186
1782774933506393300,4.292393310546875,-0.26999759674072266,-0.019315719604492188,0.22082769870758057
1782774933516403000,4.30240283203125,-0.30977821350097656,-0.09328842163085938,0.09250819683074951
1782774933526382300,4.31238232421875,-0.3118720054626465,-0.15513324737548828,0.06571149826049805
1782774933536392200,4.32239208984375,-0.34618663787841797,-0.1662607192993164,-0.01080477237701416
1782774933546401800,4.33240185546875,-0.2665581703186035,-0.1745891571044922,-0.06297838687896729
1782774933556381200,4.342381103515625,-0.1711592674255371,-0.15361404418945312,0.03503072261810303
1782774933566391000,4.35239111328125,-0.06998920440673828,-0.11504364013671875,0.12236833572387695
1782774933576400600,4.362400634765625,-0.007893562316894531,-0.08565330505371094,0.10894584655761719
1782774933586380000,4.372380126953125,-0.0029783248901367188,-0.094757080078125,0.13658583164215088
1782774933596389600,4.3823896484375,-0.06568431854248047,-0.04006385803222656,0.13782036304473877
1782774933606399500,4.3923994140625,-0.11016225814819336,-0.09145545959472656,0.060346126556396484
1782774933616379000,4.40237890625,-0.17763042449951172,-0.12900829315185547,-0.009443283081054688
1782774933626388500,4.412388427734375,-0.2075815200805664,-0.1423511505126953,-0.05697500705718994
1782774933636398300,4.4223984375,-0.08646249771118164,-0.11651229858398438,-0.11552155017852783
1782774933646377500,4.43237744140625,0.0346989631652832,-0.11834144592285156,-0.05644547939300537
1782774933656387300,4.44238720703125,0.15482139587402344,-0.09565353393554688,0.047588229179382324
1782774933666397200,4.452397216796875,0.18211078643798828,-0.04445171356201172,0.08673489093780518
1782774933676376300,4.462376220703125,0.1510162353515625,-0.02980327606201172,0.06566405296325684
1782774933686386200,4.47238623046875,0.07143878936767578,-0.07105731964111328,0.07563662528991699
1782774933696396000,4.48239599609375,0.012221336364746094,-0.07458877563476562,0.021060824394226074
1782774933706375200,4.492375244140625,0.015284061431884766,-0.020752906799316406,0.07952451705932617
1782774933716384800,4.502384765625,0.09153079986572266,0.021491050720214844,0.14350593090057373
1782774933726394600,4.51239453125,0.08737754821777344,-0.026762962341308594,0.1439509391784668
1782774933736404200,4.522404296875,0.05381298065185547,-0.0941314697265625,0.004953503608703613
1782774933746383600,4.532383544921875,0.06353282928466797,-0.12354087829589844,-0.12279260158538818
1782774933756393500,4.5423935546875,-0.005269050598144531,-0.16033363342285156,-0.07114779949188232
1782774933766403000,4.552403076171875,-0.049570560455322266,-0.15897655487060547,-0.0010221004486083984
1782774933776382500,4.562382568359375,-0.01994037628173828,-0.13591670989990234,0.025896310806274414
1782774933786392300,4.572392333984375,-0.022344589233398438,-0.17235469818115234,0.05806469917297363
1782774933796402000,4.58240185546875,-0.03035593032836914,-0.203704833984375,0.02616143226623535
1782774933806381300,4.59238134765625,-0.08634328842163086,-0.304473876953125,-0.07255363464355469
1782774933816391000,4.602390869140625,-0.16119384765625,-0.3790121078491211,-0.1451326608657837
1782774933826400500,4.612400390625,-0.16823720932006836,-0.34355735778808594,-0.0898752212524414
1782774933836380000,4.6223798828125,-0.1315779685974121,-0.25308799743652344,0.00933074951171875
1782774933846389800,4.6323896484375,-0.08133840560913086,-0.21466445922851562,0.04459547996520996
1782774933856399600,4.642399658203125,0.020782470703125,-0.1590290069580078,0.10328328609466553
1782774933866378800,4.652378662109375,0.15936803817749023,-0.09292793273925781,0.1546480655670166
1782774933876388600,4.662388671875,0.24582338333129883,-0.054714202880859375,0.16314589977264404
1782774933886398200,4.672398193359375,0.23143815994262695,-0.07159233093261719,0.05061638355255127
1782774933896377600,4.682377685546875,0.17023992538452148,-0.14655208587646484,-0.022863268852233887
1782774933906387200,4.69238720703125,0.13660621643066406,-0.19099140167236328,-0.06744813919067383
1782774933916397000,4.70239697265625,0.06816291809082031,-0.1952066421508789,-0.006973385810852051
1782774933926376200,4.712376220703125,0.0028438568115234375,-0.1996774673461914,0.07684016227722168
1782774933936386000,4.722385986328125,-0.061969757080078125,-0.1564168930053711,0.16008520126342773
1782774933946395600,4.732395751953125,-0.1901712417602539,-0.1616382598876953,0.11166870594024658
1782774933956375000,4.742375,-0.3359231948852539,-0.21074199676513672,0.04905128479003906
1782774933966385000,4.752385009765625,-0.40882372856140137,-0.2339620590209961,0.031734585762023926
1782774933976394800,4.762394775390625,-0.38427090644836426,-0.25437450408935547,0.006724834442138672
1782774933986404400,4.772404296875,-0.28270530700683594,-0.23076343536376953,-0.008598566055297852
1782774933996383500,4.782383544921875,-0.11910247802734375,-0.1796855926513672,-0.008900046348571777
1782774934006393300,4.792393310546875,-0.019701004028320312,-0.18286800384521484,-0.06588077545166016
1782774934016403000,4.80240283203125,0.045041561126708984,-0.18087387084960938,-0.2104334831237793
1782774934026382300,4.81238232421875,0.12698125839233398,-0.13364696502685547,-0.22535192966461182
1782774934036392200,4.82239208984375,0.1784515380859375,-0.05548095703125,-0.14291620254516602
1782774934046401800,4.83240185546875,0.16220426559448242,-0.00669097900390625,0.007834076881408691
1782774934056381200,4.842381103515625,0.10961151123046875,0.02691173553466797,0.10760200023651123
1782774934066391000,4.85239111328125,0.015665531158447266,0.04282951354980469,0.04279136657714844
1782774934076400600,4.862400634765625,-0.07723093032836914,0.055748939514160156,0.04572796821594238
1782774934086380000,4.872380126953125,-0.10573005676269531,0.09742546081542969,0.010948657989501953
1782774934096389600,4.8823896484375,-0.16813373565673828,0.01944732666015625,-0.07086741924285889
1782774934106399500,4.8923994140625,-0.12109088897705078,0.013558387756347656,-0.0660635232925415
1782774934116378600,4.902378662109375,0.06103372573852539,0.07294273376464844,0.046658873558044434
1782774934126388500,4.912388427734375,0.11786365509033203,0.0823831558227539,0.1237647533416748
1782774934136398300,4.9223984375,0.0631265640258789,0.00983428955078125,0.026982665061950684
1782774934146377500,4.93237744140625,-0.058420658111572266,-0.08320045471191406,-0.08357346057891846
1782774934156387300,4.94238720703125,-0.21097803115844727,-0.17972755432128906,-0.15876352787017822
1782774934166397200,4.952397216796875,-0.28287267684936523,-0.11644554138183594,-0.07229411602020264
1782774934176376300,4.962376220703125,-0.3232731819152832,-0.045935630798339844,0.06780529022216797
1782774934186386200,4.97238623046875,-0.34969449043273926,-0.035050392150878906,0.04722857475280762
1782774934196395800,4.982395751953125,-0.29596757888793945,-0.06437873840332031,0.015405416488647461
1782774934206375200,4.992375244140625,-0.23466777801513672,-0.030610084533691406,0.044078826904296875
1782774934216385000,5.002385009765625,-0.08217334747314453,-0.024662017822265625,-0.017470359802246094
1782774934226394600,5.01239453125,0.08807134628295898,-0.05402374267578125,0.014724969863891602
1782774934236404200,5.022404296875,0.1763019561767578,-0.09511661529541016,0.006546974182128906
1782774934246383600,5.032383544921875,0.1812596321105957,-0.10544395446777344,-0.10139727592468262
1782774934256393500,5.0423935546875,0.17538976669311523,-0.07085990905761719,-0.13721215724945068
1782774934266403000,5.052403076171875,0.03717470169067383,-0.1087942123413086,-0.09237754344940186
1782774934276382500,5.062382568359375,-0.0628361701965332,-0.16205120086669922,-0.07226109504699707
1782774934286392300,5.072392333984375,-0.10925006866455078,-0.14616775512695312,0.025963902473449707
1782774934296402000,5.08240185546875,-0.11551284790039062,-0.1706533432006836,0.02793872356414795
1782774934306381300,5.09238134765625,-0.12502670288085938,-0.18281936645507812,0.008720755577087402
1782774934316391000,5.102390869140625,-0.06363725662231445,-0.18263816833496094,-0.02206897735595703
1782774934326400500,5.112400390625,-0.05088233947753906,-0.22045135498046875,-0.06697940826416016
1782774934336380000,5.1223798828125,0.02093791961669922,-0.26514148712158203,-0.0731194019317627
1782774934346389800,5.1323896484375,0.041754722595214844,-0.2879676818847656,-0.11504948139190674
1782774934356399400,5.1423994140625,0.057459354400634766,-0.31064891815185547,-0.11381661891937256
1782774934366378800,5.152378662109375,-0.002483844757080078,-0.30737972259521484,-0.05555319786071777
1782774934376388600,5.162388671875,-0.10858869552612305,-0.3215503692626953,-0.09384500980377197
1782774934386398500,5.1723984375,-0.27462172508239746,-0.3558330535888672,-0.1688086986541748
1782774934396377600,5.182377685546875,-0.35777831077575684,-0.34279632568359375,-0.18227756023406982
1782774934406387200,5.19238720703125,-0.3619801998138428,-0.2577018737792969,-0.09420514106750488
1782774934416397000,5.20239697265625,-0.31943535804748535,-0.1383800506591797,0.03806602954864502
1782774934426376200,5.212376220703125,-0.38028931617736816,-0.06658554077148438,0.09509062767028809
1782774934436386000,5.222385986328125,-0.3097503185272217,-0.03539085388183594,0.023090362548828125
1782774934446396000,5.23239599609375,-0.16150140762329102,0.03084278106689453,0.10547840595245361
1782774934456375000,5.242375,-0.010959148406982422,0.09816169738769531,0.10443317890167236
1782774934466385000,5.252385009765625,0.06672096252441406,0.09638690948486328,-0.005801558494567871
1782774934476394800,5.262394775390625,0.17518949508666992,0.11140632629394531,-0.06970155239105225
1782774934486404400,5.272404296875,0.2736496925354004,0.1217803955078125,-0.008727192878723145
1782774934496383500,5.282383544921875,0.31476926803588867,0.12726402282714844,0.07173514366149902
1782774934506393300,5.292393310546875,0.22781610488891602,0.04834270477294922,0.01372075080871582
1782774934516403000,5.30240283203125,0.0996255874633789,-0.05303955078125,-0.07015979290008545
1782774934526382300,5.31238232421875,-0.04342222213745117,-0.09539127349853516,-0.05379617214202881
1782774934536392200,5.32239208984375,-0.15895366668701172,-0.17410564422607422,-0.035639166831970215
1782774934546401800,5.33240185546875,-0.20519256591796875,-0.1736583709716797,0.056115031242370605
1782774934556381200,5.342381103515625,-0.21156883239746094,-0.1440439224243164,0.07565832138061523
1782774934566391000,5.35239111328125,-0.20194149017333984,-0.1787118911743164,0.09269440174102783
1782774934576400600,5.362400634765625,-0.22916245460510254,-0.2560882568359375,-0.009699821472167969
1782774934586380000,5.372380126953125,-0.24788737297058105,-0.3163290023803711,-0.13522791862487793
1782774934596390000,5.382389892578125,-0.23415589332580566,-0.38321781158447266,-0.16536235809326172
1782774934606399500,5.3923994140625,-0.2085556983947754,-0.38765430450439453,-0.15352284908294678
1782774934616379000,5.40237890625,-0.20186853408813477,-0.3608894348144531,-0.07595944404602051
1782774934626388500,5.412388427734375,-0.26885104179382324,-0.2911262512207031,-0.011467576026916504
1782774934636398000,5.422398193359375,-0.2987043857574463,-0.22658348083496094,-0.026813745498657227
1782774934646377500,5.43237744140625,-0.40109753608703613,-0.16507911682128906,0.0024853944778442383
1782774934656387300,5.44238720703125,-0.4182608127593994,-0.09933280944824219,0.009545087814331055
1782774934666397200,5.452397216796875,-0.32810330390930176,0.004920005798339844,0.02136540412902832
1782774934676376300,5.462376220703125,-0.2474043369293213,-0.0311431884765625,0.05057847499847412
1782774934686386200,5.47238623046875,-0.10063982009887695,-0.039600372314453125,-0.08842265605926514
1782774934696396000,5.48239599609375,0.019472599029541016,-0.04226493835449219,-0.10136711597442627
1782774934706375200,5.492375244140625,0.14334964752197266,0.022706985473632812,0.13856220245361328
1782774934716384800,5.502384765625,0.12946653366088867,0.1160888671875,0.2791168689727783
1782774934726394600,5.51239453125,0.05787038803100586,0.10551738739013672,0.18764472007751465
1782774934736404200,5.522404296875,0.008997917175292969,0.048603057861328125,0.0576932430267334
1782774934746383600,5.532383544921875,-0.03314208984375,0.02266216278076172,-0.07458901405334473
1782774934756393500,5.5423935546875,0.011986255645751953,-0.07473468780517578,-0.1813359260559082
1782774934766403000,5.552403076171875,0.02798604965209961,-0.19121170043945312,-0.3399803042411804
1782774934776382500,5.562382568359375,0.03905677795410156,-0.2742280960083008,-0.4283177852630615
1782774934786392300,5.572392333984375,0.03734779357910156,-0.2324390411376953,-0.3390001654624939
1782774934796402000,5.58240185546875,0.015830039978027344,-0.14945220947265625,-0.14092683792114258
1782774934806381300,5.59238134765625,0.020732402801513672,-0.13571929931640625,-0.056856513023376465
1782774934816391000,5.602390869140625,-0.0053272247314453125,-0.05727386474609375,0.07649493217468262
1782774934826400500,5.612400390625,-0.08870697021484375,-0.0052032470703125,0.11631309986114502
1782774934836380000,5.6223798828125,-0.14809131622314453,-0.0035524368286132812,0.006141781806945801
1782774934846389800,5.6323896484375,-0.24814796447753906,-0.06435489654541016,-0.16250407695770264
1782774934856399600,5.642399658203125,-0.25356531143188477,-0.15121936798095703,-0.31021302938461304
1782774934866378800,5.652378662109375,-0.12796449661254883,-0.18173503875732422,-0.2606257200241089
1782774934876388600,5.662388671875,0.05922412872314453,-0.10927200317382812,-0.2867942452430725
1782774934886398200,5.672398193359375,0.3309006690979004,-0.03820514678955078,-0.019718289375305176
1782774934896377600,5.682377685546875,0.3660397529602051,0.013792037963867188,0.02746570110321045
1782774934906387200,5.69238720703125,0.3161439895629883,-0.04609489440917969,-0.04181373119354248
1782774934916397000,5.70239697265625,0.12705707550048828,-0.10572338104248047,-0.25676268339157104
1782774934926376200,5.712376220703125,-0.10649824142456055,-0.0073833465576171875,-0.09789776802062988
1782774934936386000,5.722385986328125,-0.26125144958496094,0.05566883087158203,0.07968568801879883
1782774934946395600,5.732395751953125,-0.49994683265686035,-0.03770637512207031,0.02079474925994873
1782774934956375000,5.742375,-0.6320390701293945,-0.04071331024169922,0.08658826351165771
1782774934966385000,5.752385009765625,-0.5140955448150635,-0.045523643493652344,0.21978366374969482
1782774934976394800,5.762394775390625,-0.4755594730377197,-0.10182380676269531,0.06659984588623047
1782774934986404400,5.772404296875,-0.34741902351379395,-0.15191078186035156,0.016447901725769043
1782774934996383500,5.782383544921875,-0.2736086845397949,-0.14783191680908203,-0.23181688785552979
1782774935006393300,5.792393310546875,-0.08988189697265625,-0.0898599624633789,-0.10652422904968262
1782774935016403000,5.80240283203125,0.07890129089355469,-0.08763980865478516,0.002202630043029785
1782774935026382300,5.81238232421875,0.18908166885375977,-0.10635852813720703,0.021943092346191406
1782774935036392200,5.82239208984375,0.3014378547668457,-0.12966537475585938,0.03632164001464844
1782774935046401800,5.83240185546875,0.3844447135925293,-0.1681661605834961,0.0004665851593017578
1782774935056381200,5.842381103515625,0.45050811767578125,-0.2125110626220703,-0.023294687271118164
1782774935066391000,5.85239111328125,0.3603992462158203,-0.3223447799682617,-0.06879258155822754
1782774935076400600,5.862400634765625,0.2030787467956543,-0.3446979522705078,-0.13788104057312012
1782774935086380000,5.872380126953125,-0.004099845886230469,-0.36589908599853516,-0.12152743339538574
1782774935096390000,5.882389892578125,-0.11800527572631836,-0.32582569122314453,-0.010312080383300781
1782774935106399500,5.8923994140625,-0.17309093475341797,-0.31972503662109375,0.034774065017700195
1782774935116378600,5.902378662109375,-0.21358680725097656,-0.34710693359375,0.09073758125305176
1782774935126388500,5.912388427734375,-0.20898962020874023,-0.32395362854003906,0.12708258628845215
1782774935136398300,5.9223984375,-0.11211252212524414,-0.2907133102416992,0.04140162467956543
1782774935146377500,5.93237744140625,-0.06378841400146484,-0.27625560760498047,0.06307244300842285
1782774935156387300,5.94238720703125,0.03711557388305664,-0.3502836227416992,-0.011415481567382812
1782774935166397200,5.952397216796875,0.07539558410644531,-0.2852449417114258,0.0336148738861084
1782774935176376300,5.962376220703125,0.13464927673339844,-0.13370513916015625,0.09515321254730225
1782774935186386200,5.97238623046875,0.11710023880004883,-0.1568765640258789,0.02519059181213379
1782774935196395800,5.982395751953125,0.04976844787597656,-0.22349262237548828,-0.05349600315093994
1782774935206375200,5.992375244140625,-0.10245990753173828,-0.19749069213867188,-0.10723447799682617
1782774935216384800,6.002384765625,-0.16008234024047852,-0.17683696746826172,-0.1467972993850708
1782774935226394600,6.01239453125,-0.1261582374572754,-0.1515359878540039,-0.014932036399841309
1782774935236404200,6.022404296875,-0.01915264129638672,-0.14229679107666016,0.09664654731750488
1782774935246383600,6.032383544921875,0.0980367660522461,-0.07473564147949219,0.1794421672821045
1782774935256393500,6.0423935546875,0.11132097244262695,-0.059482574462890625,0.23656725883483887
1782774935266403000,6.052403076171875,-0.02502298355102539,-0.1024017333984375,0.1127324104309082
1782774935276382500,6.062382568359375,-0.08938121795654297,-0.09174156188964844,-0.11205863952636719
1782774935286392300,6.072392333984375,-0.09935760498046875,-0.1466846466064453,-0.24479687213897705
1782774935296402000,6.08240185546875,-0.1458439826965332,-0.1822366714477539,-0.2957773804664612
1782774935306381300,6.09238134765625,-0.13625144958496094,-0.10228443145751953,-0.2911350131034851
1782774935316391000,6.102390869140625,-0.04601621627807617,-0.00757598876953125,-0.21249020099639893
1782774935326400500,6.112400390625,0.06325387954711914,0.044297218322753906,-0.008444547653198242
1782774935336380000,6.1223798828125,0.1546797752380371,0.15801334381103516,0.2610682249069214
1782774935346389800,6.1323896484375,0.06150007247924805,0.15818309783935547,0.2912120819091797
1782774935356399400,6.1423994140625,-0.1846151351928711,0.058670997619628906,0.12450087070465088
1782774935366378800,6.152378662109375,-0.33818912506103516,-0.03705406188964844,-0.0641472339630127
1782774935376388600,6.162388671875,-0.39159417152404785,-0.0728750228881836,-0.301969051361084
1782774935386398500,6.1723984375,-0.34816956520080566,-0.21105098724365234,-0.2856946587562561
1782774935396377600,6.182377685546875,-0.19957351684570312,-0.22817516326904297,-0.18181991577148438
1782774935406387200,6.19238720703125,-0.006047725677490234,-0.126434326171875,-0.026510000228881836
1782774935416397000,6.20239697265625,0.1595921516418457,-0.02391815185546875,0.13082659244537354
1782774935426376200,6.212376220703125,0.22498559951782227,-0.0053768157958984375,0.19743120670318604
1782774935436386000,6.222385986328125,0.1580047607421875,-0.057183265686035156,0.04468345642089844
1782774935446396000,6.23239599609375,0.0000324249267578125,-0.14617443084716797,-0.14753150939941406
1782774935456375000,6.242375,-0.20403003692626953,-0.1569995880126953,-0.2223319411277771
1782774935466385000,6.252385009765625,-0.25937604904174805,-0.19177627563476562,-0.22852855920791626
1782774935476394800,6.262394775390625,-0.2449173927307129,-0.16558551788330078,-0.09476315975189209
1782774935486404400,6.272404296875,-0.21177101135253906,-0.15711021423339844,0.06690669059753418
1782774935496383500,6.282383544921875,-0.09243059158325195,-0.1451578140258789,0.06836199760437012
1782774935506393300,6.292393310546875,0.01325845718383789,-0.12529563903808594,0.1516033411026001
1782774935516403000,6.30240283203125,0.007799625396728516,-0.1361551284790039,0.16115128993988037
1782774935526382300,6.31238232421875,0.016679763793945312,-0.16386890411376953,0.035077691078186035
1782774935536392200,6.32239208984375,0.02129507064819336,-0.25415897369384766,-0.06161940097808838
1782774935546401800,6.33240185546875,0.06928157806396484,-0.2918863296508789,-0.09858369827270508
1782774935556381200,6.342381103515625,0.0930948257446289,-0.29352855682373047,-0.1264328956604004
1782774935566391000,6.35239111328125,0.028838157653808594,-0.2809638977050781,-0.15012013912200928
1782774935576400600,6.362400634765625,0.06827545166015625,-0.20639419555664062,-0.11953449249267578
1782774935586380000,6.372380126953125,0.12469339370727539,-0.12215709686279297,0.04361581802368164
1782774935596390000,6.382389892578125,0.13330698013305664,-0.10004234313964844,0.1217113733291626
1782774935606399500,6.3923994140625,0.10356760025024414,-0.1426410675048828,0.01616382598876953
1782774935616379000,6.40237890625,0.06200408935546875,-0.08731460571289062,0.007682681083679199
1782774935626388500,6.412388427734375,0.13976240158081055,-0.024725914001464844,0.04310250282287598
1782774935636398000,6.422398193359375,0.13385438919067383,-0.046001434326171875,0.10491394996643066
1782774935646377500,6.43237744140625,0.03369140625,-0.06793785095214844,0.08736550807952881
1782774935656387300,6.44238720703125,-0.14789056777954102,-0.2035989761352539,-0.042028188705444336
1782774935666397200,6.452397216796875,-0.2850966453552246,-0.21066761016845703,-0.12274610996246338
1782774935676376300,6.462376220703125,-0.3366372585296631,-0.1696329116821289,-0.0499957799911499
1782774935686386200,6.47238623046875,-0.30808186531066895,-0.18768882751464844,0.050275564193725586
1782774935696396000,6.48239599609375,-0.26839113235473633,-0.2865934371948242,0.11329448223114014
1782774935706375200,6.492375244140625,-0.23923206329345703,-0.2988262176513672,0.1113976240158081
1782774935716384800,6.502384765625,-0.22335004806518555,-0.2890491485595703,-0.0449681282043457
1782774935726394600,6.51239453125,-0.08019018173217773,-0.28574275970458984,-0.17564243078231812
1782774935736404200,6.522404296875,0.05066680908203125,-0.2845916748046875,-0.09389126300811768
1782774935746383600,6.532383544921875,0.09194040298461914,-0.257598876953125,-0.06602895259857178
1782774935756393500,6.5423935546875,-0.013232231140136719,-0.1907672882080078,-0.07699286937713623
1782774935766403300,6.5524033203125,-0.16416263580322266,-0.10811996459960938,-0.052407026290893555
1782774935776382500,6.562382568359375,-0.3141496181488037,-0.07853317260742188,-0.06413698196411133
1782774935786392300,6.572392333984375,-0.4015319347381592,-0.11615943908691406,-0.13561654090881348
1782774935796402200,6.582402099609375,-0.4322397708892822,-0.11518573760986328,-0.170610249042511
1782774935806381000,6.592381103515625,-0.32836318016052246,-0.03198719024658203,-0.15488070249557495
1782774935816391000,6.602390869140625,-0.12939167022705078,0.04554462432861328,0.02768111228942871
1782774935826400500,6.612400390625,0.03584432601928711,0.11247634887695312,0.22334623336791992
1782774935836380000,6.6223798828125,0.11655664443969727,0.1701650619506836,0.23951220512390137
1782774935846389800,6.6323896484375,0.01870584487915039,0.1410074234008789,0.1375129222869873
1782774935856399600,6.642399658203125,-0.07337760925292969,0.022541046142578125,-0.08684086799621582
1782774935866378800,6.652378662109375,-0.10120725631713867,-0.10315608978271484,-0.2733932137489319
1782774935876388600,6.662388671875,-0.06078767776489258,-0.12546825408935547,-0.3272705078125
1782774935886398200,6.672398193359375,0.1191558837890625,-0.058315277099609375,-0.22121095657348633
1782774935896377600,6.682377685546875,0.3552274703979492,0.03125,0.024229764938354492
1782774935906387500,6.692387451171875,0.49634695053100586,0.03437519073486328,0.11060011386871338
1782774935916397000,6.70239697265625,0.4724721908569336,0.02428722381591797,0.15170300006866455
1782774935926376200,6.712376220703125,0.2559642791748047,0.017103195190429688,0.028818368911743164
1782774935936386000,6.722385986328125,-0.02162456512451172,-0.09011077880859375,-0.26008838415145874
1782774935946395600,6.732395751953125,-0.1725001335144043,-0.19130897521972656,-0.3108910322189331
1782774935956375000,6.742375,-0.2536277770996094,-0.23746013641357422,-0.22383427619934082
1782774935966385000,6.752385009765625,-0.2567276954650879,-0.23744583129882812,-0.08826172351837158
1782774935976394800,6.762394775390625,-0.13930988311767578,-0.20066070556640625,0.0032984018325805664
1782774935986404400,6.772404296875,-0.023642539978027344,-0.1893758773803711,0.05162787437438965
1782774935996383500,6.782383544921875,-0.009103775024414062,-0.16106605529785156,0.04014444351196289
1782774936006393300,6.792393310546875,-0.06990909576416016,-0.19557762145996094,-0.019406437873840332
1782774936016403000,6.80240283203125,-0.21230173110961914,-0.18796634674072266,0.009107828140258789
1782774936026382300,6.81238232421875,-0.30364370346069336,-0.16867637634277344,0.025086045265197754
1782774936036392200,6.82239208984375,-0.2971029281616211,-0.10851383209228516,0.04794144630432129
1782774936046402000,6.832402099609375,-0.26914167404174805,-0.11522483825683594,0.12018251419067383
1782774936056381200,6.842381103515625,-0.2868776321411133,-0.13135814666748047,0.04588460922241211
1782774936066391000,6.85239111328125,-0.23396539688110352,-0.1255168914794922,-0.06804156303405762
1782774936076400600,6.862400634765625,-0.20441675186157227,-0.18594837188720703,-0.087893545627594
1782774936086380000,6.872380126953125,-0.09760189056396484,-0.19045543670654297,-0.048308491706848145
1782774936096390000,6.882389892578125,-0.0410618782043457,-0.17560482025146484,0.07569479942321777
1782774936106399500,6.8923994140625,-0.05234861373901367,-0.18272876739501953,0.22806048393249512
1782774936116379000,6.90237890625,-0.16615724563598633,-0.18125152587890625,0.30097973346710205
1782774936126388500,6.912388427734375,-0.33231425285339355,-0.18796062469482422,0.28797125816345215
1782774936136398300,6.9223984375,-0.4631688594818115,-0.2767658233642578,0.245200514793396
1782774936146377500,6.93237744140625,-0.5107104778289795,-0.34381103515625,0.1691645383834839
1782774936156387300,6.94238720703125,-0.38649773597717285,-0.3630208969116211,0.16156017780303955
1782774936166397200,6.952397216796875,-0.15531253814697266,-0.33203983306884766,0.050792574882507324
1782774936176376300,6.962376220703125,0.07853555679321289,-0.30396461486816406,-0.06780922412872314
1782774936186386200,6.97238623046875,0.21555089950561523,-0.28740882873535156,-0.10694742202758789
1782774936196395800,6.982395751953125,0.2750835418701172,-0.2162485122680664,-0.0019488334655761719
1782774936206375200,6.992375244140625,0.26045703887939453,-0.10760784149169922,0.13167011737823486
1782774936216384800,7.002384765625,0.14105749130249023,-0.0384979248046875,0.12523210048675537
1782774936226394600,7.01239453125,0.007857799530029297,0.012372016906738281,0.10770118236541748
1782774936236404200,7.022404296875,-0.08144903182983398,0.00528717041015625,0.06245779991149902
1782774936246383600,7.032383544921875,-0.11645698547363281,-0.025610923767089844,-0.019269108772277832
1782774936256393500,7.0423935546875,-0.11923646926879883,-0.022528648376464844,-0.15492403507232666
1782774936266403000,7.052403076171875,-0.0750575065612793,0.004914283752441406,-0.11329281330108643
1782774936276382500,7.062382568359375,0.06160879135131836,0.037670135498046875,0.00410914421081543
1782774936286392300,7.072392333984375,0.12589454650878906,0.06354045867919922,0.17390918731689453
1782774936296402000,7.08240185546875,0.08545494079589844,0.14181232452392578,0.28853344917297363
1782774936306381300,7.09238134765625,-0.06531620025634766,0.1495532989501953,0.2552880048751831
1782774936316391000,7.102390869140625,-0.2563004493713379,0.09360790252685547,0.1772444248199463
1782774936326400500,7.112400390625,-0.4304802417755127,0.03643798828125,0.0951162576675415
1782774936336380000,7.1223798828125,-0.48198580741882324,-0.01157379150390625,-0.07442331314086914
1782774936346389800,7.1323896484375,-0.389357328414917,-0.08285236358642578,-0.2111588716506958
1782774936356399600,7.142399658203125,-0.12381172180175781,-0.15704727172851562,-0.20102274417877197
1782774936366378800,7.152378662109375,0.1548328399658203,-0.14568519592285156,-0.10752463340759277
1782774936376388600,7.162388671875,0.2559814453125,-0.08369064331054688,0.03952205181121826
1782774936386398500,7.1723984375,0.16651010513305664,-0.001537322998046875,0.19497323036193848
1782774936396377600,7.182377685546875,-0.004498004913330078,0.054604530334472656,0.2586965560913086
1782774936406387200,7.19238720703125,-0.2866053581237793,0.008411407470703125,0.2027449607849121
1782774936416397000,7.20239697265625,-0.530142068862915,-0.09662055969238281,0.00667417049407959
1782774936426376200,7.212376220703125,-0.6245317459106445,-0.1590747833251953,-0.1160045862197876
1782774936436386000,7.222385986328125,-0.6127161979675293,-0.2760591506958008,-0.18462395668029785
1782774936446396000,7.23239599609375,-0.4575378894805908,-0.3645801544189453,-0.2180464267730713
1782774936456375000,7.242375,-0.23063278198242188,-0.4403820037841797,-0.31210577487945557
1782774936466385000,7.252385009765625,0.07614898681640625,-0.41762733459472656,-0.33577531576156616
1782774936476394800,7.262394775390625,0.3341851234436035,-0.33564186096191406,-0.10516083240509033
1782774936486404400,7.272404296875,0.46390199661254883,-0.24177074432373047,0.0988844633102417
1782774936496383700,7.2823837890625,0.39499950408935547,-0.23504257202148438,0.05966353416442871
1782774936506393300,7.292393310546875,0.12910747528076172,-0.271026611328125,-0.11290812492370605
1782774936516403200,7.3024033203125,-0.10917901992797852,-0.28261661529541016,-0.29568254947662354
1782774936526382300,7.31238232421875,-0.212310791015625,-0.29729175567626953,-0.36928635835647583
1782774936536392200,7.32239208984375,-0.12799358367919922,-0.27050018310546875,-0.3038238286972046
1782774936546401800,7.33240185546875,-0.019668102264404297,-0.18018341064453125,-0.09852063655853271
1782774936556381200,7.342381103515625,0.060880184173583984,-0.12482929229736328,0.006528735160827637
1782774936566391000,7.35239111328125,0.08874177932739258,-0.1243886947631836,0.06500983238220215
1782774936576400600,7.362400634765625,0.12202596664428711,-0.06447696685791016,0.04277157783508301
1782774936586380000,7.372380126953125,0.06465291976928711,-0.028746604919433594,0.033191561698913574
1782774936596390000,7.382389892578125,0.05073213577270508,-0.05795764923095703,-0.03761768341064453
1782774936606399500,7.3923994140625,0.08965778350830078,-0.11131954193115234,-0.15771174430847168
1782774936616379000,7.40237890625,0.1117086410522461,-0.13594818115234375,-0.18640780448913574
1782774936626388500,7.412388427734375,0.08646917343139648,-0.11532020568847656,-0.09333944320678711
1782774936636398300,7.4223984375,0.04315614700317383,-0.09269905090332031,-0.04659271240234375
1782774936646377500,7.43237744140625,-0.03677845001220703,-0.14025115966796875,-0.08407819271087646
1782774936656387300,7.44238720703125,-0.14386749267578125,-0.19086742401123047,-0.050322771072387695
1782774936666397200,7.452397216796875,-0.2761383056640625,-0.19164180755615234,-0.017421245574951172
1782774936676376300,7.462376220703125,-0.37211012840270996,-0.10869121551513672,0.1439133882522583
1782774936686386200,7.47238623046875,-0.40120816230773926,-0.11657333374023438,0.18263030052185059
1782774936696396000,7.48239599609375,-0.4118049144744873,-0.1481313705444336,0.0947946310043335
1782774936706375200,7.492375244140625,-0.39514851570129395,-0.17677688598632812,-0.013230204582214355
1782774936716384800,7.502384765625,-0.2759385108947754,-0.18505382537841797,-0.079750657081604
1782774936726394600,7.51239453125,-0.10522174835205078,-0.24915409088134766,-0.1386951208114624
1782774936736404500,7.522404541015625,0.06022167205810547,-0.21372318267822266,-0.09466791152954102
1782774936746383600,7.532383544921875,0.12420082092285156,-0.20413875579833984,-0.15152966976165771
1782774936756393500,7.5423935546875,0.197906494140625,-0.16580581665039062,-0.1658780574798584
1782774936766403300,7.5524033203125,0.29651641845703125,-0.08713340759277344,-0.06834888458251953
1782774936776382500,7.562382568359375,0.33404541015625,0.04383373260498047,0.11405229568481445
1782774936786392300,7.572392333984375,0.18872308731079102,0.13098526000976562,0.15046370029449463
1782774936796402000,7.58240185546875,0.24037456512451172,0.1648731231689453,0.004694104194641113
1782774936806381000,7.592381103515625,0.22986793518066406,0.08598899841308594,-0.005447030067443848
1782774936816391000,7.602390869140625,0.08870792388916016,-0.10598278045654297,-0.13476836681365967
1782774936826400500,7.612400390625,-0.12426948547363281,-0.13873004913330078,-0.16093671321868896
1782774936836380000,7.6223798828125,-0.24014043807983398,-0.0907278060913086,-0.22056418657302856
1782774936846389800,7.6323896484375,-0.2463536262512207,-0.14539813995361328,-0.15365839004516602
1782774936856399600,7.642399658203125,-0.15630149841308594,-0.2277994155883789,-0.01555335521697998
1782774936866378800,7.652378662109375,-0.1562047004699707,-0.15381813049316406,0.10988211631774902
1782774936876388600,7.662388671875,-0.23952484130859375,-0.08719825744628906,0.060515403747558594
1782774936886398500,7.6723984375,-0.2279648780822754,-0.05006980895996094,-0.026943087577819824
1782774936896377600,7.682377685546875,-0.16985273361206055,-0.15942955017089844,-0.0766444206237793
1782774936906387500,7.692387451171875,-0.12601280212402344,-0.21368408203125,-0.07193660736083984
1782774936916397000,7.70239697265625,-0.042022705078125,-0.1191558837890625,0.01362907886505127
1782774936926376200,7.712376220703125,0.015404224395751953,-0.038840293884277344,0.04379880428314209
1782774936936386000,7.722385986328125,-0.006055355072021484,-0.02323150634765625,0.14103925228118896
1782774936946396000,7.73239599609375,-0.027494430541992188,-0.0220489501953125,0.09982621669769287
1782774936956375000,7.742375,0.05113983154296875,-0.08068084716796875,-0.11706185340881348
1782774936966385000,7.752385009765625,0.10960769653320312,-0.11500167846679688,-0.06960690021514893
1782774936976394800,7.762394775390625,0.12230730056762695,-0.06532669067382812,0.013324379920959473
1782774936986404400,7.772404296875,0.08743906021118164,0.010552406311035156,0.12959468364715576
1782774936996383500,7.782383544921875,0.029457569122314453,-0.028845787048339844,0.0611271858215332
1782774937006393300,7.792393310546875,-0.049811363220214844,-0.12824726104736328,0.052698731422424316
1782774937016403200,7.8024033203125,0.028803348541259766,-0.16527938842773438,0.005532741546630859
1782774937026382300,7.81238232421875,-0.027517318725585938,-0.28566837310791016,0.034879207611083984
1782774937036392200,7.82239208984375,-0.08027362823486328,-0.2643699645996094,0.003327488899230957
1782774937046402000,7.832402099609375,0.14080333709716797,-0.26404285430908203,-0.16580235958099365
1782774937056381200,7.842381103515625,0.2408580780029297,-0.3994922637939453,-0.17480045557022095
1782774937066391000,7.85239111328125,0.08638954162597656,-0.3582916259765625,0.08686375617980957
1782774937076401000,7.86240087890625,-0.09591531753540039,-0.2993888854980469,-0.05983543395996094
1782774937086380000,7.872380126953125,-0.16003799438476562,-0.25063419342041016,-0.15515601634979248
1782774937096390000,7.882389892578125,-0.027512073516845703,-0.20409107208251953,0.09401249885559082
1782774937106399500,7.8923994140625,-0.08948945999145508,-0.26470184326171875,0.25705933570861816
1782774937116379000,7.90237890625,-0.19216251373291016,-0.24167633056640625,0.05264246463775635
1782774937126388500,7.912388427734375,-0.15750551223754883,-0.2541074752807617,-0.032082200050354004
1782774937136398300,7.9223984375,-0.02736043930053711,-0.21973609924316406,0.074898362159729
1782774937146377500,7.93237744140625,0.05348920822143555,-0.2564067840576172,-0.0006490945816040039
1782774937156387300,7.94238720703125,0.19851350784301758,-0.2521028518676758,0.03130531311035156
1782774937166397200,7.952397216796875,0.25490236282348633,-0.29088592529296875,-0.2046758532524109
1782774937176376300,7.962376220703125,0.42635059356689453,-0.17333507537841797,-0.3273048996925354
1782774937186386200,7.97238623046875,0.3856620788574219,-0.11063766479492188,0.05946528911590576
1782774937196396000,7.98239599609375,0.010376453399658203,0.011205673217773438,0.3491591215133667
1782774937206375200,7.992375244140625,-0.2378535270690918,-0.03481483459472656,0.020328760147094727
1782774937216385000,8.002385009765625,-0.4458637237548828,-0.09164810180664062,0.060135483741760254
1782774937226394600,8.01239453125,-0.6322357654571533,-0.02762889862060547,-0.019492506980895996
1782774937236404200,8.022404296875,-0.645977258682251,0.04699230194091797,0.1948939561843872
1782774937246383600,8.032383544921874,-0.6609809398651123,-0.042083740234375,0.22455453872680664
1782774937256393500,8.0423935546875,-0.6537008285522461,-0.008154869079589844,0.17832982540130615
1782774937266403000,8.052403076171874,-0.5640132427215576,-0.0064697265625,0.06569957733154297
1782774937276382500,8.062382568359375,-0.6120314598083496,-0.08634281158447266,-0.04906177520751953
1782774937286392300,8.072392333984375,-0.32413387298583984,-0.04355621337890625,-0.09800446033477783
1782774937296402000,8.08240185546875,-0.04477262496948242,-0.10057926177978516,0.10611152648925781
1782774937306381300,8.09238134765625,0.3542485237121582,0.09043312072753906,0.3046821355819702
1782774937316391000,8.102390869140624,0.7570152282714844,0.1899089813232422,0.008105158805847168
1782774937326400800,8.11240087890625,1.0315532684326172,-0.09921073913574219,-0.1468338966369629
1782774937336380000,8.1223798828125,1.0430192947387695,-0.24106121063232422,-0.1655428409576416
1782774937346389800,8.1323896484375,0.6869392395019531,-0.16885948181152344,-0.21018028259277344
1782774937356399600,8.142399658203125,0.3453636169433594,-0.11237335205078125,-0.32107001543045044
1782774937366378800,8.152378662109374,0.049263954162597656,-0.13254833221435547,-0.30218011140823364
1782774937376388600,8.162388671875,-0.18681097030639648,-0.19689655303955078,-0.15063798427581787
1782774937386398500,8.1723984375,-0.28868627548217773,-0.12705039978027344,-0.05303013324737549
1782774937396377600,8.182377685546875,-0.1653761863708496,-0.1398611068725586,-0.12551462650299072
1782774937406387200,8.19238720703125,-0.0029191970825195312,-0.2011127471923828,-0.03669464588165283
1782774937416397000,8.20239697265625,0.025299549102783203,-0.19532108306884766,0.03008437156677246
1782774937426376200,8.212376220703124,0.11943578720092773,-0.20794200897216797,-0.08589792251586914
1782774937436386000,8.222385986328124,0.09426450729370117,-0.2306814193725586,0.07950258255004883
1782774937446396000,8.23239599609375,0.10071897506713867,-0.27002716064453125,0.014822125434875488
1782774937456375000,8.242375,0.1311359405517578,-0.3673686981201172,-0.18176686763763428
1782774937466385000,8.252385009765625,0.10540294647216797,-0.4552497863769531,-0.24774223566055298
1782774937476394800,8.262394775390625,0.08696794509887695,-0.35970211029052734,-0.13361132144927979
1782774937486404600,8.272404541015625,0.1852097511291504,-0.22320079803466797,0.0754009485244751
1782774937496383700,8.2823837890625,0.07607698440551758,-0.16106033325195312,0.28647327423095703
1782774937506393300,8.292393310546874,-0.1437544822692871,-0.19440841674804688,0.15336012840270996
1782774937516403200,8.3024033203125,-0.38887882232666016,-0.1975088119506836,-0.029944539070129395
1782774937526382300,8.31238232421875,-0.4188408851623535,-0.26177120208740234,-0.24187487363815308
1782774937536392200,8.32239208984375,-0.3281669616699219,-0.2713642120361328,-0.18549251556396484
1782774937546401800,8.33240185546875,-0.18020915985107422,-0.2697610855102539,-0.15989744663238525
1782774937556381200,8.342381103515624,-0.10986089706420898,-0.18840694427490234,-0.040181636810302734
1782774937566391000,8.35239111328125,-0.018709659576416016,-0.08254814147949219,0.15967881679534912
1782774937576400600,8.362400634765624,0.17859554290771484,-0.042919158935546875,0.18497073650360107
1782774937586380000,8.372380126953125,0.19558477401733398,0.056786537170410156,0.23315536975860596
1782774937596390000,8.382389892578125,0.1156148910522461,-0.0310821533203125,0.029016733169555664
1782774937606399500,8.3923994140625,0.0916600227355957,-0.23221588134765625,-0.1996467113494873
1782774937616379000,8.40237890625,0.018067359924316406,-0.3977785110473633,-0.36124056577682495
1782774937626388500,8.412388427734374,0.6812605857849121,-0.5282258987426758,-0.32167625427246094
1782774937636398300,8.4223984375,-0.046675682067871094,-0.3482484817504883,-0.8775880336761475
1782774937646377500,8.43237744140625,0.07803487777709961,-0.13691139221191406,-0.08872044086456299
1782774937656387300,8.44238720703125,-0.43676328659057617,-0.08686542510986328,0.7235428094863892
1782774937666397200,8.452397216796875,-0.6281118392944336,0.26171112060546875,0.5245896577835083
1782774937676376300,8.462376220703124,-0.672966718673706,0.1888256072998047,0.20124411582946777
1782774937686386200,8.47238623046875,-0.6838853359222412,0.025350570678710938,0.1255342960357666
1782774937696396000,8.48239599609375,-0.5415468215942383,-0.02951335906982422,-0.06196177005767822
1782774937706375200,8.492375244140625,-0.4546666145324707,-0.06345176696777344,0.1911635398864746
1782774937716384800,8.502384765625,-0.4001302719116211,-0.019657135009765625,0.36902153491973877
1782774937726394600,8.51239453125,-0.25211000442504883,-0.0657806396484375,0.22236061096191406
1782774937736404500,8.522404541015625,-0.1018061637878418,-0.20918655395507812,-0.10778021812438965
1782774937746383600,8.532383544921874,-0.111846923828125,-0.29076290130615234,-0.6503657698631287
