time,seconds_elapsed,z,y,x
1782774918676515300,0.171515380859375,-0.0555887371301651,-0.06963863968849182,0.06169738993048668
1782774918686457300,0.181457275390625,-0.0006108652451075613,-0.030543262138962746,0.1014036312699318
1782774918696443400,0.191443359375,0.027488935738801956,-0.009162978269159794,0.1270599663257599
1782774918706446300,0.2014462890625,0.01038470957428217,-0.04153883829712868,0.1771509200334549
1782774918716432400,0.211432373046875,-0.006719517521560192,-0.036041051149368286,0.2125810980796814
1782774918726465800,0.2214658203125,-0.02321287989616394,-0.06658431142568588,0.24434609711170197
1782774918736451800,0.231451904296875,-0.030543262138962746,-0.06902777403593063,0.26083946228027344
1782774918746454800,0.241454833984375,-0.036041051149368286,-0.06169738993048668,0.2577851414680481
1782774918756441000,0.251441162109375,-0.0403171069920063,-0.07880161702632904,0.2376265823841095
1782774918766472200,0.26147216796875,-0.02932153269648552,-0.08674286305904388,0.19547687470912933
1782774918776430000,0.27143017578125,-0.01160643994808197,-0.05314527451992035,0.13866640627384186
1782774918786461000,0.2814609375,0.01038470957428217,0.01038470957428217,0.08246681094169617
1782774918796449500,0.291449462890625,0.019547687843441963,0.06352998316287994,0.04153883829712868
1782774918806452200,0.3014521484375,0.03298672288656235,0.0910189226269722,0.03787364438176155
1782774918816437500,0.3114375,0.051312681287527084,0.07330382615327835,0.06902777403593063
1782774918826469400,0.321469482421875,0.0555887371301651,0.0006108652451075613,0.10018189996480942
1782774918836427000,0.331427001953125,0.0403171069920063,-0.05192354694008827,0.10323622822761536
1782774918846458000,0.3414580078125,0.02015855349600315,-0.03787364438176155,0.08002334833145142
1782774918856446500,0.351446533203125,-0.0012217304902151227,0.010995574295520782,0.04337143152952194
1782774918866447000,0.361447021484375,-0.024434609338641167,0.04948008432984352,0.014049900695681572
1782774918876435500,0.371435546875,-0.04764748737215996,0.04337143152952194,0
1782774918886469000,0.38146923828125,-0.04948008432984352,0.0354301854968071,-0.012828170321881771
1782774918896424700,0.3914248046875,-0.015271631069481373,0.05864306539297104,-0.028099801391363144
1782774918906457900,0.401457763671875,0.018936822190880775,0.09346238523721695,-0.03787364438176155
1782774918916444700,0.411444580078125,0.02871066704392433,0.10445795953273773,-0.029932396486401558
1782774918926447400,0.421447265625,0.025045474991202354,0.09040805697441101,-0.01466076634824276
1782774918936433700,0.43143359375,0.014049900695681572,0.0555887371301651,0.010995574295520782
1782774918946464800,0.44146484375,0.009162978269159794,0.018936822190880775,0.02932153269648552
1782774918956422700,0.451422607421875,0.001832595793530345,-0.006719517521560192,0.024434609338641167
1782774918966454000,0.4614541015625,-0.01771509274840355,-0.031154127791523933,-0.029932396486401558
1782774918976442400,0.4714423828125,-0.024434609338641167,-0.005497787147760391,-0.11728613078594208
1782774918986473200,0.48147314453125,-0.021991148591041565,0.033597588539123535,-0.2076941877603531
1782774918996431000,0.49143115234375,-0.0354301854968071,0.022602014243602753,-0.27977627515792847
1782774919006464500,0.501464599609375,-0.05253441259264946,-0.00855211354792118,-0.32009339332580566
1782774919016450600,0.511450439453125,-0.056810468435287476,-0.010995574295520782,-0.2993239760398865
1782774919026453200,0.521453369140625,-0.045204028487205505,0.012217304669320583,-0.2321287989616394
1782774919036439800,0.531439697265625,-0.03481931984424591,0.02687807008624077,-0.1362229436635971
1782774919046473000,0.541472900390625,-0.03420845419168472,0.00427605677396059,-0.0354301854968071
1782774919056428800,0.5514287109375,-0.03176499158143997,-0.01710422709584236,0.04459316283464432
1782774919066462200,0.561462158203125,-0.02382374368607998,-0.025656340643763542,0.0910189226269722
1782774919076448300,0.5714482421875,-0.009162978269159794,-0.013439035043120384,0.1014036312699318
1782774919086451000,0.581450927734375,0.018936822190880775,0.028099801391363144,0.08857546001672745
1782774919096437200,0.591437255859375,0.04642575979232788,0.09224065393209457,0.07941248267889023
1782774919106470400,0.601470458984375,0.04092797264456749,0.11728613078594208,0.08307767659425735
1782774919116426200,0.61142626953125,0.01771509274840355,0.10873401165008545,0.09957103431224823
1782774919126459600,0.621459716796875,-0.004886921960860491,0.10690141469240189,0.12400564551353455
1782774919136446000,0.631446044921875,-0.01710422709584236,0.11545353382825851,0.14844025671482086
1782774919146448600,0.64144873046875,-0.015271631069481373,0.1111774742603302,0.20402899384498596
1782774919156435200,0.651435302734375,-0.003054326167330146,0.09224065393209457,0.252287358045578
1782774919166468000,0.661468017578125,0.015882495790719986,0.04459316283464432,0.3139847218990326
1782774919176424000,0.671423828125,0.036651913076639175,-0.012217304669320583,0.37751471996307373
1782774919186457000,0.68145703125,0.05742133408784866,-0.028099801391363144,0.43737950921058655
1782774919196443400,0.691443359375,0.05314527451992035,-0.03726277872920036,0.46303585171699524
1782774919206444000,0.701444091796875,0.04153883829712868,-0.04948008432984352,0.42210787534713745
1782774919216432400,0.711432373046875,0.00733038317412138,-0.013439035043120384,0.34086281061172485
1782774919226463500,0.72146337890625,-0.0354301854968071,-0.006719517521560192,0.20830504596233368
1782774919236452000,0.7314521484375,-0.04886921867728233,0.039095375686883926,0.07635815441608429
1782774919246453000,0.741452880859375,-0.05742133408784866,0.09040805697441101,-0.012217304669320583
1782774919256441000,0.751441162109375,-0.06230825558304787,0.09346238523721695,-0.06719517707824707
1782774919266472200,0.76147216796875,-0.054367005825042725,0.06780604273080826,-0.0806342139840126
1782774919276430000,0.77143017578125,-0.05314527451992035,0.012217304669320583,-0.045204028487205505
1782774919286463200,0.781463134765625,-0.07941248267889023,-0.056810468435287476,0.015271631069481373
1782774919296449500,0.791449462890625,-0.09162978827953339,-0.09651670604944229,0.05619960278272629
1782774919306450200,0.8014501953125,-0.08552113175392151,-0.09040805697441101,0.05925392732024193
1782774919316520700,0.811520751953125,-0.08368854224681854,-0.08307767659425735,0.024434609338641167
1782774919326472000,0.821471923828125,-0.07635815441608429,-0.045204028487205505,-0.01160643994808197
1782774919336427500,0.831427490234375,-0.06841690838336945,-0.012828170321881771,-0.02626720629632473
1782774919346461000,0.8414609375,-0.06352998316287994,-0.009773843921720982,-0.015271631069481373
1782774919356447000,0.851447021484375,-0.06352998316287994,-0.03481931984424591,0
1782774919366450000,0.861449951171875,-0.05253441259264946,-0.05742133408784866,0.016493361443281174
1782774919376436000,0.87143603515625,-0.04642575979232788,-0.06108652427792549,0.04459316283464432
1782774919386469600,0.8814697265625,-0.04948008432984352,-0.06169738993048668,0.0659734457731247
1782774919396425000,0.891425048828125,-0.05619960278272629,-0.048258353024721146,0.07208210229873657
1782774919406456300,0.901456298828125,-0.051312681287527084,-0.03726277872920036,0.06475171446800232
1782774919416444700,0.911444580078125,-0.039706241339445114,-0.02687807008624077,0.054367005825042725
1782774919426445600,0.921445556640625,-0.03726277872920036,-0.025656340643763542,0.031154127791523933
1782774919436433700,0.93143359375,-0.03298672288656235,-0.0006108652451075613,0.0012217304902151227
1782774919446464800,0.94146484375,-0.036651913076639175,0.027488935738801956,-0.018325956538319588
1782774919456422700,0.951422607421875,-0.04459316283464432,0.018936822190880775,-0.02382374368607998
1782774919466454000,0.9614541015625,-0.04886921867728233,-0.0006108652451075613,-0.012217304669320583
1782774919476442000,0.971442138671875,-0.04398229718208313,-0.012828170321881771,0.010995574295520782
1782774919486473700,0.9814736328125,-0.031154127791523933,-0.02076941914856434,0.02932153269648552
1782774919496431000,0.99143115234375,-0.01466076634824276,-0.02076941914856434,0.04886921867728233
1782774919506462200,1.001462158203125,-0.010995574295520782,-0.02321287989616394,0.060475658625364304
1782774919516450800,1.011450927734375,-0.012828170321881771,-0.025045474991202354,0.0507018156349659
1782774919526451500,1.021451416015625,-0.0024434609804302454,-0.006719517521560192,0.03176499158143997
1782774919536439800,1.031439697265625,0.01160643994808197,0.0024434609804302454,0.015882495790719986
1782774919546471000,1.041470947265625,0.021380282938480377,-0.003054326167330146,0.010995574295520782
1782774919556428800,1.0514287109375,0.02076941914856434,-0.01038470957428217,0.019547687843441963
1782774919566459600,1.061459716796875,-0.00427605677396059,-0.01710422709584236,0.036041051149368286
1782774919576448300,1.0714482421875,-0.012828170321881771,-0.00855211354792118,0.024434609338641167
1782774919586449000,1.081448974609375,-0.010995574295520782,0,0.005497787147760391
1782774919596437200,1.091437255859375,0,-0.018325956538319588,-0.007941247895359993
1782774919606468600,1.101468505859375,0.0012217304902151227,-0.03237585723400116,-0.004886921960860491
1782774919616426200,1.11142626953125,-0.021380282938480377,-0.06169738993048668,-0.006108652334660292
1782774919626457300,1.121457275390625,-0.04764748737215996,-0.07696902006864548,-0.02321287989616394
1782774919636446000,1.131446044921875,-0.051312681287527084,-0.04459316283464432,-0.04337143152952194
1782774919646448600,1.14144873046875,-0.04703662544488907,-0.0024434609804302454,-0.04581489413976669
1782774919656435000,1.15143505859375,-0.04459316283464432,0.01466076634824276,-0.024434609338641167
1782774919666468000,1.161468017578125,-0.02626720629632473,0.006719517521560192,0.01038470957428217
1782774919676424000,1.171423828125,-0.0006108652451075613,-0.022602014243602753,0.04092797264456749
1782774919686454800,1.181454833984375,0.015882495790719986,-0.04398229718208313,0.05314527451992035
1782774919696443400,1.191443359375,0.027488935738801956,-0.03420845419168472,0.04459316283464432
1782774919706444000,1.201444091796875,0.02932153269648552,-0.015882495790719986,0.02871066704392433
1782774919716432400,1.211432373046875,0.02626720629632473,-0.006108652334660292,0.014049900695681572
1782774919726463700,1.221463623046875,0.03420845419168472,-0.001832595793530345,0.009773843921720982
1782774919736451800,1.231451904296875,0.03420845419168472,-0.006108652334660292,0.012828170321881771
1782774919746454500,1.24145458984375,0.01038470957428217,-0.013439035043120384,0.02015855349600315
1782774919756441000,1.251441162109375,-0.00733038317412138,0.0012217304902151227,0.03726277872920036
1782774919766474500,1.261474609375,0.0012217304902151227,0.013439035043120384,0.051312681287527084
1782774919776430000,1.27143017578125,0.02932153269648552,0.02015855349600315,0.05253441259264946
1782774919786461200,1.281461181640625,0.0757472887635231,0.016493361443281174,0.039706241339445114
1782774919796449500,1.291449462890625,0.12767083942890167,0.00733038317412138,0.018936822190880775
1782774919806450200,1.3014501953125,0.17531833052635193,0.01038470957428217,-0.0012217304902151227
1782774919816432400,1.311432373046875,0.18387043476104736,0.018936822190880775,-0.016493361443281174
1782774919826463200,1.321463134765625,0.15882496535778046,0.016493361443281174,-0.024434609338641167
1782774919836422000,1.331421875,0.11239920556545258,0.02687807008624077,-0.012828170321881771
1782774919846452500,1.341452392578125,0.04337143152952194,0.015271631069481373,0.007941247895359993
1782774919856441300,1.35144140625,-0.00427605677396059,-0.006108652334660292,0.012828170321881771
1782774919866442200,1.361442138671875,-0.005497787147760391,-0.003054326167330146,0.0012217304902151227
1782774919876430600,1.3714306640625,0.02382374368607998,-0.006719517521560192,-0.02321287989616394
1782774919886461400,1.38146142578125,0.06719517707824707,-0.001832595793530345,-0.04398229718208313
1782774919896419300,1.39141943359375,0.10201449692249298,0.0403171069920063,-0.051312681287527084
1782774919906453200,1.401453369140625,0.11789698898792267,0.07696902006864548,-0.0507018156349659
1782774919916439600,1.411439453125,0.11850785464048386,0.11484266817569733,-0.029932396486401558
1782774919926440200,1.421440185546875,0.10323622822761536,0.12461651116609573,0.00855211354792118
1782774919936428500,1.431428466796875,0.08491026610136032,0.09040805697441101,0.051312681287527084
1782774919946459600,1.441459716796875,0.06414084881544113,0.04337143152952194,0.08857546001672745
1782774919956417500,1.45141748046875,0.045204028487205505,-0.00733038317412138,0.09346238523721695
1782774919966449000,1.461448974609375,0.039095375686883926,-0.004886921960860491,0.0659734457731247
1782774919976437200,1.471437255859375,0.045204028487205505,0.014049900695681572,0.018325956538319588
1782774919986468600,1.481468505859375,0.05925392732024193,0.027488935738801956,-0.025656340643763542
1782774919996426000,1.491426025390625,0.06475171446800232,0.030543262138962746,-0.06658431142568588
1782774920006457000,1.50145703125,0.05314527451992035,0.02321287989616394,-0.07819075137376785
1782774920016445400,1.511445556640625,0.05497787147760391,0.05253441259264946,-0.07208210229873657
1782774920026448600,1.52144873046875,0.059864792972803116,0.08124507963657379,-0.04153883829712868
1782774920036434700,1.5314345703125,0.05742133408784866,0.06963863968849182,0.016493361443281174
1782774920046465800,1.5414658203125,0.04703662544488907,0.04337143152952194,0.08307767659425735
1782774920056423700,1.551423583984375,0.03726277872920036,0.001832595793530345,0.12522737681865692
1782774920066454800,1.561454833984375,0.03726277872920036,0.0012217304902151227,0.13255776464939117
1782774920076443100,1.571443115234375,0.03298672288656235,0.018936822190880775,0.10384709388017654
1782774920086443800,1.58144384765625,0.021991148591041565,0.021380282938480377,0.04581489413976669
1782774920096432000,1.59143212890625,0.018936822190880775,0.02626720629632473,-0.024434609338641167
1782774920106463200,1.601463134765625,0.016493361443281174,0.0354301854968071,-0.09162978827953339
1782774920116421000,1.611421142578125,0.009773843921720982,0.03726277872920036,-0.14844025671482086
1782774920126452200,1.6214521484375,-0.00855211354792118,0.04214970022439957,-0.18814650177955627
1782774920136440800,1.63144091796875,-0.02871066704392433,0.0403171069920063,-0.20036379992961884
1782774920146441500,1.64144140625,-0.045204028487205505,0.02076941914856434,-0.19364428520202637
1782774920156429800,1.651429931640625,-0.051312681287527084,0.00855211354792118,-0.16920967400074005
1782774920166463000,1.661462890625,-0.05192354694008827,-0.00427605677396059,-0.12889257073402405
1782774920176418800,1.671418701171875,-0.0555887371301651,-0.0012217304902151227,-0.06719517707824707
1782774920186452000,1.681451904296875,-0.04886921867728233,0.028099801391363144,-0.001832595793530345
1782774920196438300,1.691438232421875,-0.04948008432984352,0.039095375686883926,0.04642575979232788
1782774920206441500,1.70144140625,-0.051312681287527084,0.04703662544488907,0.07208210229873657
1782774920216427300,1.71142724609375,-0.04459316283464432,0.06475171446800232,0.07757988572120667
1782774920226458400,1.721458251953125,-0.04642575979232788,0.06414084881544113,0.06658431142568588
1782774920236446700,1.73144677734375,-0.04703662544488907,0.04459316283464432,0.05314527451992035
1782774920246447600,1.741447509765625,-0.05009094998240471,0.029932396486401558,0.039706241339445114
1782774920256436000,1.75143603515625,-0.05314527451992035,0.02321287989616394,0.01466076634824276
1782774920266467300,1.76146728515625,-0.03787364438176155,0.04092797264456749,-0.019547687843441963
1782774920276425000,1.771425048828125,-0.025656340643763542,0.05619960278272629,-0.05497787147760391
1782774920286456000,1.7814560546875,-0.01771509274840355,0.048258353024721146,-0.08429940044879913
1782774920296444400,1.7914443359375,-0.018325956538319588,0.04948008432984352,-0.1007927656173706
1782774920306447000,1.801447021484375,-0.02626720629632473,0.07696902006864548,-0.09346238523721695
1782774920316170800,1.811170654296875,-0.029932396486401558,0.08246681094169617,-0.06841690838336945
1782774920326466800,1.821466796875,-0.018325956538319588,0.06414084881544113,-0.02015855349600315
1782774920336422400,1.83142236328125,0.006108652334660292,0.04459316283464432,0.036041051149368286
1782774920346455600,1.84145556640625,0.0354301854968071,0.02871066704392433,0.08918632566928864
1782774920356442000,1.851442138671875,0.05375614017248154,0.010995574295520782,0.11911872029304504
1782774920366442800,1.86144287109375,0.06963863968849182,0.0024434609804302454,0.11728613078594208
1782774920376431000,1.87143115234375,0.07635815441608429,0.00855211354792118,0.0910189226269722
1782774920386461700,1.881461669921875,0.06291911751031876,0.021380282938480377,0.05497787147760391
1782774920396420000,1.891420166015625,0.03298672288656235,0.022602014243602753,0.006719517521560192
1782774920406451000,1.901450927734375,0.001832595793530345,0.024434609338641167,-0.04581489413976669
1782774920416439600,1.911439453125,-0.027488935738801956,0.012217304669320583,-0.0910189226269722
1782774920426440200,1.921440185546875,-0.04459316283464432,-0.02321287989616394,-0.07819075137376785
1782774920436428500,1.931428466796875,-0.05192354694008827,-0.0555887371301651,-0.04948008432984352
1782774920446461700,1.941461669921875,-0.04886921867728233,-0.05009094998240471,-0.02687807008624077
1782774920456417500,1.95141748046875,-0.031154127791523933,-0.019547687843441963,-0.01771509274840355
1782774920466450700,1.96145068359375,-0.01771509274840355,0.005497787147760391,-0.01038470957428217
1782774920476437200,1.971437255859375,-0.006719517521560192,0.02015855349600315,0.012217304669320583
1782774920486470400,1.981470458984375,-0.0006108652451075613,0.01710422709584236,0.042760565876960754
1782774920496426000,1.991426025390625,-0.00733038317412138,-0.006108652334660292,0.07635815441608429
1782774920506457000,2.00145703125,-0.029932396486401558,-0.04214970022439957,0.09957103431224823
1782774920516445700,2.01144580078125,-0.05497787147760391,-0.06414084881544113,0.09346238523721695
1782774920526446600,2.021446533203125,-0.06352998316287994,-0.04581489413976669,0.04764748737215996
1782774920536434700,2.0314345703125,-0.054367005825042725,-0.007941247895359993,-0.022602014243602753
1782774920546466000,2.041466064453125,-0.04092797264456749,0.02076941914856434,-0.08185594528913498
1782774920556423700,2.051423583984375,-0.02932153269648552,0.024434609338641167,-0.10323622822761536
1782774920566456800,2.061456787109375,-0.029932396486401558,0.014049900695681572,-0.08857546001672745
1782774920576443400,2.071443359375,-0.03481931984424591,0.00427605677396059,-0.04764748737215996
1782774920586446000,2.081446044921875,-0.02626720629632473,-0.006108652334660292,-0.00427605677396059
1782774920596432400,2.091432373046875,-0.018325956538319588,-0.025656340643763542,0.0403171069920063
1782774920606463500,2.10146337890625,-0.003054326167330146,-0.05192354694008827,0.07024950534105301
1782774920616421000,2.111421142578125,0.01466076634824276,-0.05864306539297104,0.08002334833145142
1782774920626452500,2.121452392578125,0.02626720629632473,-0.06169738993048668,0.06230825558304787
1782774920636471000,2.131470947265625,0.03481931984424591,-0.05314527451992035,0.02626720629632473
1782774920646441500,2.14144140625,0.04581489413976669,-0.025045474991202354,-0.01160643994808197
1782774920656429800,2.151429931640625,0.04642575979232788,-0.009773843921720982,-0.03481931984424591
1782774920666461000,2.1614609375,0.030543262138962746,-0.01771509274840355,-0.03176499158143997
1782774920676419000,2.171419189453125,0.018325956538319588,-0.03237585723400116,-0.010995574295520782
1782774920686452200,2.1814521484375,0.02932153269648552,-0.04398229718208313,0.015882495790719986
1782774920696438300,2.191438232421875,0.04092797264456749,-0.05192354694008827,0.04703662544488907
1782774920706441200,2.201441162109375,0.054367005825042725,-0.04398229718208313,0.08429940044879913
1782774920716427300,2.21142724609375,0.04153883829712868,-0.03298672288656235,0.1264491081237793
1782774920726458400,2.221458251953125,0.019547687843441963,-0.03237585723400116,0.15760323405265808
1782774920736446700,2.23144677734375,-0.005497787147760391,-0.02687807008624077,0.17409659922122955
1782774920746447600,2.241447509765625,-0.018936822190880775,-0.029932396486401558,0.1716531366109848
1782774920756436000,2.25143603515625,-0.019547687843441963,-0.04459316283464432,0.16004669666290283
1782774920766467000,2.261467041015625,-0.01160643994808197,-0.05375614017248154,0.14416420459747314
1782774920776425000,2.271425048828125,0.00733038317412138,-0.03726277872920036,0.11545353382825851
1782774920786456000,2.2814560546875,0.009162978269159794,-0.00733038317412138,0.09346238523721695
1782774920796444400,2.2914443359375,-0.010995574295520782,-0.004886921960860491,0.08185594528913498
1782774920806444800,2.30144482421875,-0.028099801391363144,-0.02321287989616394,0.08185594528913498
1782774920816432400,2.311432373046875,-0.039095375686883926,-0.045204028487205505,0.08857546001672745
1782774920826464000,2.321464111328125,-0.042760565876960754,-0.06230825558304787,0.09346238523721695
1782774920836422100,2.331422119140625,-0.03787364438176155,-0.05925392732024193,0.0910189226269722
1782774920846453000,2.341452880859375,-0.039095375686883926,-0.06841690838336945,0.07208210229873657
1782774920856441300,2.35144140625,-0.03848451003432274,-0.08185594528913498,0.07147123664617538
1782774920866442200,2.361442138671875,-0.03787364438176155,-0.09773843735456467,0.0861319974064827
1782774920876430300,2.371430419921875,-0.042760565876960754,-0.10262536257505417,0.09712757170200348
1782774920886461400,2.38146142578125,-0.03481931984424591,-0.0861319974064827,0.09529497474431992
1782774920896419600,2.391419677734375,-0.015271631069481373,-0.06902777403593063,0.0806342139840126
1782774920906450700,2.40145068359375,-0.009773843921720982,-0.06536258012056351,0.06658431142568588
1782774920916439600,2.411439453125,-0.016493361443281174,-0.05497787147760391,0.054367005825042725
1782774920926440200,2.421440185546875,-0.03298672288656235,-0.02076941914856434,0.05314527451992035
1782774920936428500,2.431428466796875,-0.05742133408784866,-0.009162978269159794,0.04886921867728233
1782774920946459600,2.441459716796875,-0.06108652427792549,-0.0006108652451075613,0.039706241339445114
1782774920956417500,2.45141748046875,-0.04764748737215996,0.01710422709584236,0.031154127791523933
1782774920966449000,2.461448974609375,-0.024434609338641167,0.024434609338641167,0.03176499158143997
1782774920976437200,2.471437255859375,-0.00427605677396059,0.015271631069481373,0.0354301854968071
1782774920986468600,2.481468505859375,0.0006108652451075613,0.004886921960860491,0.033597588539123535
1782774920996426200,2.49142626953125,-0.007941247895359993,0.003054326167330146,0.021991148591041565
1782774921006457000,2.50145703125,-0.009773843921720982,-0.00427605677396059,0.006108652334660292
1782774921016405500,2.511405517578125,-0.006719517521560192,-0.012217304669320583,-0.0006108652451075613
1782774921026506800,2.5215068359375,-0.012828170321881771,-0.0354301854968071,0.003054326167330146
1782774921036903700,2.531903564453125,-0.024434609338641167,-0.05497787147760391,0.007941247895359993
1782774921046466000,2.541466064453125,-0.0354301854968071,-0.054367005825042725,0.018936822190880775
1782774921056383500,2.551383544921875,-0.04092797264456749,-0.0403171069920063,0.02687807008624077
1782774921066518000,2.56151806640625,-0.036041051149368286,-0.02015855349600315,0.04092797264456749
1782774921076443400,2.571443359375,-0.02076941914856434,0.003054326167330146,0.07269296050071716
1782774921086443800,2.58144384765625,0.0024434609804302454,0.009162978269159794,0.11239920556545258
1782774921096432000,2.59143212890625,0.018936822190880775,-0.01771509274840355,0.1466076523065567
1782774921106463500,2.60146337890625,0.025656340643763542,-0.039706241339445114,0.1612684279680252
1782774921116421000,2.611421142578125,0.029932396486401558,-0.03787364438176155,0.14905111491680145
1782774921126452500,2.621452392578125,0.02932153269648552,-0.025045474991202354,0.1264491081237793
1782774921136440800,2.63144091796875,0.00733038317412138,-0.031154127791523933,0.11423180252313614
1782774921146440700,2.641440673828125,-0.04764748737215996,-0.05375614017248154,0.11056660860776901
1782774921156429800,2.651429931640625,-0.07880161702632904,-0.05619960278272629,0.09529497474431992
1782774921166461200,2.661461181640625,-0.09407325088977814,-0.01771509274840355,0.08491026610136032
1782774921176418800,2.671418701171875,-0.08368854224681854,0.0024434609804302454,0.07330382615327835
1782774921186450200,2.6814501953125,-0.05314527451992035,0.0006108652451075613,0.0757472887635231
1782774921196438300,2.691438232421875,-0.016493361443281174,-0.004886921960860491,0.09896016865968704
1782774921206438700,2.701438720703125,0.0006108652451075613,-0.014049900695681572,0.12522737681865692
1782774921216427300,2.71142724609375,-0.004886921960860491,-0.02626720629632473,0.13744467496871948
1782774921226458400,2.721458251953125,-0.02015855349600315,-0.03420845419168472,0.1270599663257599
1782774921236446700,2.73144677734375,-0.02932153269648552,-0.025045474991202354,0.10506882518529892
1782774921246447400,2.741447265625,-0.036651913076639175,-0.01771509274840355,0.07757988572120667
1782774921256436000,2.75143603515625,-0.04398229718208313,-0.02321287989616394,0.04398229718208313
1782774921266467000,2.761467041015625,-0.04703662544488907,-0.03420845419168472,-0.01466076634824276
1782774921276425000,2.771425048828125,-0.04886921867728233,-0.04153883829712868,-0.05314527451992035
1782774921286456300,2.781456298828125,-0.0555887371301651,-0.04398229718208313,-0.08246681094169617
1782774921296444200,2.791444091796875,-0.056810468435287476,-0.029932396486401558,-0.09896016865968704
1782774921306444800,2.80144482421875,-0.04948008432984352,-0.018325956538319588,-0.10567969083786011
1782774921316433400,2.811433349609375,-0.04153883829712868,-0.02015855349600315,-0.10201449692249298
1782774921326464500,2.821464599609375,-0.02687807008624077,-0.031154127791523933,-0.09285151958465576
1782774921336422400,2.83142236328125,-0.015882495790719986,-0.03237585723400116,-0.0708603709936142
1782774921346453800,2.841453857421875,-0.018325956538319588,-0.04886921867728233,-0.0354301854968071
1782774921356441900,2.85144189453125,-0.03420845419168472,-0.07208210229873657,0.00366519158706069
1782774921366442800,2.86144287109375,-0.039095375686883926,-0.09529497474431992,0.025045474991202354
1782774921376431000,2.87143115234375,-0.02626720629632473,-0.10445795953273773,0.02382374368607998
1782774921386462200,2.881462158203125,-0.014049900695681572,-0.10873401165008545,0.013439035043120384
1782774921396420000,2.891420166015625,-0.003054326167330146,-0.11850785464048386,-0.0024434609804302454
1782774921406451200,2.901451171875,0.006719517521560192,-0.10506882518529892,-0.02382374368607998
1782774921416439600,2.911439453125,0.012217304669320583,-0.08246681094169617,-0.036041051149368286
1782774921426409200,2.9214091796875,0.01160643994808197,-0.0757472887635231,-0.03726277872920036
1782774921436670500,2.93167041015625,0.010995574295520782,-0.07819075137376785,-0.02626720629632473
1782774921446428700,2.9414287109375,0.02015855349600315,-0.06841690838336945,-0.012828170321881771
1782774921456509200,2.95150927734375,0.02871066704392433,-0.060475658625364304,-0.003054326167330146
1782774921466387000,2.961386962890625,0.028099801391363144,-0.04948008432984352,0.0012217304902151227
1782774921476437200,2.971437255859375,0.018936822190880775,-0.036041051149368286,0.0006108652451075613
1782774921486437000,2.98143701171875,-0.00366519158706069,-0.01710422709584236,-0.001832595793530345
1782774921496517600,2.991517578125,-0.022602014243602753,-0.004886921960860491,-0.0006108652451075613
1782774921506457000,3.00145703125,-0.03481931984424591,-0.009773843921720982,0.003054326167330146
1782774921516445400,3.011445556640625,-0.04642575979232788,-0.025656340643763542,0.006108652334660292
1782774921526446600,3.021446533203125,-0.056810468435287476,-0.029932396486401558,0.001832595793530345
1782774921536394500,3.03139453125,-0.05925392732024193,-0.022602014243602753,-0.00427605677396059
1782774921546527000,3.04152685546875,-0.05375614017248154,-0.01038470957428217,-0.00855211354792118
1782774921556423700,3.051423583984375,-0.04092797264456749,-0.005497787147760391,-0.004886921960860491
1782774921566455000,3.061455078125,-0.03420845419168472,-0.014049900695681572,0.0024434609804302454
1782774921576443400,3.071443359375,-0.033597588539123535,-0.029932396486401558,0.0006108652451075613
1782774921586444300,3.0814443359375,-0.03848451003432274,-0.02687807008624077,-0.013439035043120384
1782774921596432100,3.09143212890625,-0.04764748737215996,-0.014049900695681572,-0.024434609338641167
1782774921606463200,3.101463134765625,-0.05925392732024193,-0.02871066704392433,-0.02687807008624077
1782774921616421000,3.111421142578125,-0.0555887371301651,-0.04214970022439957,-0.024434609338641167
1782774921626452200,3.1214521484375,-0.04337143152952194,-0.036041051149368286,-0.029932396486401558
1782774921636440800,3.13144091796875,-0.039095375686883926,-0.036041051149368286,-0.04337143152952194
1782774921646441500,3.14144140625,-0.03176499158143997,-0.025656340643763542,-0.05925392732024193
1782774921656429800,3.151429931640625,-0.025045474991202354,-0.01466076634824276,-0.0659734457731247
1782774921666461000,3.1614609375,-0.025656340643763542,-0.02015855349600315,-0.06291911751031876
1782774921676418800,3.171418701171875,-0.024434609338641167,-0.016493361443281174,-0.06536258012056351
1782774921686450200,3.1814501953125,-0.02321287989616394,0.003054326167330146,-0.07208210229873657
1782774921696438300,3.191438232421875,-0.021380282938480377,0.02076941914856434,-0.08002334833145142
1782774921706439200,3.201439208984375,-0.031154127791523933,0.016493361443281174,-0.06902777403593063
1782774921716427300,3.21142724609375,-0.03726277872920036,0.006719517521560192,-0.05864306539297104
1782774921726458400,3.221458251953125,-0.03237585723400116,0.015271631069481373,-0.04948008432984352
1782774921736446700,3.23144677734375,-0.02382374368607998,0.03298672288656235,-0.0354301854968071
1782774921746447600,3.241447509765625,-0.012828170321881771,0.04337143152952194,-0.01466076634824276
1782774921756436000,3.25143603515625,-0.009773843921720982,0.03726277872920036,0.012217304669320583
1782774921766467000,3.261467041015625,-0.012217304669320583,0.031154127791523933,0.03176499158143997
1782774921776425000,3.271425048828125,-0.009773843921720982,0.0354301854968071,0.036651913076639175
1782774921786456000,3.2814560546875,-0.004886921960860491,0.04214970022439957,0.02687807008624077
1782774921796444400,3.2914443359375,0.0012217304902151227,0.0354301854968071,0.010995574295520782
1782774921806445000,3.301445068359375,0.0006108652451075613,0.015882495790719986,-0.009162978269159794
1782774921816432600,3.3114326171875,-0.010995574295520782,0.006719517521560192,-0.031154127791523933
1782774921826464300,3.32146435546875,-0.021991148591041565,0.01466076634824276,-0.051312681287527084
1782774921836422000,3.331421875,-0.03237585723400116,0.015271631069481373,-0.06841690838336945
1782774921846453200,3.341453369140625,-0.03481931984424591,0.01710422709584236,-0.08246681094169617
1782774921856441300,3.35144140625,-0.03176499158143997,0.015271631069481373,-0.09162978827953339
1782774921866411500,3.36141162109375,-0.025656340643763542,0.01466076634824276,-0.09224065393209457
1782774921876081400,3.371081298828125,-0.019547687843441963,0.016493361443281174,-0.08552113175392151
1782774921886461700,3.381461669921875,-0.016493361443281174,0.03237585723400116,-0.05803219974040985
1782774921896419300,3.39141943359375,-0.025045474991202354,0.03298672288656235,-0.02382374368607998
1782774921906450400,3.401450439453125,-0.025656340643763542,0.018936822190880775,0.006719517521560192
1782774921916439300,3.411439208984375,-0.015271631069481373,0.01771509274840355,0.02626720629632473
1782774921926440200,3.421440185546875,-0.00366519158706069,0.012828170321881771,0.029932396486401558
1782774921936428500,3.431428466796875,-0.0006108652451075613,0.015882495790719986,0.016493361443281174
1782774921946460000,3.4414599609375,0.006719517521560192,0.039095375686883926,-0.010995574295520782
1782774921956417500,3.45141748046875,0.014049900695681572,0.06230825558304787,-0.02687807008624077
1782774921966449000,3.461448974609375,0.021991148591041565,0.06291911751031876,-0.01771509274840355
1782774921976437200,3.471437255859375,0.03176499158143997,0.04398229718208313,0.012828170321881771
1782774921986468000,3.481468017578125,0.033597588539123535,0.025045474991202354,0.04886921867728233
1782774921996426000,3.491426025390625,0.013439035043120384,0.00733038317412138,0.07269296050071716
1782774922006457000,3.50145703125,-0.00427605677396059,0.012828170321881771,0.07208210229873657
1782774922016445400,3.511445556640625,-0.021991148591041565,0.03787364438176155,0.05253441259264946
1782774922026446300,3.5214462890625,-0.05253441259264946,0.039706241339445114,0.022602014243602753
1782774922036434700,3.5314345703125,-0.06536258012056351,0.039095375686883926,-0.019547687843441963
1782774922046465800,3.5414658203125,-0.039095375686883926,0.05253441259264946,-0.07024950534105301
1782774922056423700,3.551423583984375,0.004886921960860491,0.06902777403593063,-0.10812314599752426
1782774922066454800,3.561454833984375,0.02932153269648552,0.07757988572120667,-0.10934487730264664
1782774922076443400,3.571443359375,0.03726277872920036,0.07452555745840073,-0.07757988572120667
1782774922086444000,3.581444091796875,0.03848451003432274,0.0555887371301651,-0.018936822190880775
1782774922096432000,3.59143212890625,0.02932153269648552,0.01710422709584236,0.04581489413976669
1782774922106432300,3.601432373046875,0.02015855349600315,-0.018936822190880775,0.0861319974064827
1782774922116512800,3.6115126953125,0.02626720629632473,-0.015271631069481373,0.06475171446800232
1782774922126421500,3.62142138671875,0.04092797264456749,0.015271631069481373,0.007941247895359993
1782774922136501800,3.631501708984375,0.059864792972803116,0.0403171069920063,-0.03848451003432274
1782774922146410200,3.64141015625,0.06352998316287994,0.0354301854968071,-0.048258353024721146
1782774922156673800,3.651673828125,0.04459316283464432,0.0006108652451075613,-0.02382374368607998
1782774922166461000,3.6614609375,0.016493361443281174,-0.021991148591041565,0.001832595793530345
1782774922176418800,3.671418701171875,-0.0006108652451075613,-0.02871066704392433,0.00427605677396059
1782774922186450200,3.6814501953125,-0.006108652334660292,-0.02382374368607998,0.001832595793530345
1782774922196438300,3.691438232421875,-0.004886921960860491,-0.029932396486401558,-0.001832595793530345
1782774922206439000,3.70143896484375,0.009773843921720982,-0.029932396486401558,-0.012828170321881771
1782774922216427300,3.71142724609375,0.025045474991202354,-0.02076941914856434,-0.02076941914856434
1782774922226458400,3.721458251953125,0.03237585723400116,-0.006108652334660292,-0.015271631069481373
1782774922236446700,3.73144677734375,0.02076941914856434,-0.006108652334660292,0.007941247895359993
1782774922246447400,3.741447265625,0.001832595793530345,-0.028099801391363144,0.03848451003432274
1782774922256436000,3.75143603515625,-0.005497787147760391,-0.03848451003432274,0.0659734457731247
1782774922266467000,3.761467041015625,-0.0024434609804302454,-0.036651913076639175,0.07452555745840073
1782774922276425000,3.771425048828125,0.0006108652451075613,-0.03848451003432274,0.07024950534105301
1782774922286456000,3.7814560546875,-0.003054326167330146,-0.04459316283464432,0.05375614017248154
1782774922296444400,3.7914443359375,-0.010995574295520782,-0.045204028487205505,0.02932153269648552
1782774922306444800,3.80144482421875,-0.015882495790719986,-0.01771509274840355,0.004886921960860491
1782774922316433400,3.811433349609375,-0.02015855349600315,0.01038470957428217,-0.00855211354792118
1782774922326464500,3.821464599609375,-0.027488935738801956,0.005497787147760391,-0.00855211354792118
1782774922336422400,3.83142236328125,-0.025656340643763542,-0.018325956538319588,0.003054326167330146
1782774922346453500,3.84145361328125,-0.007941247895359993,-0.04459316283464432,0.02076941914856434
1782774922356442000,3.851442138671875,0.001832595793530345,-0.048258353024721146,0.05009094998240471
1782774922366442800,3.86144287109375,-0.006719517521560192,-0.05375614017248154,0.07330382615327835
1782774922376431000,3.87143115234375,-0.021380282938480377,-0.04581489413976669,0.07941248267889023
1782774922386462000,3.8814619140625,-0.02382374368607998,-0.02321287989616394,0.06780604273080826
1782774922396420000,3.891420166015625,-0.022602014243602753,-0.01160643994808197,0.04581489413976669
1782774922406451500,3.901451416015625,-0.01710422709584236,-0.0012217304902151227,0.025656340643763542
1782774922416439600,3.911439453125,-0.00427605677396059,0.00733038317412138,0.014049900695681572
1782774922426409200,3.9214091796875,0.01038470957428217,0.013439035043120384,0.018325956538319588
1782774922436480000,3.93147998046875,0.009162978269159794,0.0006108652451075613,0.04214970022439957
1782774922446520600,3.9415205078125,-0.004886921960860491,-0.02382374368607998,0.06902777403593063
1782774922456417500,3.95141748046875,-0.019547687843441963,-0.03787364438176155,0.08368854224681854
1782774922466449000,3.961448974609375,-0.03176499158143997,-0.03298672288656235,0.07635815441608429
1782774922476437200,3.971437255859375,-0.028099801391363144,-0.021991148591041565,0.0507018156349659
1782774922486468600,3.981468505859375,-0.02015855349600315,0.003054326167330146,0.02321287989616394
1782774922496426200,3.99142626953125,-0.006719517521560192,0.025045474991202354,0.005497787147760391
1782774922506457000,4.00145703125,0.01038470957428217,0.03726277872920036,0.006108652334660292
1782774922516445700,4.01144580078125,0.015271631069481373,0.025656340643763542,0.02626720629632473
1782774922526446300,4.0214462890625,0.01466076634824276,0.003054326167330146,0.05253441259264946
1782774922536434700,4.0314345703125,0.013439035043120384,-0.004886921960860491,0.0708603709936142
1782774922546465800,4.0414658203125,0.012217304669320583,0.00366519158706069,0.07391469180583954
1782774922556423700,4.051423583984375,0.01038470957428217,0.00733038317412138,0.0708603709936142
1782774922566454500,4.06145458984375,0.010995574295520782,0.0024434609804302454,0.07208210229873657
1782774922576443400,4.071443359375,0.00366519158706069,-0.0024434609804302454,0.07941248267889023
1782774922586444000,4.081444091796875,-0.019547687843441963,-0.007941247895359993,0.07269296050071716
1782774922596432400,4.091432373046875,-0.03481931984424591,0.00855211354792118,0.03726277872920036
1782774922606463700,4.101463623046875,-0.02687807008624077,0.0354301854968071,-0.022602014243602753
1782774922616421000,4.111421142578125,-0.00366519158706069,0.05192354694008827,-0.07635815441608429
1782774922626452500,4.121452392578125,0.01771509274840355,0.04398229718208313,-0.09896016865968704
1782774922636471000,4.131470947265625,0.030543262138962746,0.03176499158143997,-0.08185594528913498
1782774922646410200,4.14141015625,0.028099801391363144,0,-0.0403171069920063
1782774922656490800,4.15149072265625,0.015882495790719986,-0.04337143152952194,0.012828170321881771
1782774922666461000,4.1614609375,-0.006108652334660292,-0.06719517707824707,0.06352998316287994
1782774922676418800,4.171418701171875,-0.02321287989616394,-0.07269296050071716,0.09162978827953339
1782774922686388200,4.18138818359375,-0.019547687843441963,-0.04459316283464432,0.08918632566928864
1782774922696499500,4.19149951171875,-0.0012217304902151227,-0.00733038317412138,0.0659734457731247
1782774922706408000,4.201407958984375,0.016493361443281174,-0.003054326167330146,0.03298672288656235
1782774922716519000,4.211518798828125,0.04153883829712868,0.0006108652451075613,0.006108652334660292
1782774922726458600,4.221458740234375,0.054367005825042725,0.00855211354792118,0.003054326167330146
1782774922736447000,4.231447021484375,0.0403171069920063,-0.001832595793530345,0.021991148591041565
1782774922746448000,4.24144775390625,0.01710422709584236,-0.016493361443281174,0.05009094998240471
1782774922756436000,4.25143603515625,0.001832595793530345,-0.02871066704392433,0.06841690838336945
1782774922766467000,4.261467041015625,-0.00427605677396059,-0.042760565876960754,0.06291911751031876
1782774922776425000,4.271425048828125,0.006108652334660292,-0.03787364438176155,0.0354301854968071
1782774922786456300,4.281456298828125,0.018325956538319588,-0.024434609338641167,0.001832595793530345
1782774922796444400,4.2914443359375,0.03298672288656235,-0.021380282938480377,-0.03176499158143997
1782774922806445000,4.301445068359375,0.045204028487205505,-0.01710422709584236,-0.05192354694008827
1782774922816432400,4.311432373046875,0.04459316283464432,-0.012828170321881771,-0.04214970022439957
1782774922826464000,4.321464111328125,0.025045474991202354,-0.01466076634824276,-0.009162978269159794
1782774922836422100,4.331422119140625,0.010995574295520782,-0.027488935738801956,0.024434609338641167
1782774922846453200,4.341453369140625,0.009162978269159794,-0.039095375686883926,0.05009094998240471
1782774922856441300,4.35144140625,0.01038470957428217,-0.06291911751031876,0.05742133408784866
1782774922866442000,4.36144189453125,0.00733038317412138,-0.0757472887635231,0.04214970022439957
1782774922876430300,4.371430419921875,0.0024434609804302454,-0.054367005825042725,0.00855211354792118
1782774922886461700,4.381461669921875,0.004886921960860491,-0.031154127791523933,-0.036041051149368286
1782774922896419600,4.391419677734375,0.010995574295520782,-0.015271631069481373,-0.06475171446800232
1782774922906450700,4.40145068359375,0.006108652334660292,-0.025045474991202354,-0.06536258012056351
1782774922916439600,4.411439453125,-0.006719517521560192,-0.033597588539123535,-0.036651913076639175
1782774922926409200,4.4214091796875,-0.019547687843441963,-0.02626720629632473,0.001832595793530345
1782774922936480000,4.43147998046875,-0.028099801391363144,-0.028099801391363144,0.03176499158143997
1782774922946520800,4.441520751953125,-0.021380282938480377,-0.03481931984424591,0.04703662544488907
1782774922956417500,4.45141748046875,-0.00366519158706069,-0.028099801391363144,0.03848451003432274
1782774922966448600,4.46144873046875,0.02076941914856434,-0.012217304669320583,0.004886921960860491
1782774922976437200,4.471437255859375,0.03237585723400116,0.0024434609804302454,-0.014049900695681572
1782774922986468400,4.48146826171875,0.02687807008624077,0.006719517521560192,-0.02382374368607998
1782774922996426200,4.49142626953125,0.014049900695681572,0.0024434609804302454,-0.03848451003432274
1782774923006457300,4.501457275390625,-0.0012217304902151227,0.001832595793530345,-0.04764748737215996
1782774923016445700,4.51144580078125,-0.01771509274840355,-0.010995574295520782,-0.04459316283464432
1782774923026446300,4.5214462890625,-0.022602014243602753,-0.01771509274840355,-0.039706241339445114
1782774923036434700,4.5314345703125,-0.009162978269159794,-0.015882495790719986,-0.0354301854968071
1782774923046465800,4.5414658203125,0.01466076634824276,-0.009773843921720982,-0.028099801391363144
1782774923056423700,4.551423583984375,0.03848451003432274,0.0012217304902151227,-0.00855211354792118
1782774923066454800,4.561454833984375,0.05742133408784866,0.0024434609804302454,0.018325956538319588
1782774923076443400,4.571443359375,0.06841690838336945,0,0.04886921867728233
1782774923086443800,4.58144384765625,0.07208210229873657,-0.003054326167330146,0.07330382615327835
1782774923096432000,4.59143212890625,0.06902777403593063,0.0012217304902151227,0.09529497474431992
1782774923106463500,4.60146337890625,0.06475171446800232,0.00855211354792118,0.11239920556545258
1782774923116421000,4.611421142578125,0.05314527451992035,0.001832595793530345,0.12278391420841217
1782774923126452500,4.621452392578125,0.04642575979232788,-0.013439035043120384,0.11728613078594208
1782774923136440600,4.631440673828125,0.06291911751031876,-0.02076941914856434,0.09651670604944229
1782774923146441500,4.64144140625,0.08429940044879913,-0.02015855349600315,0.08491026610136032
1782774923156429800,4.651429931640625,0.09040805697441101,-0.01466076634824276,0.08796459436416626
1782774923166461000,4.6614609375,0.07941248267889023,-0.025656340643763542,0.08491026610136032
1782774923176418800,4.671418701171875,0.0708603709936142,-0.027488935738801956,0.06719517707824707
1782774923186450200,4.6814501953125,0.06291911751031876,-0.006719517521560192,0.04337143152952194
1782774923196438300,4.691438232421875,0.051312681287527084,0.012828170321881771,0.019547687843441963
1782774923206439200,4.701439208984375,0.04337143152952194,0.021991148591041565,0.005497787147760391
1782774923216427300,4.71142724609375,0.036651913076639175,0.028099801391363144,0.004886921960860491
1782774923226458400,4.721458251953125,0.02382374368607998,0.018936822190880775,0.012217304669320583
1782774923236447000,4.731447021484375,0.015882495790719986,-0.0006108652451075613,0.02015855349600315
1782774923246447400,4.741447265625,0.01710422709584236,-0.009773843921720982,0.01710422709584236
1782774923256436000,4.75143603515625,0.02321287989616394,0,0.0006108652451075613
1782774923266466800,4.761466796875,0.033597588539123535,0.01771509274840355,-0.01771509274840355
1782774923276424700,4.7714248046875,0.036041051149368286,0.02076941914856434,-0.029932396486401558
1782774923286456000,4.7814560546875,0.030543262138962746,0.010995574295520782,-0.025656340643763542
1782774923296444400,4.7914443359375,0.018936822190880775,0.00427605677396059,-0.006719517521560192
1782774923306444800,4.80144482421875,0.005497787147760391,0.0006108652451075613,0.01038470957428217
1782774923316433400,4.811433349609375,0.001832595793530345,0.00733038317412138,0.021991148591041565
1782774923326464800,4.82146484375,-0.003054326167330146,0.006719517521560192,0.033597588539123535
1782774923336422400,4.83142236328125,-0.005497787147760391,-0.00427605677396059,0.039095375686883926
1782774923346453800,4.841453857421875,-0.014049900695681572,-0.02687807008624077,0.042760565876960754
1782774923356442000,4.851442138671875,-0.02932153269648552,-0.05864306539297104,0.02321287989616394
1782774923366442800,4.86144287109375,-0.03787364438176155,-0.0555887371301651,-0.015882495790719986
1782774923376431000,4.87143115234375,-0.036651913076639175,-0.02321287989616394,-0.06291911751031876
1782774923386462200,4.881462158203125,-0.024434609338641167,-0.01160643994808197,-0.10506882518529892
1782774923396420000,4.891420166015625,-0.02321287989616394,-0.02932153269648552,-0.09834930300712585
1782774923406451000,4.901450927734375,-0.025656340643763542,-0.0555887371301651,-0.07391469180583954
1782774923416439600,4.911439453125,-0.022602014243602753,-0.07147123664617538,-0.05009094998240471
1782774923426440200,4.921440185546875,-0.029932396486401558,-0.06658431142568588,-0.033597588539123535
1782774923436428500,4.931428466796875,-0.03726277872920036,-0.05375614017248154,-0.02626720629632473
1782774923446459600,4.941459716796875,-0.04459316283464432,-0.0403171069920063,-0.02321287989616394
1782774923456417500,4.95141748046875,-0.05253441259264946,-0.03787364438176155,-0.02871066704392433
1782774923466448600,4.96144873046875,-0.036041051149368286,-0.025656340643763542,-0.04153883829712868
1782774923476437200,4.971437255859375,-0.015271631069481373,0.004886921960860491,-0.05375614017248154
1782774923486468400,4.98146826171875,-0.005497787147760391,0.018325956538319588,-0.06108652427792549
1782774923496426000,4.991426025390625,0.0006108652451075613,0.04337143152952194,-0.04764748737215996
1782774923506457300,5.001457275390625,0.0012217304902151227,0.04703662544488907,-0.012828170321881771
1782774923516445400,5.011445556640625,-0.00366519158706069,0.02382374368607998,0.0354301854968071
1782774923526446300,5.0214462890625,-0.013439035043120384,-0.00366519158706069,0.07391469180583954
1782774923536434700,5.0314345703125,-0.018325956538319588,-0.029932396486401558,0.0757472887635231
1782774923546465800,5.0414658203125,-0.006108652334660292,-0.015882495790719986,0.04337143152952194
1782774923556423700,5.051423583984375,0.009162978269159794,0.014049900695681572,-0.003054326167330146
1782774923566454800,5.061454833984375,0.016493361443281174,0.036041051149368286,-0.04214970022439957
1782774923576443100,5.071443115234375,0.018325956538319588,0.05375614017248154,-0.05375614017248154
1782774923586444000,5.081444091796875,0.010995574295520782,0.05803219974040985,-0.039706241339445114
1782774923596432100,5.09143212890625,0.0006108652451075613,0.04398229718208313,-0.009162978269159794
1782774923606463500,5.10146337890625,-0.01160643994808197,0.02871066704392433,0.018936822190880775
1782774923616421000,5.111421142578125,-0.02076941914856434,0.02382374368607998,0.028099801391363144
1782774923626452500,5.121452392578125,-0.015271631069481373,0.03481931984424591,0.028099801391363144
1782774923636440800,5.13144091796875,-0.012828170321881771,0.03726277872920036,0.031154127791523933
1782774923646441500,5.14144140625,-0.021991148591041565,0.01466076634824276,0.02321287989616394
1782774923656429800,5.151429931640625,-0.018936822190880775,0.006719517521560192,0.00427605677396059
1782774923666461000,5.1614609375,-0.014049900695681572,0.014049900695681572,-0.01771509274840355
1782774923676418800,5.171418701171875,-0.021380282938480377,0.013439035043120384,-0.02321287989616394
1782774923686450200,5.1814501953125,-0.031154127791523933,0.02076941914856434,-0.005497787147760391
1782774923696438000,5.19143798828125,-0.03726277872920036,0.014049900695681572,0.025045474991202354
1782774923706439200,5.201439208984375,-0.03298672288656235,0.00427605677396059,0.05192354694008827
1782774923716427300,5.21142724609375,-0.025045474991202354,0.00855211354792118,0.06841690838336945
1782774923726459000,5.221458984375,-0.019547687843441963,0.021991148591041565,0.06902777403593063
1782774923736447000,5.231447021484375,-0.01771509274840355,0.028099801391363144,0.06108652427792549
1782774923746447600,5.241447509765625,-0.01771509274840355,0.02015855349600315,0.05253441259264946
1782774923756436000,5.25143603515625,-0.02015855349600315,-0.001832595793530345,0.0403171069920063
1782774923766467000,5.261467041015625,-0.02626720629632473,-0.007941247895359993,0.021380282938480377
1782774923776425000,5.271425048828125,-0.02932153269648552,-0.0024434609804302454,-0.0012217304902151227
1782774923786456000,5.2814560546875,-0.0354301854968071,0,-0.019547687843441963
1782774923796444400,5.2914443359375,-0.039095375686883926,-0.009773843921720982,-0.03298672288656235
1782774923806445000,5.301445068359375,-0.045204028487205505,-0.02382374368607998,-0.042760565876960754
1782774923816432600,5.3114326171875,-0.0507018156349659,-0.00366519158706069,-0.04642575979232788
1782774923826464000,5.321464111328125,-0.042760565876960754,0.019547687843441963,-0.03420845419168472
1782774923836422000,5.331421875,-0.01710422709584236,0.02015855349600315,-0.015271631069481373
1782774923846453200,5.341453369140625,0.009773843921720982,0.007941247895359993,0.009773843921720982
1782774923856441300,5.35144140625,0.012828170321881771,-0.007941247895359993,0.031154127791523933
1782774923866442000,5.36144189453125,0.009162978269159794,-0.004886921960860491,0.03726277872920036
1782774923876430300,5.371430419921875,-0.0006108652451075613,0.0012217304902151227,0.030543262138962746
1782774923886461400,5.38146142578125,-0.01466076634824276,-0.007941247895359993,0.02321287989616394
1782774923896419600,5.391419677734375,-0.021991148591041565,-0.024434609338641167,0.00855211354792118
1782774923906450700,5.40145068359375,-0.015882495790719986,-0.01710422709584236,-0.00855211354792118
1782774923916439600,5.411439453125,-0.014049900695681572,0.003054326167330146,-0.019547687843441963
1782774923926440200,5.421440185546875,-0.019547687843441963,0.01160643994808197,-0.02321287989616394
1782774923936428500,5.431428466796875,-0.015882495790719986,0.025045474991202354,-0.015882495790719986
1782774923946459600,5.441459716796875,-0.01771509274840355,0.033597588539123535,0.0006108652451075613
1782774923956417500,5.45141748046875,-0.016493361443281174,0.030543262138962746,0.012217304669320583
1782774923966449000,5.461448974609375,-0.00733038317412138,0.03420845419168472,0.018325956538319588
1782774923976437200,5.471437255859375,0.0024434609804302454,0.025045474991202354,0.018936822190880775
1782774923986468600,5.481468505859375,0.00855211354792118,0.012828170321881771,0.01771509274840355
1782774923996426200,5.49142626953125,0.009773843921720982,0.009162978269159794,0.016493361443281174
1782774924006457300,5.501457275390625,0.009773843921720982,0.02076941914856434,0.010995574295520782
1782774924016445400,5.511445556640625,0.009162978269159794,0.03420845419168472,0.005497787147760391
1782774924026446000,5.521446044921875,0.015271631069481373,0.036041051149368286,0.001832595793530345
1782774924036434700,5.5314345703125,0.01710422709584236,0.02871066704392433,0.00855211354792118
1782774924046465800,5.5414658203125,0.022602014243602753,0.02321287989616394,0.012828170321881771
1782774924056423700,5.551423583984375,0.03420845419168472,0.03176499158143997,0.015271631069481373
1782774924066454800,5.561454833984375,0.036651913076639175,0.0403171069920063,0.024434609338641167
1782774924076443400,5.571443359375,0.02626720629632473,0.031154127791523933,0.04337143152952194
1782774924086443800,5.58144384765625,0.01771509274840355,0.02321287989616394,0.06230825558304787
1782774924096432000,5.59143212890625,0.01038470957428217,0.01710422709584236,0.07024950534105301
1782774924106463500,5.60146337890625,0.006108652334660292,0.00855211354792118,0.06352998316287994
1782774924116421000,5.611421142578125,0.007941247895359993,0.015271631069481373,0.04703662544488907
1782774924126452200,5.6214521484375,0.01771509274840355,0.02932153269648552,0.028099801391363144
1782774924136440800,5.63144091796875,0.027488935738801956,0.03176499158143997,0.018936822190880775
1782774924146441500,5.64144140625,0.015271631069481373,0.01038470957428217,0.025045474991202354
1782774924156429800,5.651429931640625,-0.00366519158706069,-0.00733038317412138,0.03848451003432274
1782774924166461000,5.6614609375,-0.013439035043120384,-0.013439035043120384,0.045204028487205505
1782774924176418800,5.671418701171875,-0.012828170321881771,-0.012828170321881771,0.04459316283464432
1782774924186450200,5.6814501953125,-0.00427605677396059,-0.009162978269159794,0.03420845419168472
1782774924196438300,5.691438232421875,0.00366519158706069,-0.00427605677396059,0.01466076634824276
1782774924206439200,5.701439208984375,0.015271631069481373,0.0006108652451075613,-0.006108652334660292
1782774924216427300,5.71142724609375,0.02321287989616394,0.00427605677396059,-0.016493361443281174
1782774924226458600,5.721458740234375,0.015882495790719986,-0.00427605677396059,-0.016493361443281174
1782774924236446700,5.73144677734375,0.012217304669320583,-0.009162978269159794,-0.02321287989616394
1782774924246447400,5.741447265625,0.019547687843441963,0.0006108652451075613,-0.02871066704392433
1782774924256436000,5.75143603515625,0.02321287989616394,-0.0012217304902151227,-0.031154127791523933
1782774924266467000,5.761467041015625,0.021380282938480377,-0.0012217304902151227,-0.02321287989616394
1782774924276425000,5.771425048828125,0.01710422709584236,0.012217304669320583,-0.00855211354792118
1782774924286456300,5.781456298828125,0.016493361443281174,0.02015855349600315,0.006108652334660292
1782774924296444400,5.7914443359375,0.029932396486401558,0.02871066704392433,0.021991148591041565
1782774924306445000,5.801445068359375,0.051312681287527084,0.02932153269648552,0.04764748737215996
1782774924316433400,5.811433349609375,0.06841690838336945,0.021380282938480377,0.08857546001672745
1782774924326465000,5.821465087890625,0.06841690838336945,-0.0006108652451075613,0.13805554807186127
1782774924336422400,5.83142236328125,0.05742133408784866,-0.01038470957428217,0.16982053220272064
1782774924346453500,5.84145361328125,0.04764748737215996,-0.00733038317412138,0.1716531366109848
1782774924356442000,5.851442138671875,0.039095375686883926,-0.0006108652451075613,0.14782938361167908
1782774924366442800,5.86144287109375,0.036651913076639175,0.010995574295520782,0.11301007121801376
1782774924376431000,5.87143115234375,0.03176499158143997,0.01466076634824276,0.07513642311096191
1782774924386462200,5.881462158203125,0.025045474991202354,0.009773843921720982,0.04153883829712868
1782774924396420000,5.891420166015625,0.02076941914856434,0.006108652334660292,0.014049900695681572
1782774924406451200,5.901451171875,0.012217304669320583,0.005497787147760391,-0.00366519158706069
1782774924416439600,5.911439453125,-0.0024434609804302454,0.00366519158706069,-0.01466076634824276
1782774924426440200,5.921440185546875,-0.01160643994808197,0.004886921960860491,-0.02015855349600315
1782774924436428500,5.931428466796875,-0.013439035043120384,0.012217304669320583,-0.02015855349600315
1782774924446459600,5.941459716796875,-0.014049900695681572,0.005497787147760391,-0.01466076634824276
1782774924456417500,5.95141748046875,-0.014049900695681572,-0.003054326167330146,-0.00855211354792118
1782774924466449000,5.961448974609375,-0.009162978269159794,0.00427605677396059,-0.005497787147760391
1782774924476437200,5.971437255859375,-0.01038470957428217,0.013439035043120384,0
1782774924486468400,5.98146826171875,-0.015271631069481373,0.015271631069481373,0.007941247895359993
1782774924496426200,5.99142626953125,-0.019547687843441963,0.016493361443281174,0.012217304669320583
1782774924506457600,6.00145751953125,-0.01710422709584236,0.01771509274840355,0.014049900695681572
1782774924516445700,6.01144580078125,-0.007941247895359993,0.019547687843441963,0.012217304669320583
1782774924526446300,6.0214462890625,0.00366519158706069,0.021380282938480377,0.012828170321881771
1782774924536434700,6.0314345703125,0.012828170321881771,0.01771509274840355,0.019547687843441963
1782774924546465800,6.0414658203125,0.018936822190880775,0.01160643994808197,0.02626720629632473
1782774924556423700,6.051423583984375,0.018325956538319588,0.006719517521560192,0.03848451003432274
1782774924566454800,6.061454833984375,0.016493361443281174,0.01038470957428217,0.05375614017248154
1782774924576443100,6.071443115234375,0.00427605677396059,-0.012217304669320583,0.05742133408784866
1782774924586443800,6.08144384765625,-0.0024434609804302454,-0.028099801391363144,0.036651913076639175
1782774924596432100,6.09143212890625,-0.01038470957428217,-0.028099801391363144,-0.013439035043120384
1782774924606463500,6.10146337890625,-0.01466076634824276,0.01038470957428217,-0.0659734457731247
1782774924616421000,6.111421142578125,-0.025045474991202354,0.03237585723400116,-0.09712757170200348
1782774924626452500,6.121452392578125,-0.03298672288656235,0.02626720629632473,-0.10323622822761536
1782774924636471000,6.131470947265625,-0.03420845419168472,0.009162978269159794,-0.09712757170200348
1782774924646441500,6.14144140625,-0.024434609338641167,-0.003054326167330146,-0.08857546001672745
1782774924656429800,6.151429931640625,-0.021380282938480377,0.004886921960860491,-0.07024950534105301
1782774924666461000,6.1614609375,-0.018325956538319588,0.0006108652451075613,-0.036041051149368286
1782774924676418800,6.171418701171875,-0.02015855349600315,0.01160643994808197,-0.005497787147760391
1782774924686450200,6.1814501953125,-0.028099801391363144,0.012828170321881771,0.021991148591041565
1782774924696438300,6.191438232421875,-0.02687807008624077,0.02321287989616394,0.04092797264456749
1782774924706439400,6.201439453125,-0.02382374368607998,0.03176499158143997,0.04948008432984352
1782774924716427300,6.21142724609375,-0.015271631069481373,0.024434609338641167,0.04948008432984352
1782774924726458600,6.221458740234375,-0.00366519158706069,0.02382374368607998,0.048258353024721146
1782774924736446700,6.23144677734375,0.0006108652451075613,0.02382374368607998,0.05009094998240471
1782774924746447600,6.241447509765625,-0.00855211354792118,0.018325956538319588,0.05375614017248154
1782774924756436000,6.25143603515625,-0.01710422709584236,0.018325956538319588,0.05314527451992035
1782774924766467000,6.261467041015625,-0.021380282938480377,0.02382374368607998,0.04459316283464432
1782774924776425000,6.271425048828125,-0.015882495790719986,0.03298672288656235,0.029932396486401558
1782774924786456000,6.2814560546875,-0.00366519158706069,0.039706241339445114,0.021380282938480377
1782774924796444400,6.2914443359375,-0.0024434609804302454,0.03420845419168472,0.025656340643763542
1782774924806445000,6.301445068359375,-0.009773843921720982,0.021991148591041565,0.03420845419168472
1782774924816432600,6.3114326171875,-0.01710422709584236,0.01771509274840355,0.030543262138962746
1782774924826464300,6.32146435546875,-0.025045474991202354,0.018325956538319588,0.009162978269159794
1782774924836422100,6.331422119140625,-0.022602014243602753,0.018325956538319588,-0.022602014243602753
1782774924846453200,6.341453369140625,-0.02321287989616394,0.019547687843441963,-0.04948008432984352
1782774924856441300,6.35144140625,-0.033597588539123535,0.01466076634824276,-0.07391469180583954
1782774924866442000,6.36144189453125,-0.0403171069920063,-0.00733038317412138,-0.10262536257505417
1782774924876430300,6.371430419921875,-0.029932396486401558,-0.027488935738801956,-0.1258382350206375
1782774924886461700,6.381461669921875,-0.00855211354792118,-0.033597588539123535,-0.13439035415649414
1782774924896419300,6.39141943359375,0.00427605677396059,-0.02015855349600315,-0.12095131725072861
1782774924906450700,6.40145068359375,0.00427605677396059,-0.001832595793530345,-0.09040805697441101
1782774924916439600,6.411439453125,0.009773843921720982,0.012217304669320583,-0.05009094998240471
1782774924926440200,6.421440185546875,0.01771509274840355,0.013439035043120384,0.0006108652451075613
1782774924936428500,6.431428466796875,0.019547687843441963,0.01160643994808197,0.0555887371301651
1782774924946460000,6.4414599609375,0.02015855349600315,0.0006108652451075613,0.08979719132184982
1782774924956417500,6.45141748046875,0.02932153269648552,0.014049900695681572,0.0959058403968811
1782774924966448600,6.46144873046875,0.033597588539123535,0.0354301854968071,0.08674286305904388
1782774924976437200,6.471437255859375,0.039095375686883926,0.030543262138962746,0.06719517707824707
1782774924986468400,6.48146826171875,0.05803219974040985,0.0354301854968071,0.05009094998240471
1782774924996426200,6.49142626953125,0.07513642311096191,0.03237585723400116,0.039706241339445114
1782774925006457300,6.501457275390625,0.08491026610136032,0.022602014243602753,0.0354301854968071
1782774925016445400,6.511445556640625,0.09162978827953339,0.015271631069481373,0.03726277872920036
1782774925026446300,6.5214462890625,0.08674286305904388,0.005497787147760391,0.045204028487205505
1782774925036434700,6.5314345703125,0.0708603709936142,0.004886921960860491,0.06108652427792549
1782774925046466000,6.541466064453125,0.05375614017248154,0.00366519158706069,0.07696902006864548
1782774925056423700,6.551423583984375,0.05192354694008827,0.005497787147760391,0.07941248267889023
1782774925066455000,6.561455078125,0.0659734457731247,0.009162978269159794,0.07269296050071716
1782774925076443400,6.571443359375,0.08185594528913498,0.009162978269159794,0.07269296050071716
1782774925086444000,6.581444091796875,0.09896016865968704,0.010995574295520782,0.09162978827953339
1782774925096432000,6.59143212890625,0.09468411654233932,0.015271631069481373,0.12278391420841217
1782774925106463500,6.60146337890625,0.06963863968849182,0.015882495790719986,0.152105450630188
1782774925116421000,6.611421142578125,0.04214970022439957,0.00855211354792118,0.15943582355976105
1782774925126452500,6.621452392578125,0.025656340643763542,-0.0012217304902151227,0.13866640627384186
1782774925136440800,6.63144091796875,0.022602014243602753,-0.00855211354792118,0.10262536257505417
1782774925146441200,6.641441162109375,0.024434609338641167,-0.01160643994808197,0.05375614017248154
1782774925156429800,6.651429931640625,0.022602014243602753,-0.001832595793530345,0.01160643994808197
1782774925166461000,6.6614609375,0.009162978269159794,0.009773843921720982,-0.01038470957428217
1782774925176418800,6.671418701171875,-0.016493361443281174,0.00366519158706069,-0.02015855349600315
1782774925186450200,6.6814501953125,-0.02932153269648552,0.0006108652451075613,-0.025656340643763542
1782774925196438000,6.69143798828125,-0.02687807008624077,0.009773843921720982,-0.02932153269648552
1782774925206438700,6.701438720703125,-0.015882495790719986,-0.00427605677396059,-0.029932396486401558
1782774925216427300,6.71142724609375,-0.0006108652451075613,-0.015271631069481373,-0.016493361443281174
1782774925226458400,6.721458251953125,0.0012217304902151227,-0.018936822190880775,0.004886921960860491
1782774925236447000,6.731447021484375,-0.005497787147760391,-0.012828170321881771,0.018936822190880775
1782774925246447600,6.741447509765625,-0.00733038317412138,0.0012217304902151227,0.02687807008624077
1782774925256436000,6.75143603515625,-0.004886921960860491,0.0024434609804302454,0.02687807008624077
1782774925266467000,6.761467041015625,0.004886921960860491,0.001832595793530345,0.025045474991202354
1782774925276425000,6.771425048828125,0.02015855349600315,0.00733038317412138,0.02076941914856434
1782774925286456000,6.7814560546875,0.031154127791523933,0.007941247895359993,0.019547687843441963
1782774925296444400,6.7914443359375,0.02626720629632473,-0.0012217304902151227,0.018936822190880775
1782774925306445000,6.801445068359375,0.009162978269159794,-0.005497787147760391,0.010995574295520782
1782774925316433400,6.811433349609375,-0.003054326167330146,-0.0012217304902151227,-0.00427605677396059
1782774925326464500,6.821464599609375,-0.009773843921720982,-0.00366519158706069,-0.021380282938480377
1782774925336422400,6.83142236328125,-0.00427605677396059,-0.005497787147760391,-0.03787364438176155
1782774925346453500,6.84145361328125,-0.001832595793530345,-0.006719517521560192,-0.04642575979232788
1782774925356442000,6.851442138671875,-0.006719517521560192,-0.02076941914856434,-0.0507018156349659
1782774925366442800,6.86144287109375,-0.007941247895359993,-0.012217304669320583,-0.045204028487205505
1782774925376431000,6.87143115234375,-0.010995574295520782,0.00366519158706069,-0.033597588539123535
1782774925386462200,6.881462158203125,-0.009773843921720982,0.00733038317412138,-0.015882495790719986
1782774925396420000,6.891420166015625,-0.006108652334660292,-0.00427605677396059,0.0006108652451075613
1782774925406451200,6.901451171875,-0.0024434609804302454,-0.00855211354792118,0.013439035043120384
1782774925416439600,6.911439453125,-0.00427605677396059,-0.006719517521560192,0.01710422709584236
1782774925426440200,6.921440185546875,-0.005497787147760391,-0.010995574295520782,0.012828170321881771
1782774925436428500,6.931428466796875,-0.006108652334660292,-0.018936822190880775,0.0024434609804302454
1782774925446459600,6.941459716796875,-0.01038470957428217,-0.02076941914856434,-0.010995574295520782
1782774925456417500,6.95141748046875,-0.015882495790719986,-0.012217304669320583,-0.030543262138962746
1782774925466448600,6.96144873046875,-0.009773843921720982,0.009162978269159794,-0.04703662544488907
1782774925476437200,6.971437255859375,-0.006108652334660292,0.015271631069481373,-0.04764748737215996
1782774925486468600,6.981468505859375,-0.005497787147760391,0.009162978269159794,-0.028099801391363144
1782774925496426200,6.99142626953125,-0.00855211354792118,0.006108652334660292,-0.001832595793530345
1782774925506457300,7.001457275390625,-0.009773843921720982,0.009162978269159794,0.016493361443281174
1782774925516445400,7.011445556640625,-0.012217304669320583,0.015882495790719986,0.031154127791523933
1782774925526446300,7.0214462890625,-0.021991148591041565,0.010995574295520782,0.03481931984424591
1782774925536434700,7.0314345703125,-0.03481931984424591,0.016493361443281174,0.029932396486401558
1782774925546466000,7.041466064453125,-0.04581489413976669,0.013439035043120384,0.010995574295520782
1782774925556423700,7.051423583984375,-0.051312681287527084,0.015882495790719986,-0.01771509274840355
1782774925566455000,7.061455078125,-0.04337143152952194,0.02626720629632473,-0.04764748737215996
1782774925576443100,7.071443115234375,-0.031154127791523933,0.03237585723400116,-0.06475171446800232
1782774925586443800,7.08144384765625,-0.025656340643763542,0.025656340643763542,-0.05192354694008827
1782774925596432100,7.09143212890625,-0.028099801391363144,0.00855211354792118,-0.021991148591041565
1782774925606463500,7.10146337890625,-0.03726277872920036,-0.012217304669320583,0.010995574295520782
1782774925616421000,7.111421142578125,-0.045204028487205505,-0.015271631069481373,0.031154127791523933
1782774925626452500,7.121452392578125,-0.04703662544488907,-0.001832595793530345,0.02871066704392433
1782774925636440800,7.13144091796875,-0.04703662544488907,0.007941247895359993,0.009162978269159794
1782774925646441500,7.14144140625,-0.04459316283464432,0.01466076634824276,-0.013439035043120384
1782774925656429800,7.151429931640625,-0.0354301854968071,0.021991148591041565,-0.02626720629632473
1782774925666461200,7.161461181640625,-0.02687807008624077,0.021380282938480377,-0.02015855349600315
1782774925676418800,7.171418701171875,-0.025656340643763542,0.012828170321881771,-0.0024434609804302454
1782774925686450200,7.1814501953125,-0.02871066704392433,-0.003054326167330146,0.018325956538319588
1782774925696438000,7.19143798828125,-0.03787364438176155,-0.010995574295520782,0.03420845419168472
1782774925706439000,7.20143896484375,-0.04153883829712868,-0.012828170321881771,0.036041051149368286
1782774925716427300,7.21142724609375,-0.039706241339445114,-0.010995574295520782,0.02382374368607998
1782774925726458600,7.221458740234375,-0.030543262138962746,-0.00366519158706069,0.0024434609804302454
1782774925736447000,7.231447021484375,-0.018325956538319588,0.0024434609804302454,-0.009773843921720982
1782774925746447600,7.241447509765625,-0.006719517521560192,-0.00366519158706069,-0.006108652334660292
1782774925756436000,7.25143603515625,-0.0006108652451075613,-0.013439035043120384,0.009773843921720982
1782774925766467000,7.261467041015625,0.001832595793530345,-0.025045474991202354,0.02382374368607998
1782774925776425000,7.271425048828125,0.0012217304902151227,-0.036041051149368286,0.02626720629632473
1782774925786456000,7.2814560546875,0.004886921960860491,-0.0403171069920063,0.01160643994808197
1782774925796444400,7.2914443359375,0.004886921960860491,-0.03176499158143997,-0.005497787147760391
1782774925806445000,7.301445068359375,-0.00733038317412138,-0.03787364438176155,-0.019547687843441963
1782774925816432600,7.3114326171875,-0.01771509274840355,-0.039706241339445114,-0.031154127791523933
1782774925826464300,7.32146435546875,-0.009773843921720982,-0.027488935738801956,-0.03787364438176155
1782774925836422100,7.331422119140625,0.004886921960860491,-0.01710422709584236,-0.039095375686883926
1782774925846453200,7.341453369140625,0.02015855349600315,-0.007941247895359993,-0.03237585723400116
1782774925856441300,7.35144140625,0.025045474991202354,-0.012828170321881771,-0.02015855349600315
1782774925866442000,7.36144189453125,0.01466076634824276,-0.02626720629632473,-0.016493361443281174
1782774925876430300,7.371430419921875,0.001832595793530345,-0.030543262138962746,-0.03481931984424591
1782774925886461400,7.38146142578125,-0.010995574295520782,-0.013439035043120384,-0.0757472887635231
1782774925896419300,7.39141943359375,-0.028099801391363144,-0.012828170321881771,-0.1411098688840866
1782774925906450700,7.40145068359375,-0.02932153269648552,-0.00855211354792118,-0.2028072625398636
1782774925916439600,7.411439453125,-0.027488935738801956,-0.02626720629632473,-0.2590068578720093
1782774925926440200,7.421440185546875,-0.025045474991202354,-0.021991148591041565,-0.29077184200286865
1782774925936428500,7.431428466796875,-0.0354301854968071,-0.031154127791523933,-0.2968805134296417
1782774925946459600,7.441459716796875,-0.05314527451992035,-0.027488935738801956,-0.2883284091949463
1782774925956417500,7.45141748046875,-0.06475171446800232,-0.004886921960860491,-0.2669481039047241
1782774925966448600,7.46144873046875,-0.056810468435287476,-0.02076941914856434,-0.2431243658065796
1782774925976437200,7.471437255859375,-0.0354301854968071,-0.028099801391363144,-0.2064724564552307
1782774925986468400,7.48146826171875,-0.006719517521560192,-0.0354301854968071,-0.16432274878025055
1782774925996426200,7.49142626953125,0.01710422709584236,-0.03726277872920036,-0.11972958594560623
1782774926006457300,7.501457275390625,0.00733038317412138,-0.028099801391363144,-0.07941248267889023
1782774926016445400,7.511445556640625,-0.0024434609804302454,-0.009773843921720982,-0.04581489413976669
1782774926026446000,7.521446044921875,-0.003054326167330146,0.018325956538319588,-0.01771509274840355
1782774926036434700,7.5314345703125,-0.00427605677396059,0.001832595793530345,0.018325956538319588
1782774926046465800,7.5414658203125,-0.005497787147760391,-0.031154127791523933,0.05009094998240471
1782774926056423700,7.551423583984375,-0.003054326167330146,-0.04214970022439957,0.06230825558304787
1782774926066455000,7.561455078125,-0.001832595793530345,-0.0354301854968071,0.04886921867728233
1782774926076443100,7.571443115234375,-0.001832595793530345,-0.01466076634824276,0.027488935738801956
1782774926086443800,7.58144384765625,-0.013439035043120384,-0.019547687843441963,0.006108652334660292
1782774926096432000,7.59143212890625,-0.025045474991202354,-0.021380282938480377,-0.009162978269159794
1782774926106463500,7.60146337890625,-0.025656340643763542,-0.006108652334660292,-0.012828170321881771
1782774926116421000,7.611421142578125,-0.029932396486401558,-0.00733038317412138,-0.012217304669320583
1782774926126452200,7.6214521484375,-0.02871066704392433,-0.00855211354792118,0.004886921960860491
1782774926136440800,7.63144091796875,-0.02626720629632473,-0.009773843921720982,0.031154127791523933
1782774926146441500,7.64144140625,-0.02321287989616394,-0.0024434609804302454,0.05742133408784866
1782774926156429800,7.651429931640625,-0.01771509274840355,0.006108652334660292,0.06902777403593063
1782774926166461000,7.6614609375,-0.00733038317412138,0.01771509274840355,0.06841690838336945
1782774926176418800,7.671418701171875,0.0012217304902151227,0.016493361443281174,0.07391469180583954
1782774926186450200,7.6814501953125,0.003054326167330146,0.0024434609804302454,0.08796459436416626
1782774926196438300,7.691438232421875,0.00427605677396059,-0.00733038317412138,0.09896016865968704
1782774926206439000,7.70143896484375,-0.004886921960860491,-0.009162978269159794,0.09407325088977814
1782774926216427300,7.71142724609375,-0.009773843921720982,0.003054326167330146,0.07757988572120667
1782774926226458600,7.721458740234375,-0.012828170321881771,0.006108652334660292,0.05864306539297104
1782774926236447000,7.731447021484375,-0.009773843921720982,-0.00427605677396059,0.036041051149368286
1782774926246447600,7.741447509765625,0.006719517521560192,-0.010995574295520782,0.012828170321881771
1782774926256436000,7.75143603515625,0.01466076634824276,-0.00855211354792118,-0.00366519158706069
1782774926266467000,7.761467041015625,-0.007941247895359993,-0.006719517521560192,-0.012828170321881771
1782774926276425000,7.771425048828125,-0.042760565876960754,0.005497787147760391,-0.02382374368607998
1782774926286456000,7.7814560546875,-0.05864306539297104,0.029932396486401558,-0.03420845419168472
1782774926296444400,7.7914443359375,-0.06108652427792549,0.036651913076639175,-0.04153883829712868
1782774926306444800,7.80144482421875,-0.05375614017248154,0.025656340643763542,-0.04092797264456749
1782774926316433400,7.811433349609375,-0.031154127791523933,0.02382374368607998,-0.0354301854968071
1782774926326464500,7.821464599609375,-0.01466076634824276,0.04398229718208313,-0.018936822190880775
1782774926336422700,7.831422607421875,-0.02015855349600315,0.059864792972803116,0.003054326167330146
1782774926346453800,7.841453857421875,-0.028099801391363144,0.05314527451992035,0.018325956538319588
1782774926356442000,7.851442138671875,-0.03237585723400116,0.048258353024721146,0.03420845419168472
1782774926366442500,7.8614423828125,-0.031154127791523933,0.04948008432984352,0.04886921867728233
1782774926376431000,7.87143115234375,-0.025045474991202354,0.05375614017248154,0.0403171069920063
1782774926386462000,7.8814619140625,-0.014049900695681572,0.06780604273080826,0.03237585723400116
1782774926396420000,7.891420166015625,-0.018325956538319588,0.059864792972803116,0.030543262138962746
1782774926406451200,7.901451171875,-0.03176499158143997,0.03481931984424591,0.02687807008624077
1782774926416439600,7.911439453125,-0.030543262138962746,0.025656340643763542,0.006108652334660292
1782774926426440200,7.921440185546875,-0.015882495790719986,0.03787364438176155,-0.024434609338641167
1782774926436428500,7.931428466796875,-0.004886921960860491,0.04581489413976669,-0.04948008432984352
1782774926446459600,7.941459716796875,-0.001832595793530345,0.04581489413976669,-0.05375614017248154
1782774926456417500,7.95141748046875,-0.0024434609804302454,0.036041051149368286,-0.036651913076639175
1782774926466448600,7.96144873046875,-0.006719517521560192,0.025656340643763542,-0.005497787147760391
1782774926476437000,7.97143701171875,-0.01466076634824276,0.02871066704392433,0.018936822190880775
1782774926486468400,7.98146826171875,-0.01771509274840355,0.042760565876960754,0.030543262138962746
1782774926496426000,7.991426025390625,-0.01771509274840355,0.04764748737215996,0.025045474991202354
1782774926506457300,8.001457275390624,-0.00855211354792118,0.06230825558304787,0.00855211354792118
1782774926516445700,8.01144580078125,0.001832595793530345,0.06658431142568588,-0.00733038317412138
1782774926526446000,8.021446044921875,0.00733038317412138,0.05803219974040985,-0.01710422709584236
1782774926536434700,8.0314345703125,0.007941247895359993,0.05619960278272629,-0.016493361443281174
1782774926546465800,8.0414658203125,0,0.04948008432984352,-0.01771509274840355
1782774926556423700,8.051423583984375,-0.00427605677396059,0.048258353024721146,-0.02687807008624077
1782774926566455000,8.061455078125,-0.018936822190880775,0.054367005825042725,-0.04948008432984352
1782774926576443100,8.071443115234375,-0.02687807008624077,0.06536258012056351,-0.07147123664617538
1782774926586444000,8.081444091796875,-0.02687807008624077,0.07513642311096191,-0.0861319974064827
1782774926596432100,8.09143212890625,-0.018936822190880775,0.08124507963657379,-0.0861319974064827
1782774926606463500,8.10146337890625,-0.007941247895359993,0.06230825558304787,-0.0708603709936142
1782774926616421000,8.111421142578125,0.006719517521560192,0.048258353024721146,-0.05742133408784866
1782774926626452200,8.1214521484375,0.025656340643763542,0.05619960278272629,-0.04581489413976669
1782774926636471000,8.131470947265624,0.02932153269648552,0.059864792972803116,-0.04337143152952194
1782774926646441500,8.14144140625,0.03237585723400116,0.0659734457731247,-0.03848451003432274
1782774926656429800,8.151429931640624,0.029932396486401558,0.05742133408784866,-0.021991148591041565
1782774926666461000,8.1614609375,0.015271631069481373,0.03787364438176155,-0.003054326167330146
1782774926676418800,8.171418701171875,0.004886921960860491,0.03420845419168472,-0.0006108652451075613
1782774926686450200,8.1814501953125,-0.0012217304902151227,0.025045474991202354,-0.03298672288656235
1782774926696438300,8.191438232421875,-0.0006108652451075613,0.02626720629632473,-0.07880161702632904
1782774926706439000,8.20143896484375,-0.00733038317412138,0.024434609338641167,-0.10567969083786011
1782774926716427300,8.21142724609375,-0.012217304669320583,0.006719517521560192,-0.10934487730264664
1782774926726458600,8.221458740234375,-0.001832595793530345,-0.00366519158706069,-0.10812314599752426
1782774926736447000,8.231447021484374,0.014049900695681572,0.004886921960860491,-0.1007927656173706
1782774926746447600,8.241447509765624,0.024434609338641167,0,-0.09285151958465576
1782774926756436000,8.25143603515625,0.02871066704392433,-0.014049900695681572,-0.08002334833145142
1782774926766467000,8.261467041015624,0.03481931984424591,-0.009773843921720982,-0.06475171446800232
1782774926776425000,8.271425048828124,0.01710422709584236,-0.00733038317412138,-0.05742133408784866
1782774926786456000,8.2814560546875,-0.019547687843441963,0.010995574295520782,-0.07330382615327835
1782774926796444400,8.2914443359375,-0.03237585723400116,0.02626720629632473,-0.10445795953273773
1782774926806445300,8.3014453125,-0.039095375686883926,0.03420845419168472,-0.13866640627384186
1782774926816432600,8.3114326171875,-0.028099801391363144,0.039095375686883926,-0.16554448008537292
1782774926826464000,8.321464111328124,-0.02687807008624077,0.039095375686883926,-0.18325957655906677
1782774926836422100,8.331422119140624,-0.021380282938480377,0.02687807008624077,-0.18387043476104736
1782774926846453200,8.341453369140625,-0.021991148591041565,0.012828170321881771,-0.17348572611808777
1782774926856441300,8.35144140625,-0.022602014243602753,0.022602014243602753,-0.16371189057826996
1782774926866442200,8.361442138671874,-0.02871066704392433,0.0403171069920063,-0.1563815027475357
1782774926876430300,8.371430419921875,-0.028099801391363144,0.05192354694008827,-0.14966198801994324
1782774926886461400,8.38146142578125,-0.01038470957428217,0.08124507963657379,-0.13500121235847473
1782774926896419300,8.39141943359375,-0.0024434609804302454,0.09712757170200348,-0.10934487730264664
1782774926906450700,8.40145068359375,0.012828170321881771,0.08429940044879913,-0.07757988572120667
1782774926916439600,8.411439453125,0.02321287989616394,0.06963863968849182,-0.0403171069920063
1782774926926440200,8.421440185546874,0.015882495790719986,0.08429940044879913,0.05803219974040985
1782774926936428500,8.431428466796875,0.04337143152952194,-0.04642575979232788,0.09529497474431992
1782774926946459600,8.441459716796874,0.04764748737215996,-0.025656340643763542,0.1270599663257599
1782774926956417500,8.45141748046875,0.016493361443281174,-0.004886921960860491,0.10384709388017654
1782774926966448600,8.46144873046875,-0.00733038317412138,0.022602014243602753,0.03787364438176155
1782774926976437200,8.471437255859374,-0.01160643994808197,0.05314527451992035,-0.029932396486401558
1782774926986468000,8.481468017578125,-0.003054326167330146,0.031154127791523933,-0.08857546001672745
1782774926996426200,8.49142626953125,0.00366519158706069,-0.005497787147760391,-0.13377949595451355
1782774927006457300,8.501457275390624,-0.007941247895359993,-0.03176499158143997,-0.17592918872833252
1782774927016445400,8.511445556640625,-0.024434609338641167,-0.02626720629632473,-0.21991148591041565
1782774927026446000,8.521446044921875,-0.05619960278272629,0.0012217304902151227,-0.25534167885780334
1782774927036434700,8.5314345703125,-0.0806342139840126,-0.007941247895359993,-0.2687807083129883
1782774927046465800,8.5414658203125,-0.07269296050071716,-0.08124507963657379,-0.2571742534637451
1782774927056423700,8.551423583984375,-0.03848451003432274,-0.1319468915462494,-0.22296582162380219
1782774927066454800,8.561454833984374,-0.021380282938480377,-0.14233160018920898,-0.20952677726745605
1782774927076443400,8.571443359375,-0.04703662544488907,-0.10934487730264664,-0.22418753802776337
1782774927086445800,8.58144580078125,-0.08735372871160507,-0.06780604273080826,-0.2376265823841095
1782774927096432000,8.59143212890625,-0.11056660860776901,-0.0403171069920063,-0.20952677726745605
1782774927106465500,8.601465576171876,-0.12278391420841217,-0.03726277872920036,-0.13561208546161652
1782774927116421000,8.611421142578125,-0.11239920556545258,-0.04886921867728233,-0.06658431142568588
1782774927126454800,8.621454833984375,-0.0708603709936142,-0.056810468435287476,-0.03176499158143997
1782774927136440800,8.63144091796875,-0.02076941914856434,-0.05864306539297104,-0.021991148591041565
1782774927146410500,8.641410400390624,0.016493361443281174,-0.03848451003432274,-0.012828170321881771
1782774927156490800,8.65149072265625,0.02076941914856434,-0.018325956538319588,0.003054326167330146
1782774927166461000,8.6614609375,0.009773843921720982,-0.01466076634824276,0.014049900695681572
1782774927176418800,8.671418701171875,0.015882495790719986,-0.019547687843441963,0.010995574295520782
1782774927186450000,8.681449951171874,0.013439035043120384,-0.02382374368607998,-0.003054326167330146
1782774927196438300,8.691438232421875,0.001832595793530345,-0.02321287989616394,-0.024434609338641167
1782774927206439000,8.70143896484375,-0.001832595793530345,0.00733038317412138,-0.04398229718208313
1782774927216427300,8.71142724609375,-0.0006108652451075613,0.04642575979232788,-0.0507018156349659
1782774927226458600,8.721458740234375,0.015882495790719986,0.039095375686883926,-0.04092797264456749
1782774927236447000,8.731447021484374,0.03848451003432274,0.01466076634824276,-0.01771509274840355
1782774927246449700,8.74144970703125,0.05497787147760391,-0.009162978269159794,0.012828170321881771
1782774927256436000,8.75143603515625,0.06414084881544113,-0.016493361443281174,0.0403171069920063
1782774927266467000,8.761467041015624,0.05742133408784866,-0.022602014243602753,0.060475658625364304
1782774927276425000,8.771425048828124,0.030543262138962746,-0.015271631069481373,0.06414084881544113
1782774927286456000,8.7814560546875,0.01038470957428217,-0.012217304669320583,0.04703662544488907
1782774927296444400,8.7914443359375,0.0012217304902151227,-0.015882495790719986,0.030543262138962746
1782774927306444800,8.80144482421875,0.009773843921720982,-0.02015855349600315,0.016493361443281174
1782774927316433400,8.811433349609375,0.02076941914856434,-0.02382374368607998,-0.006719517521560192
1782774927326464800,8.82146484375,0.030543262138962746,-0.007941247895359993,-0.03848451003432274
1782774927336422400,8.83142236328125,0.02932153269648552,0.0024434609804302454,-0.06108652427792549
1782774927346455800,8.841455810546876,0.02687807008624077,0.009162978269159794,-0.056810468435287476
1782774927356442000,8.851442138671874,0.021991148591041565,0.012828170321881771,-0.01710422709584236
1782774927366442800,8.86144287109375,0.010995574295520782,-0.018325956538319588,0.03176499158143997
1782774927376431000,8.87143115234375,-0.00366519158706069,-0.0555887371301651,0.07391469180583954
1782774927386462000,8.8814619140625,-0.012217304669320583,-0.05742133408784866,0.08124507963657379
1782774927396420000,8.891420166015624,-0.0024434609804302454,-0.027488935738801956,0.04886921867728233
1782774927406451000,8.901450927734375,0.014049900695681572,-0.005497787147760391,0.00427605677396059
1782774927416439600,8.911439453125,0.02687807008624077,-0.01038470957428217,-0.021991148591041565
1782774927426440000,8.92143994140625,0.033597588539123535,-0.029932396486401558,-0.03298672288656235
1782774927436428500,8.931428466796875,0.02932153269648552,-0.028099801391363144,-0.03298672288656235
1782774927446459600,8.941459716796874,0.009773843921720982,-0.010995574295520782,-0.02321287989616394
1782774927456417500,8.95141748046875,-0.015271631069481373,-0.00855211354792118,-0.01160643994808197
1782774927466448600,8.96144873046875,-0.016493361443281174,0.00366519158706069,-0.00427605677396059
1782774927476437200,8.971437255859374,-0.006108652334660292,-0.00366519158706069,0
1782774927486468000,8.981468017578125,0.006719517521560192,-0.025656340643763542,-0.0006108652451075613
1782774927496426000,8.991426025390625,0.01466076634824276,-0.02626720629632473,-0.014049900695681572
1782774927506457300,9.001457275390624,0.01710422709584236,-0.01466076634824276,-0.03726277872920036
1782774927516445400,9.011445556640625,0.016493361443281174,-0.01710422709584236,-0.05253441259264946
1782774927526446300,9.0214462890625,0.013439035043120384,-0.039706241339445114,-0.060475658625364304
1782774927536434700,9.0314345703125,0.01160643994808197,-0.05864306539297104,-0.05375614017248154
1782774927546465800,9.0414658203125,0.001832595793530345,-0.07024950534105301,-0.04886921867728233
1782774927556423700,9.051423583984375,-0.014049900695681572,-0.06902777403593063,-0.04642575979232788
1782774927566454800,9.061454833984374,-0.02321287989616394,-0.06414084881544113,-0.04337143152952194
1782774927576443100,9.071443115234375,-0.019547687843441963,-0.05497787147760391,-0.039706241339445114
1782774927586444000,9.081444091796875,-0.01710422709584236,-0.04459316283464432,-0.03420845419168472
1782774927596432100,9.09143212890625,-0.016493361443281174,-0.036651913076639175,-0.039095375686883926
1782774927606463000,9.101462890625,-0.00427605677396059,-0.006108652334660292,-0.048258353024721146
1782774927616421000,9.111421142578125,0.00855211354792118,0.015882495790719986,-0.05375614017248154
1782774927626452200,9.1214521484375,0.009773843921720982,0.003054326167330146,-0.051312681287527084
1782774927636440800,9.13144091796875,-0.010995574295520782,-0.02015855349600315,-0.048258353024721146
1782774927646441500,9.14144140625,-0.022602014243602753,-0.02932153269648552,-0.06414084881544113
1782774927656429800,9.151429931640624,-0.015882495790719986,0.001832595793530345,-0.08674286305904388
1782774927666463000,9.161462890625,-0.006108652334660292,0.003054326167330146,-0.1062905490398407
1782774927676418800,9.171418701171875,0.021380282938480377,-0.0012217304902151227,-0.10323622822761536
1782774927686452200,9.1814521484375,0.04153883829712868,0.003054326167330146,-0.0806342139840126
1782774927696438300,9.191438232421875,0.05253441259264946,0.01038470957428217,-0.04703662544488907
1782774927706441200,9.201441162109376,0.0507018156349659,0.02871066704392433,-0.012828170321881771
1782774927716427300,9.21142724609375,0.039706241339445114,0.09407325088977814,0.08307767659425735
1782774927726460700,9.221460693359376,0.05375614017248154,-0.001832595793530345,0.1313360333442688
1782774927736446700,9.23144677734375,0.06536258012056351,-0.010995574295520782,0.14538592100143433
1782774927746447400,9.241447265625,0.0507018156349659,0.018325956538319588,0.10812314599752426
1782774927756436000,9.25143603515625,0.036651913076639175,0.045204028487205505,0.04642575979232788
1782774927766467300,9.26146728515625,0.03298672288656235,0.04642575979232788,-0.001832595793530345
1782774927776425000,9.271425048828124,0.02076941914856434,-0.018936822190880775,-0.027488935738801956
1782774927786455800,9.281455810546875,0.00733038317412138,-0.09224065393209457,-0.039095375686883926
1782774927796444400,9.2914443359375,0.004886921960860491,-0.08979719132184982,-0.027488935738801956
1782774927806445000,9.301445068359374,-0.00366519158706069,-0.06902777403593063,-0.001832595793530345
