time,seconds_elapsed,z,y,x
1782774751706396000,0.18739599609375,-0.051312681287527084,-0.0354301854968071,0.6017022728919983
1782774751716889600,0.1978896484375,-0.07452555745840073,-0.04153883829712868,0.4954117238521576
1782774751726921000,0.2079208984375,-0.07941248267889023,-0.07635815441608429,0.35735616087913513
1782774751736909000,0.217908935546875,-0.03726277872920036,-0.07269296050071716,0.20402899384498596
1782774751746909700,0.22790966796875,0.018936822190880775,0.01710422709584236,0.0024434609804302454
1782774751756898300,0.237898193359375,0.036651913076639175,0.030543262138962746,-0.08552113175392151
1782774751766929200,0.24792919921875,0.031154127791523933,-0.022602014243602753,-0.14538592100143433
1782774751776887000,0.257886962890625,0.02932153269648552,-0.09957103431224823,-0.19914206862449646
1782774751786918400,0.26791845703125,0.039095375686883926,-0.1667662113904953,-0.2480112910270691
1782774751796906800,0.27790673828125,0.06475171446800232,-0.20402899384498596,-0.28955012559890747
1782774751806907400,0.287907470703125,0.06963863968849182,-0.2076941877603531,-0.32131510972976685
1782774751816894700,0.297894775390625,-0.0024434609804302454,-0.19058994948863983,-0.33719760179519653
1782774751826925600,0.307925537109375,-0.09162978827953339,-0.1667662113904953,-0.34636059403419495
1782774751836884000,0.317884033203125,-0.14538592100143433,-0.06169738993048668,-0.34636059403419495
1782774751846917600,0.327917724609375,-0.1466076523065567,0,-0.33658674359321594
1782774751856903700,0.337903564453125,-0.11850785464048386,-0.005497787147760391,-0.2993239760398865
1782774751866906400,0.34790625,-0.08918632566928864,-0.03848451003432274,-0.23273965716362
1782774751876892700,0.357892578125,-0.05253441259264946,-0.07452555745840073,-0.15821409225463867
1782774751886925800,0.36792578125,-0.012828170321881771,-0.07147123664617538,-0.0806342139840126
1782774751896881700,0.377881591796875,-0.012217304669320583,-0.056810468435287476,-0.00855211354792118
1782774751906915000,0.3879150390625,-0.03298672288656235,-0.0659734457731247,0.04153883829712868
1782774751916902000,0.39790185546875,-0.04886921867728233,-0.04398229718208313,0.06963863968849182
1782774751926902500,0.407902587890625,-0.07452555745840073,-0.022602014243602753,0.06658431142568588
1782774751936890600,0.417890625,-0.08735372871160507,-0.013439035043120384,0.03420845419168472
1782774751946922000,0.427921875,-0.09162978827953339,0.021380282938480377,-0.006719517521560192
1782774751956910300,0.437910400390625,-0.09162978827953339,0.03787364438176155,-0.048258353024721146
1782774751966911200,0.4479111328125,-0.08124507963657379,0.025045474991202354,-0.0806342139840126
1782774751976899300,0.4578994140625,-0.07208210229873657,0.007941247895359993,-0.1007927656173706
1782774751986930400,0.467930419921875,-0.07452555745840073,-0.03176499158143997,-0.11850785464048386
1782774751996888300,0.477888427734375,-0.0708603709936142,-0.05192354694008827,-0.13927727937698364
1782774752006921500,0.48792138671875,-0.06230825558304787,-0.03726277872920036,-0.14355333149433136
1782774752016907800,0.49790771484375,-0.06352998316287994,-0.015271631069481373,-0.12767083942890167
1782774752026910700,0.50791064453125,-0.06841690838336945,-0.005497787147760391,-0.1007927656173706
1782774752036897000,0.51789697265625,-0.06475171446800232,-0.005497787147760391,-0.07696902006864548
1782774752046930200,0.52793017578125,-0.05009094998240471,-0.018936822190880775,-0.054367005825042725
1782774752056886000,0.537885986328125,-0.03848451003432274,-0.02932153269648552,-0.03481931984424591
1782774752066919200,0.547919189453125,-0.03237585723400116,-0.025045474991202354,-0.021380282938480377
1782774752076905200,0.5579052734375,-0.03237585723400116,-0.009773843921720982,-0.013439035043120384
1782774752086908200,0.567908203125,-0.03237585723400116,-0.0006108652451075613,-0.006719517521560192
1782774752096894500,0.57789453125,-0.02626720629632473,0.009773843921720982,0.0012217304902151227
1782774752106927600,0.587927734375,-0.016493361443281174,0.009773843921720982,0.01160643994808197
1782774752116883700,0.5978837890625,-0.012828170321881771,0.01038470957428217,0.01771509274840355
1782774752126916600,0.60791650390625,-0.018936822190880775,0.022602014243602753,0.005497787147760391
1782774752136903200,0.617903076171875,-0.024434609338641167,0.0354301854968071,-0.02076941914856434
1782774752146905900,0.62790576171875,-0.03726277872920036,0.04703662544488907,-0.04459316283464432
1782774752156892200,0.63789208984375,-0.04214970022439957,0.04703662544488907,-0.06536258012056351
1782774752166925300,0.64792529296875,-0.021380282938480377,0.054367005825042725,-0.07941248267889023
1782774752176881000,0.657880859375,-0.0012217304902151227,0.04764748737215996,-0.0708603709936142
1782774752186914300,0.667914306640625,0.01466076634824276,0.03481931984424591,-0.05192354694008827
1782774752196900600,0.677900634765625,0.024434609338641167,0.04398229718208313,-0.02382374368607998
1782774752206933800,0.687933837890625,0.02015855349600315,0.06719517707824707,0.009162978269159794
1782774752216889600,0.6978896484375,0.00855211354792118,0.07635815441608429,0.03237585723400116
1782774752226922800,0.7079228515625,0.009162978269159794,0.08246681094169617,0.04459316283464432
1782774752236909000,0.717908935546875,0.021991148591041565,0.08979719132184982,0.048258353024721146
1782774752246909700,0.72790966796875,0.029932396486401558,0.07696902006864548,0.042760565876960754
1782774752256898000,0.73789794921875,0.031154127791523933,0.06108652427792549,0.02321287989616394
1782774752266929200,0.74792919921875,0.018325956538319588,0.04337143152952194,0.0006108652451075613
1782774752276887000,0.757886962890625,0.00733038317412138,0.015882495790719986,-0.025656340643763542
1782774752286918100,0.767918212890625,-0.0012217304902151227,0.00366519158706069,-0.0507018156349659
1782774752296906500,0.777906494140625,-0.00733038317412138,-0.0012217304902151227,-0.07819075137376785
1782774752306909200,0.7879091796875,-0.010995574295520782,-0.015271631069481373,-0.09651670604944229
1782774752316895700,0.797895751953125,-0.010995574295520782,-0.018936822190880775,-0.10751228034496307
1782774752326929000,0.807928955078125,-0.016493361443281174,-0.016493361443281174,-0.1007927656173706
1782774752336884500,0.817884521484375,-0.029932396486401558,-0.013439035043120384,-0.08124507963657379
1782774752346918000,0.82791796875,-0.04214970022439957,-0.012828170321881771,-0.05253441259264946
1782774752356904200,0.837904296875,-0.04703662544488907,-0.021380282938480377,-0.027488935738801956
1782774752366907000,0.847906982421875,-0.036651913076639175,-0.02932153269648552,-0.015882495790719986
1782774752376893200,0.85789306640625,-0.02382374368607998,-0.04398229718208313,-0.02076941914856434
1782774752386926600,0.867926513671875,-0.012217304669320583,-0.0555887371301651,-0.03787364438176155
1782774752396882200,0.877882080078125,-0.01038470957428217,-0.048258353024721146,-0.05619960278272629
1782774752406915300,0.887915283203125,-0.022602014243602753,-0.042760565876960754,-0.06963863968849182
1782774752416902000,0.89790185546875,-0.03787364438176155,-0.036651913076639175,-0.07757988572120667
1782774752426904600,0.907904541015625,-0.04398229718208313,-0.012828170321881771,-0.07330382615327835
1782774752436890600,0.917890625,-0.039095375686883926,-0.0006108652451075613,-0.06475171446800232
1782774752446924000,0.927924072265625,-0.02321287989616394,-0.01771509274840355,-0.05314527451992035
1782774752456910000,0.93791015625,0.0024434609804302454,-0.021991148591041565,-0.039706241339445114
1782774752466913000,0.9479130859375,0.012828170321881771,-0.021991148591041565,-0.01160643994808197
1782774752476899300,0.9578994140625,-0.0024434609804302454,-0.021991148591041565,0.02015855349600315
1782774752486932500,0.967932373046875,-0.02626720629632473,-0.01160643994808197,0.036651913076639175
1782774752496888300,0.977888427734375,-0.02932153269648552,0.01771509274840355,0.03237585723400116
1782774752506919700,0.987919677734375,-0.00855211354792118,0.028099801391363144,0.01710422709584236
1782774752516908000,0.997907958984375,0.019547687843441963,0.015882495790719986,0
1782774752526908700,1.00790869140625,0.04337143152952194,0.0006108652451075613,-0.015882495790719986
1782774752536896800,1.017896728515625,0.0403171069920063,-0.01160643994808197,-0.029932396486401558
1782774752546928000,1.02792822265625,0.024434609338641167,-0.00733038317412138,-0.042760565876960754
1782774752556886000,1.037885986328125,0.00427605677396059,0.009162978269159794,-0.05009094998240471
1782774752566916900,1.047916748046875,-0.01038470957428217,0.014049900695681572,-0.04703662544488907
1782774752576905500,1.057905517578125,-0.028099801391363144,0.001832595793530345,-0.04337143152952194
1782774752586906000,1.067906005859375,-0.030543262138962746,-0.009162978269159794,-0.05375614017248154
1782774752596894500,1.07789453125,-0.015271631069481373,0.00366519158706069,-0.08368854224681854
1782774752606927600,1.087927734375,-0.015271631069481373,0,-0.11178833991289139
1782774752616883500,1.097883544921875,-0.018936822190880775,0.0024434609804302454,-0.13255776464939117
1782774752626916900,1.107916748046875,-0.024434609338641167,0.00366519158706069,-0.1368338167667389
1782774752636933000,1.11793310546875,-0.025045474991202354,-0.00855211354792118,-0.12034045159816742
1782774752646905600,1.127905517578125,-0.021991148591041565,-0.016493361443281174,-0.08429940044879913
1782774752656892200,1.13789208984375,-0.022602014243602753,-0.012217304669320583,-0.039706241339445114
1782774752666925300,1.14792529296875,-0.016493361443281174,-0.007941247895359993,0.004886921960860491
1782774752676881000,1.157880859375,-0.02382374368607998,0.009162978269159794,0.04092797264456749
1782774752686914600,1.16791455078125,-0.025045474991202354,0.02626720629632473,0.05803219974040985
1782774752696900600,1.177900634765625,-0.01466076634824276,0.04642575979232788,0.05925392732024193
1782774752706933800,1.187933837890625,-0.006108652334660292,0.04214970022439957,0.05803219974040985
1782774752716889600,1.1978896484375,-0.005497787147760391,0.021991148591041565,0.06291911751031876
1782774752726922800,1.2079228515625,-0.010995574295520782,0.02687807008624077,0.06902777403593063
1782774752736909000,1.217908935546875,-0.015882495790719986,0.04214970022439957,0.0708603709936142
1782774752746912000,1.227912109375,-0.02321287989616394,0.019547687843441963,0.07024950534105301
1782774752756898000,1.23789794921875,-0.02626720629632473,0.003054326167330146,0.06780604273080826
1782774752766931500,1.247931396484375,-0.02871066704392433,0.013439035043120384,0.06291911751031876
1782774752776887000,1.257886962890625,-0.024434609338641167,0.012217304669320583,0.04703662544488907
1782774752786920700,1.267920654296875,-0.015271631069481373,0.01038470957428217,0.024434609338641167
1782774752796906500,1.277906494140625,-0.00427605677396059,0.00733038317412138,0.001832595793530345
1782774752806909700,1.28790966796875,-0.00366519158706069,-0.0006108652451075613,-0.01710422709584236
1782774752816894500,1.29789453125,0.001832595793530345,0,-0.02932153269648552
1782774752826928400,1.307928466796875,0.0024434609804302454,0.001832595793530345,-0.036651913076639175
1782774752836884200,1.31788427734375,0.01160643994808197,-0.009773843921720982,-0.04581489413976669
1782774752846917400,1.32791748046875,0.02687807008624077,-0.02321287989616394,-0.0507018156349659
1782774752856903700,1.337903564453125,0.033597588539123535,-0.03176499158143997,-0.05009094998240471
1782774752866906400,1.34790625,0.02015855349600315,-0.0403171069920063,-0.048258353024721146
1782774752876892700,1.357892578125,-0.0012217304902151227,-0.048258353024721146,-0.051312681287527084
1782774752886925800,1.36792578125,-0.015271631069481373,-0.048258353024721146,-0.06658431142568588
1782774752896881700,1.377881591796875,-0.019547687843441963,-0.06414084881544113,-0.08368854224681854
1782774752906915000,1.3879150390625,-0.009773843921720982,-0.06658431142568588,-0.09834930300712585
1782774752916902000,1.39790185546875,-0.00855211354792118,-0.05253441259264946,-0.10262536257505417
1782774752926904600,1.407904541015625,-0.01038470957428217,-0.04153883829712868,-0.09162978827953339
1782774752936890600,1.417890625,-0.02076941914856434,-0.024434609338641167,-0.060475658625364304
1782774752946924000,1.427924072265625,-0.03726277872920036,-0.018325956538319588,-0.022602014243602753
1782774752956910300,1.437910400390625,-0.045204028487205505,-0.027488935738801956,0.010995574295520782
1782774752966913300,1.447913330078125,-0.048258353024721146,-0.04214970022439957,0.02382374368607998
1782774752976899300,1.4578994140625,-0.04214970022439957,-0.036041051149368286,0.00733038317412138
1782774752986933000,1.46793310546875,-0.036651913076639175,-0.031154127791523933,-0.02932153269648552
1782774752996888300,1.477888427734375,-0.02687807008624077,-0.0507018156349659,-0.06658431142568588
1782774753006921700,1.487921630859375,-0.01466076634824276,-0.0354301854968071,-0.07819075137376785
1782774753016908000,1.497907958984375,-0.018936822190880775,-0.029932396486401558,-0.04948008432984352
1782774753026910500,1.507910400390625,-0.02015855349600315,-0.04214970022439957,-0.01160643994808197
1782774753036896800,1.517896728515625,-0.02626720629632473,-0.05314527451992035,0.030543262138962746
1782774753046930200,1.52793017578125,-0.03237585723400116,-0.06475171446800232,0.05497787147760391
1782774753056885800,1.5378857421875,-0.03420845419168472,-0.05742133408784866,0.0507018156349659
1782774753066916900,1.547916748046875,-0.03787364438176155,-0.05375614017248154,0.01160643994808197
1782774753076905500,1.557905517578125,-0.02687807008624077,-0.036651913076639175,-0.04642575979232788
1782774753086908200,1.567908203125,-0.009773843921720982,-0.012828170321881771,-0.08307767659425735
1782774753096894500,1.57789453125,-0.001832595793530345,-0.02015855349600315,-0.07941248267889023
1782774753106927600,1.587927734375,-0.006108652334660292,-0.02076941914856434,-0.04764748737215996
1782774753116883500,1.597883544921875,-0.015882495790719986,-0.02015855349600315,-0.01160643994808197
1782774753126916600,1.60791650390625,-0.01710422709584236,-0.02382374368607998,0.007941247895359993
1782774753136903200,1.617903076171875,-0.015882495790719986,-0.025045474991202354,0.015271631069481373
1782774753146905900,1.62790576171875,-0.010995574295520782,-0.02626720629632473,0.009162978269159794
1782774753156892200,1.63789208984375,0,-0.025045474991202354,-0.006108652334660292
1782774753166925300,1.64792529296875,0.018325956538319588,-0.018325956538319588,-0.027488935738801956
1782774753176881000,1.657880859375,0.02626720629632473,-0.009162978269159794,-0.045204028487205505
1782774753186914300,1.667914306640625,0.021380282938480377,-0.005497787147760391,-0.05253441259264946
1782774753196900600,1.677900634765625,0.004886921960860491,-0.010995574295520782,-0.051312681287527084
1782774753206933500,1.68793359375,-0.018936822190880775,-0.009773843921720982,-0.0403171069920063
1782774753216889600,1.6978896484375,-0.03848451003432274,-0.01710422709584236,-0.031154127791523933
1782774753226922800,1.7079228515625,-0.03481931984424591,-0.03481931984424591,-0.036651913076639175
1782774753236909300,1.717909423828125,-0.007941247895359993,-0.039706241339445114,-0.054367005825042725
1782774753246912000,1.727912109375,0.006108652334660292,-0.04886921867728233,-0.07819075137376785
1782774753256898000,1.73789794921875,0.00427605677396059,-0.06536258012056351,-0.0959058403968811
1782774753266931500,1.747931396484375,-0.00427605677396059,-0.06291911751031876,-0.10995574295520782
1782774753276887000,1.757886962890625,-0.02076941914856434,-0.04703662544488907,-0.1160643994808197
1782774753286920400,1.76792041015625,-0.03298672288656235,-0.03848451003432274,-0.1062905490398407
1782774753296906500,1.777906494140625,-0.031154127791523933,-0.027488935738801956,-0.07391469180583954
1782774753306909200,1.7879091796875,-0.03298672288656235,-0.01038470957428217,-0.021380282938480377
1782774753316895700,1.797895751953125,-0.027488935738801956,-0.01160643994808197,0.0354301854968071
1782774753326929000,1.807928955078125,-0.012217304669320583,-0.00855211354792118,0.0806342139840126
1782774753336884500,1.817884521484375,-0.0006108652451075613,-0.0006108652451075613,0.11239920556545258
1782774753346918100,1.827918212890625,0.0024434609804302454,0.01038470957428217,0.1319468915462494
1782774753356904200,1.837904296875,-0.006108652334660292,0.009773843921720982,0.1368338167667389
1782774753366907000,1.847906982421875,-0.012217304669320583,-0.003054326167330146,0.12095131725072861
1782774753376893200,1.85789306640625,-0.025045474991202354,-0.018936822190880775,0.08796459436416626
1782774753386926300,1.86792626953125,-0.033597588539123535,-0.03420845419168472,0.039095375686883926
1782774753396882200,1.877882080078125,-0.021380282938480377,-0.039706241339445114,-0.007941247895359993
1782774753406915300,1.887915283203125,-0.00427605677396059,-0.033597588539123535,-0.028099801391363144
1782774753416902000,1.89790185546875,-0.001832595793530345,-0.02932153269648552,-0.021380282938480377
1782774753426904300,1.907904296875,-0.00366519158706069,-0.04214970022439957,0.005497787147760391
1782774753436890600,1.917890625,-0.012217304669320583,-0.03726277872920036,0.03787364438176155
1782774753446924000,1.927924072265625,-0.01038470957428217,0.004886921960860491,0.07024950534105301
1782774753456910300,1.937910400390625,-0.0024434609804302454,0.014049900695681572,0.07941248267889023
1782774753466913000,1.9479130859375,0.009773843921720982,0.00427605677396059,0.0861319974064827
1782774753476899300,1.9578994140625,0.025045474991202354,-0.00427605677396059,0.09468411654233932
1782774753486932500,1.967932373046875,0.02626720629632473,-0.003054326167330146,0.09896016865968704
1782774753496888300,1.977888427734375,0.021380282938480377,0.0006108652451075613,0.09896016865968704
1782774753506921500,1.98792138671875,0.012217304669320583,0.001832595793530345,0.09407325088977814
1782774753516908000,1.997907958984375,0,0.0024434609804302454,0.08674286305904388
1782774753526910700,2.00791064453125,-0.007941247895359993,0.012828170321881771,0.0708603709936142
1782774753536896800,2.017896728515625,0.0006108652451075613,0.01160643994808197,0.04764748737215996
1782774753546930200,2.02793017578125,0.01038470957428217,-0.009162978269159794,0.03237585723400116
1782774753556886000,2.037885986328125,0.012828170321881771,-0.028099801391363144,0.025656340643763542
1782774753566919200,2.047919189453125,-0.001832595793530345,-0.033597588539123535,0.007941247895359993
1782774753576905500,2.057905517578125,-0.02321287989616394,-0.02382374368607998,-0.016493361443281174
1782774753586908200,2.067908203125,-0.03176499158143997,-0.004886921960860491,-0.036041051149368286
1782774753596894500,2.07789453125,-0.03237585723400116,0.018936822190880775,-0.036041051149368286
1782774753606927600,2.087927734375,-0.03420845419168472,0.02871066704392433,-0.012828170321881771
1782774753616883500,2.097883544921875,-0.021991148591041565,0.021991148591041565,0.01771509274840355
1782774753626916600,2.10791650390625,-0.015882495790719986,0.009162978269159794,0.04398229718208313
1782774753636903200,2.117903076171875,-0.015271631069481373,0.00366519158706069,0.05192354694008827
1782774753646905900,2.12790576171875,-0.01466076634824276,0.006719517521560192,0.04214970022439957
1782774753656892000,2.137891845703125,-0.019547687843441963,0.02015855349600315,0.02687807008624077
1782774753666925300,2.14792529296875,-0.0354301854968071,0.04214970022439957,0.009773843921720982
1782774753676881000,2.157880859375,-0.04459316283464432,0.04948008432984352,-0.01160643994808197
1782774753686914300,2.167914306640625,-0.03481931984424591,0.04948008432984352,-0.025045474991202354
1782774753696900600,2.177900634765625,-0.02871066704392433,0.04642575979232788,-0.022602014243602753
1782774753706933800,2.187933837890625,-0.025656340643763542,0.04764748737215996,-0.003054326167330146
1782774753716889600,2.1978896484375,-0.01710422709584236,0.05925392732024193,0.024434609338641167
1782774753726923000,2.207923095703125,-0.022602014243602753,0.05009094998240471,0.05619960278272629
1782774753736909000,2.217908935546875,-0.03176499158143997,0.04092797264456749,0.08735372871160507
1782774753746912000,2.227912109375,-0.036651913076639175,0.0403171069920063,0.10751228034496307
1782774753756898000,2.23789794921875,-0.031154127791523933,0.04581489413976669,0.10384709388017654
1782774753766931500,2.247931396484375,-0.018936822190880775,0.06780604273080826,0.08307767659425735
1782774753776887000,2.257886962890625,-0.006108652334660292,0.06719517707824707,0.051312681287527084
1782774753786920400,2.26792041015625,0.006108652334660292,0.05009094998240471,0.022602014243602753
1782774753796906800,2.27790673828125,0.00733038317412138,0.03481931984424591,0.00733038317412138
1782774753806909200,2.2879091796875,0.0006108652451075613,0.018936822190880775,-0.0006108652451075613
1782774753816894700,2.297894775390625,-0.007941247895359993,0.02382374368607998,0
1782774753826928400,2.307928466796875,-0.010995574295520782,0.027488935738801956,0.0012217304902151227
1782774753836884000,2.317884033203125,-0.016493361443281174,0.018325956538319588,-0.0006108652451075613
1782774753846917600,2.327917724609375,-0.027488935738801956,0.016493361443281174,-0.00366519158706069
1782774753856903700,2.337903564453125,-0.03298672288656235,0.012217304669320583,-0.019547687843441963
1782774753866906400,2.34790625,-0.022602014243602753,0.02626720629632473,-0.04459316283464432
1782774753876892700,2.357892578125,-0.010995574295520782,0.036041051149368286,-0.04764748737215996
1782774753886925800,2.36792578125,-0.006719517521560192,0.022602014243602753,-0.039095375686883926
1782774753896881700,2.377881591796875,0,0.013439035043120384,-0.024434609338641167
1782774753906915000,2.3879150390625,0.00427605677396059,0.006108652334660292,-0.005497787147760391
1782774753916902000,2.39790185546875,-0.00427605677396059,0.004886921960860491,0.019547687843441963
1782774753926904300,2.407904296875,-0.021991148591041565,-0.004886921960860491,0.0354301854968071
1782774753936890600,2.417890625,-0.030543262138962746,-0.012217304669320583,0.02871066704392433
1782774753946922000,2.427921875,-0.031154127791523933,-0.01160643994808197,0.007941247895359993
1782774753956910300,2.437910400390625,-0.031154127791523933,-0.009773843921720982,-0.012828170321881771
1782774753966912800,2.447912841796875,-0.031154127791523933,0.007941247895359993,-0.028099801391363144
1782774753976899300,2.4578994140625,-0.031154127791523933,0.015271631069481373,-0.03420845419168472
1782774753986932500,2.467932373046875,-0.018936822190880775,0.015882495790719986,-0.024434609338641167
1782774753996888300,2.477888427734375,-0.005497787147760391,0.014049900695681572,-0.0024434609804302454
1782774754006921500,2.48792138671875,0.00366519158706069,-0.00733038317412138,0.016493361443281174
1782774754016907800,2.49790771484375,0.009162978269159794,-0.02871066704392433,0.025656340643763542
1782774754026908200,2.507908203125,0.005497787147760391,-0.0354301854968071,0.018936822190880775
1782774754036897000,2.51789697265625,0,-0.039706241339445114,-0.007941247895359993
1782774754046928100,2.52792822265625,-0.005497787147760391,-0.02871066704392433,-0.045204028487205505
1782774754056885800,2.5378857421875,-0.00733038317412138,-0.03420845419168472,-0.07330382615327835
1782774754066919400,2.54791943359375,-0.012217304669320583,-0.03481931984424591,-0.07330382615327835
1782774754076905200,2.5579052734375,-0.02321287989616394,-0.0354301854968071,-0.051312681287527084
1782774754086908200,2.567908203125,-0.024434609338641167,-0.03298672288656235,-0.021991148591041565
1782774754096894500,2.57789453125,-0.012828170321881771,-0.015882495790719986,0.007941247895359993
1782774754106927600,2.587927734375,-0.0012217304902151227,-0.0024434609804302454,0.04642575979232788
1782774754116883500,2.597883544921875,0.009773843921720982,0.001832595793530345,0.08002334833145142
1782774754126916900,2.607916748046875,0.016493361443281174,-0.00855211354792118,0.09896016865968704
1782774754136903200,2.617903076171875,0.022602014243602753,-0.01160643994808197,0.0959058403968811
1782774754146903600,2.627903564453125,0.015271631069481373,-0.009162978269159794,0.07452555745840073
1782774754156892000,2.637891845703125,0.00427605677396059,-0.016493361443281174,0.04764748737215996
1782774754166925300,2.64792529296875,-0.00427605677396059,-0.022602014243602753,0.025656340643763542
1782774754176881200,2.657881103515625,-0.014049900695681572,-0.025045474991202354,0.02321287989616394
1782774754186914600,2.66791455078125,-0.02687807008624077,-0.027488935738801956,0.03237585723400116
1782774754196900600,2.677900634765625,-0.02626720629632473,-0.01771509274840355,0.04398229718208313
1782774754206933800,2.687933837890625,-0.016493361443281174,-0.01771509274840355,0.05375614017248154
1782774754216889600,2.6978896484375,-0.0024434609804302454,-0.01710422709584236,0.0659734457731247
1782774754226922800,2.7079228515625,0,-0.00733038317412138,0.0806342139840126
1782774754236909000,2.717908935546875,-0.007941247895359993,-0.01160643994808197,0.08429940044879913
1782774754246909700,2.72790966796875,-0.006719517521560192,-0.006719517521560192,0.07330382615327835
1782774754256898000,2.73789794921875,-0.009162978269159794,-0.00427605677396059,0.05864306539297104
1782774754266929200,2.74792919921875,-0.018325956538319588,-0.01710422709584236,0.04948008432984352
1782774754276887000,2.757886962890625,-0.030543262138962746,-0.031154127791523933,0.042760565876960754
1782774754286920700,2.767920654296875,-0.03481931984424591,-0.029932396486401558,0.02932153269648552
1782774754296906500,2.777906494140625,-0.031154127791523933,-0.01771509274840355,0.01160643994808197
1782774754306876200,2.787876220703125,-0.019547687843441963,-0.012828170321881771,-0.006108652334660292
1782774754316956700,2.797956787109375,0,-0.00733038317412138,-0.006719517521560192
1782774754326895600,2.8078955078125,0.009162978269159794,-0.003054326167330146,0.009162978269159794
1782774754336936000,2.81793603515625,0.00855211354792118,-0.010995574295520782,0.03237585723400116
1782774754346978800,2.827978759765625,0.006108652334660292,-0.015271631069481373,0.04948008432984352
1782774754356904400,2.837904541015625,0.0024434609804302454,-0.024434609338641167,0.0507018156349659
1782774754366904800,2.84790478515625,0.00366519158706069,-0.031154127791523933,0.04459316283464432
1782774754376893200,2.85789306640625,-0.0006108652451075613,-0.033597588539123535,0.03481931984424591
1782774754386924300,2.86792431640625,0,-0.04459316283464432,0.02076941914856434
1782774754396882200,2.877882080078125,0.00427605677396059,-0.05619960278272629,0.004886921960860491
1782774754406915600,2.88791552734375,0.001832595793530345,-0.05742133408784866,-0.01038470957428217
1782774754416902000,2.89790185546875,-0.006108652334660292,-0.05314527451992035,-0.01771509274840355
1782774754426904600,2.907904541015625,-0.01466076634824276,-0.021991148591041565,-0.0024434609804302454
1782774754436891000,2.917890869140625,-0.01466076634824276,-0.015882495790719986,0.030543262138962746
1782774754446924300,2.92792431640625,0.0024434609804302454,-0.03237585723400116,0.0806342139840126
1782774754456910000,2.93791015625,0.021380282938480377,-0.02871066704392433,0.1417207419872284
1782774754466913000,2.9479130859375,0.03481931984424591,-0.02076941914856434,0.18570303916931152
1782774754476899000,2.957899169921875,0.04153883829712868,-0.01038470957428217,0.2028072625398636
1782774754486869000,2.967868896484375,0.03298672288656235,-0.009773843921720982,0.192422553896904
1782774754496980000,2.97797998046875,0.02321287989616394,-0.02076941914856434,0.15760323405265808
1782774754506888400,2.987888427734375,0.018325956538319588,-0.03176499158143997,0.11056660860776901
1782774754516969000,2.997968994140625,0,-0.04398229718208313,0.06352998316287994
1782774754526877400,3.00787744140625,-0.02626720629632473,-0.051312681287527084,0.009162978269159794
1782774754536958000,3.0179580078125,-0.03726277872920036,-0.03481931984424591,-0.04948008432984352
1782774754546928000,3.02792822265625,-0.036651913076639175,-0.00855211354792118,-0.08857546001672745
1782774754556845600,3.037845458984375,-0.02871066704392433,-0.012828170321881771,-0.09224065393209457
1782774754566947000,3.047947021484375,-0.01710422709584236,-0.0354301854968071,-0.07024950534105301
1782774754576966400,3.05796630859375,-0.00427605677396059,-0.0403171069920063,-0.0403171069920063
1782774754586908200,3.067908203125,0.006108652334660292,-0.03848451003432274,-0.018936822190880775
1782774754596894500,3.07789453125,0.01466076634824276,-0.031154127791523933,-0.001832595793530345
1782774754606927600,3.087927734375,0.013439035043120384,-0.012217304669320583,0.02015855349600315
1782774754616883500,3.097883544921875,0.00366519158706069,-0.005497787147760391,0.042760565876960754
1782774754626914600,3.10791455078125,-0.0006108652451075613,-0.00733038317412138,0.0507018156349659
1782774754636933000,3.11793310546875,-0.001832595793530345,-0.009162978269159794,0.04214970022439957
1782774754646903600,3.127903564453125,-0.01160643994808197,-0.009162978269159794,0.02076941914856434
1782774754656892000,3.137891845703125,-0.021991148591041565,-0.0024434609804302454,-0.014049900695681572
1782774754666923000,3.147923095703125,-0.014049900695681572,0.01466076634824276,-0.051312681287527084
1782774754676881000,3.157880859375,-0.00366519158706069,0.019547687843441963,-0.06230825558304787
1782774754686914300,3.167914306640625,-0.006719517521560192,-0.0012217304902151227,-0.039095375686883926
1782774754696900600,3.177900634765625,-0.01038470957428217,-0.01771509274840355,-0.0012217304902151227
1782774754706900700,3.187900634765625,-0.001832595793530345,-0.018936822190880775,0.033597588539123535
1782774754716981200,3.197981201171875,0.012828170321881771,-0.02382374368607998,0.03420845419168472
1782774754726920700,3.207920654296875,0.02015855349600315,-0.021380282938480377,0.02871066704392433
1782774754736909000,3.217908935546875,0.022602014243602753,-0.015271631069481373,0.018325956538319588
1782774754746909700,3.22790966796875,0.03787364438176155,-0.00855211354792118,0.00733038317412138
1782774754756898300,3.237898193359375,0.04886921867728233,-0.012217304669320583,0.006108652334660292
1782774754766929200,3.24792919921875,0.036651913076639175,-0.02015855349600315,0.014049900695681572
1782774754776887000,3.257886962890625,0.015882495790719986,-0.02382374368607998,0.01466076634824276
1782774754786918100,3.267918212890625,0.005497787147760391,-0.005497787147760391,0.003054326167330146
1782774754796906500,3.277906494140625,0.001832595793530345,0.02321287989616394,-0.009773843921720982
1782774754806909400,3.287909423828125,0.005497787147760391,0.0354301854968071,-0.01466076634824276
1782774754816894700,3.297894775390625,0.01466076634824276,0.03726277872920036,-0.006719517521560192
1782774754826928400,3.307928466796875,0.025045474991202354,0.03726277872920036,0.007941247895359993
1782774754836884200,3.31788427734375,0.03420845419168472,0.025045474991202354,0.02382374368607998
1782774754846917600,3.327917724609375,0.03298672288656235,0.013439035043120384,0.04153883829712868
1782774754856903700,3.337903564453125,0.03237585723400116,0.018325956538319588,0.0555887371301651
1782774754866904300,3.347904296875,0.03237585723400116,0.03176499158143997,0.060475658625364304
1782774754876892700,3.357892578125,0.029932396486401558,0.036651913076639175,0.05253441259264946
1782774754886924000,3.367924072265625,0.02015855349600315,0.027488935738801956,0.03237585723400116
1782774754896882000,3.3778818359375,0.009162978269159794,0.009773843921720982,0.010995574295520782
1782774754906912800,3.387912841796875,0.003054326167330146,-0.006108652334660292,-0.005497787147760391
1782774754916902000,3.39790185546875,0.0024434609804302454,-0.003054326167330146,-0.006108652334660292
1782774754926902500,3.407902587890625,0.00427605677396059,0.0006108652451075613,-0.00366519158706069
1782774754936890600,3.417890625,0.004886921960860491,-0.014049900695681572,-0.001832595793530345
1782774754946922000,3.427921875,-0.0024434609804302454,-0.02382374368607998,-0.006719517521560192
1782774754956910000,3.43791015625,-0.01160643994808197,-0.015882495790719986,-0.024434609338641167
1782774754966910700,3.44791064453125,-0.024434609338641167,0.006719517521560192,-0.04948008432984352
1782774754976899000,3.457899169921875,-0.03726277872920036,0.030543262138962746,-0.06841690838336945
1782774754986930400,3.467930419921875,-0.042760565876960754,0.03298672288656235,-0.07880161702632904
1782774754996888300,3.477888427734375,-0.03848451003432274,0.014049900695681572,-0.07757988572120667
1782774755006921500,3.48792138671875,-0.03481931984424591,-0.006719517521560192,-0.06536258012056351
1782774755016907800,3.49790771484375,-0.02871066704392433,-0.01710422709584236,-0.04886921867728233
1782774755026910700,3.50791064453125,-0.025656340643763542,-0.005497787147760391,-0.03726277872920036
1782774755036896800,3.517896728515625,-0.02382374368607998,0.014049900695681572,-0.025656340643763542
1782774755046930200,3.52793017578125,-0.027488935738801956,0.025656340643763542,-0.01160643994808197
1782774755056885800,3.5378857421875,-0.02932153269648552,0.024434609338641167,0.0012217304902151227
1782774755066886000,3.547885986328125,-0.018936822190880775,0.01466076634824276,0.001832595793530345
1782774755077703000,3.558702880859375,-0.007941247895359993,-0.018936822190880775,-0.022602014243602753
1782774755096894500,3.57789453125,0.009162978269159794,-0.02076941914856434,-0.07696902006864548
1782774755106927600,3.587927734375,0.01710422709584236,-0.009773843921720982,-0.1111774742603302
1782774755116883500,3.597883544921875,0.007941247895359993,-0.005497787147760391,-0.12828169763088226
1782774755126916600,3.60791650390625,-0.009162978269159794,-0.00427605677396059,-0.14477506279945374
1782774755136862700,3.61786279296875,0.0006108652451075613,0.001832595793530345,-0.16737708449363708
1782774755146964000,3.6279638671875,0.027488935738801956,0.00427605677396059,-0.1918116807937622
1782774755157900000,3.638900146484375,0.06291911751031876,-0.00366519158706069,-0.2217440903186798
1782774755176881000,3.657880859375,0.10567969083786011,0.0006108652451075613,-0.26145032048225403
1782774755186914300,3.667914306640625,0.09346238523721695,0.013439035043120384,-0.2632829248905182
1782774755196900600,3.677900634765625,0.0659734457731247,0.03787364438176155,-0.242513507604599
1782774755206900700,3.687900634765625,0.03481931984424591,0.08185594528913498,-0.20341812074184418
1782774755216981200,3.697981201171875,0.001832595793530345,0.11911872029304504,-0.1508837193250656
1782774755226889500,3.707889404296875,-0.02076941914856434,0.12950342893600464,-0.08674286305904388
1782774755236929800,3.7179296875,-0.01160643994808197,0.1319468915462494,-0.02687807008624077
1782774755247003100,3.728003173828125,0.021380282938480377,0.12950342893600464,0.021991148591041565
1782774755256898300,3.737898193359375,0.05864306539297104,0.11178833991289139,0.0659734457731247
1782774755266931500,3.747931396484375,0.07635815441608429,0.0959058403968811,0.10690141469240189
1782774755276887000,3.757886962890625,0.0708603709936142,0.09407325088977814,0.14355333149433136
1782774755286920400,3.76792041015625,0.04581489413976669,0.09773843735456467,0.17348572611808777
1782774755296906800,3.77790673828125,0.016493361443281174,0.10995574295520782,0.19364428520202637
1782774755306907100,3.7879072265625,0.0012217304902151227,0.11667526513338089,0.19853121042251587
1782774755316895700,3.797895751953125,-0.004886921960860491,0.1111774742603302,0.17531833052635193
1782774755326926800,3.8079267578125,-0.0006108652451075613,0.10262536257505417,0.1264491081237793
1782774755336844500,3.817844482421875,0.014049900695681572,0.11178833991289139,0.06352998316287994
1782774755346945800,3.82794580078125,0.02871066704392433,0.12278391420841217,0.006719517521560192
1782774755357826600,3.83882666015625,0.03787364438176155,0.09773843735456467,-0.022602014243602753
1782774755376893200,3.85789306640625,0.02687807008624077,0.025045474991202354,0.012828170321881771
1782774755386862800,3.86786279296875,0.009773843921720982,-0.001832595793530345,0.04214970022439957
1782774755397369300,3.878369384765625,-0.007941247895359993,-0.0012217304902151227,0.060475658625364304
1782774755406882600,3.887882568359375,-0.02871066704392433,0.013439035043120384,0.06719517707824707
1782774755416962800,3.897962890625,-0.03237585723400116,0.02626720629632473,0.054367005825042725
1782774755426871300,3.907871337890625,-0.01771509274840355,0.039095375686883926,0.03237585723400116
1782774755436942000,3.917942138671875,0.0012217304902151227,0.0403171069920063,0.006719517521560192
1782774755446982400,3.927982421875,0.014049900695681572,0.022602014243602753,-0.006719517521560192
1782774755456971300,3.93797119140625,0.015271631069481373,0.013439035043120384,0.0024434609804302454
1782774755466913000,3.9479130859375,0.0006108652451075613,0.02626720629632473,0.031154127791523933
1782774755476899300,3.9578994140625,-0.01771509274840355,0.03176499158143997,0.06169738993048668
1782774755486899500,3.9678994140625,-0.03298672288656235,0.01710422709584236,0.08185594528913498
1782774755496980000,3.97797998046875,-0.03420845419168472,0.004886921960860491,0.08307767659425735
1782774755506919400,3.98791943359375,-0.01710422709584236,0.009162978269159794,0.05803219974040985
1782774755516907800,3.99790771484375,0,0.016493361443281174,0.024434609338641167
1782774755526910700,4.00791064453125,0.01160643994808197,0.02076941914856434,-0.003054326167330146
1782774755536897000,4.01789697265625,0.016493361443281174,0.02382374368607998,-0.012217304669320583
1782774755546930200,4.02793017578125,0.012828170321881771,0.02932153269648552,0.004886921960860491
1782774755556886000,4.037885986328125,-0.001832595793530345,0.0012217304902151227,0.06475171446800232
1782774755566919200,4.047919189453125,-0.014049900695681572,-0.018325956538319588,0.09773843735456467
1782774755576905200,4.0579052734375,-0.024434609338641167,-0.02076941914856434,0.10262536257505417
1782774755586905000,4.067905029296875,-0.03176499158143997,-0.005497787147760391,0.08552113175392151
1782774755597755600,4.078755615234375,-0.03298672288656235,0.01038470957428217,0.05375614017248154
1782774755616883500,4.097883544921875,-0.01771509274840355,-0.012828170321881771,0.005497787147760391
1782774755626914600,4.10791455078125,0.0006108652451075613,-0.03176499158143997,-0.00366519158706069
1782774755636903200,4.117903076171875,0.012217304669320583,-0.05375614017248154,-0.015882495790719986
1782774755646905900,4.12790576171875,0.016493361443281174,-0.05009094998240471,-0.01466076634824276
1782774755656851700,4.137851806640625,-0.0006108652451075613,-0.03298672288656235,0.021991148591041565
1782774755666986200,4.147986328125,-0.04092797264456749,-0.024434609338641167,0.07635815441608429
1782774755676881000,4.157880859375,-0.06719517707824707,-0.0354301854968071,0.12400564551353455
1782774755686914300,4.167914306640625,-0.07024950534105301,-0.04459316283464432,0.16432274878025055
1782774755696900600,4.177900634765625,-0.05314527451992035,-0.05925392732024193,0.20097467303276062
1782774755706680600,4.1876806640625,-0.02015855349600315,-0.07147123664617538,0.2321287989616394
1782774755716889600,4.1978896484375,0.00733038317412138,-0.10445795953273773,0.2535090744495392
1782774755726920700,4.207920654296875,0.027488935738801956,-0.13011430203914642,0.26022860407829285
1782774755736909000,4.217908935546875,0.02626720629632473,-0.11239920556545258,0.24984388053417206
1782774755746910000,4.227909912109375,0.00427605677396059,-0.09040805697441101,0.2370157092809677
1782774755756898000,4.23789794921875,-0.02871066704392433,-0.07269296050071716,0.2217440903186798
1782774755766929400,4.247929443359375,-0.05009094998240471,-0.04764748737215996,0.20463985204696655
1782774755776887000,4.257886962890625,-0.059864792972803116,-0.04214970022439957,0.17837265133857727
1782774755786918100,4.267918212890625,-0.06780604273080826,-0.05864306539297104,0.1563815027475357
1782774755796906800,4.27790673828125,-0.06352998316287994,-0.0910189226269722,0.15454891324043274
1782774755806909400,4.287909423828125,-0.06230825558304787,-0.16432274878025055,0.21074850857257843
1782774755816894500,4.29789453125,-0.08674286305904388,-0.252287358045578,0.32131510972976685
1782774755826928400,4.307928466796875,-0.10751228034496307,-0.3127630054950714,0.4447098970413208
1782774755836884000,4.317884033203125,-0.1111774742603302,-0.32986724376678467,0.523511528968811
1782774755846915000,4.3279150390625,-0.08796459436416626,-0.3139847218990326,0.5314527750015259
1782774755856903700,4.337903564453125,-0.06902777403593063,-0.3738495409488678,0.4612032473087311
1782774755866904300,4.347904296875,-0.11362093687057495,-0.4343251883983612,0.34758231043815613
1782774755876892700,4.357892578125,0.004886921960860491,-0.2577851414680481,0.26450464129447937
1782774755886923000,4.367923095703125,0.06902777403593063,-0.08429940044879913,0.13805554807186127
1782774755896881700,4.377881591796875,0.02382374368607998,-0.06108652427792549,0.001832595793530345
1782774755906913000,4.3879130859375,-0.013439035043120384,-0.0006108652451075613,-0.11545353382825851
1782774755916901600,4.397901611328125,-0.018936822190880775,0.08491026610136032,-0.19608774781227112
1782774755926902500,4.407902587890625,-0.018936822190880775,0.08918632566928864,-0.2474004179239273
1782774755936890600,4.417890625,-0.01038470957428217,0.04581489413976669,-0.25961771607398987
1782774755946921700,4.427921630859375,0.003054326167330146,0.00366519158706069,-0.23396138846874237
1782774755956910000,4.43791015625,-0.00427605677396059,-0.036651913076639175,-0.18325957655906677
1782774755966913000,4.4479130859375,-0.02687807008624077,-0.054367005825042725,-0.11545353382825851
1782774755976899000,4.457899169921875,-0.04764748737215996,-0.04092797264456749,-0.00427605677396059
1782774755986930700,4.4679306640625,-0.05253441259264946,-0.02321287989616394,0.05497787147760391
1782774755996888300,4.477888427734375,-0.05009094998240471,-0.015882495790719986,0.07941248267889023
1782774756006919700,4.487919677734375,-0.036651913076639175,-0.007941247895359993,0.07880161702632904
1782774756016908000,4.497907958984375,-0.021991148591041565,-0.0006108652451075613,0.07635815441608429
1782774756026908400,4.507908447265625,-0.02015855349600315,-0.005497787147760391,0.07757988572120667
1782774756036897000,4.51789697265625,-0.02382374368607998,-0.004886921960860491,0.07147123664617538
1782774756046928000,4.527927978515625,-0.025656340643763542,-0.00366519158706069,0.05253441259264946
1782774756056845600,4.537845458984375,-0.024434609338641167,-0.001832595793530345,0.024434609338641167
1782774756066947000,4.547947021484375,-0.031154127791523933,-0.009162978269159794,-0.0006108652451075613
1782774756077929200,4.55892919921875,-0.05009094998240471,-0.004886921960860491,-0.013439035043120384
1782774756096894500,4.57789453125,-0.07024950534105301,0.022602014243602753,-0.01710422709584236
1782774756106956000,4.5879560546875,-0.05864306539297104,0.025656340643763542,0.00427605677396059
1782774756116975000,4.59797509765625,-0.04581489413976669,-0.0012217304902151227,0.04398229718208313
1782774756126914800,4.607914794921875,-0.03420845419168472,-0.028099801391363144,0.09896016865968704
1782774756136903200,4.617903076171875,-0.04764748737215996,-0.0659734457731247,0.15454891324043274
1782774756146872600,4.62787255859375,-0.059864792972803116,-0.09040805697441101,0.17898350954055786
1782774756157814800,4.638814697265625,-0.06475171446800232,-0.07208210229873657,0.16737708449363708
1782774756176881000,4.657880859375,-0.06780604273080826,-0.00427605677396059,0.06169738993048668
1782774756186912300,4.667912353515625,-0.08124507963657379,0.022602014243602753,0.01710422709584236
1782774756196900600,4.677900634765625,-0.09773843735456467,0.02626720629632473,-0.014049900695681572
1782774756206932000,4.687931884765625,-0.10934487730264664,0.0024434609804302454,-0.024434609338641167
1782774756216889600,4.6978896484375,-0.10506882518529892,-0.036651913076639175,-0.015271631069481373
1782774756226920200,4.707920166015625,-0.10201449692249298,-0.07696902006864548,-0.005497787147760391
1782774756236909000,4.717908935546875,-0.1569923609495163,-0.21991148591041565,-0.027488935738801956
1782774756246909700,4.72790966796875,-0.14782938361167908,-0.182648703455925,-0.010995574295520782
1782774756256898000,4.73789794921875,-0.09773843735456467,-0.06475171446800232,-0.010995574295520782
1782774756266898200,4.747898193359375,-0.10751228034496307,-0.12950342893600464,-0.039095375686883926
1782774756277892000,4.75889208984375,-0.11850785464048386,-0.15454891324043274,-0.04642575979232788
1782774756296906500,4.777906494140625,-0.08307767659425735,-0.04581489413976669,-0.07147123664617538
1782774756306907100,4.7879072265625,-0.09773843735456467,-0.04886921867728233,-0.06963863968849182
1782774756316895700,4.797895751953125,-0.10812314599752426,-0.013439035043120384,-0.03787364438176155
1782774756326926800,4.8079267578125,-0.10567969083786011,0.006719517521560192,-0.00733038317412138
1782774756336844500,4.817844482421875,-0.0910189226269722,0.00366519158706069,0.018325956538319588
1782774756346977300,4.827977294921875,-0.07208210229873657,-0.012828170321881771,0.03848451003432274
1782774756356904200,4.837904296875,-0.06658431142568588,-0.04214970022439957,0.04337143152952194
1782774756366904800,4.84790478515625,-0.07208210229873657,-0.06475171446800232,0.03298672288656235
1782774756376853000,4.85785302734375,-0.07696902006864548,-0.06780604273080826,0.01038470957428217
1782774756386985500,4.8679853515625,-0.08002334833145142,-0.0555887371301651,-0.01771509274840355
1782774756396882200,4.877882080078125,-0.0708603709936142,-0.04459316283464432,-0.04703662544488907
1782774756406913500,4.88791357421875,-0.030543262138962746,-0.04886921867728233,-0.07452555745840073
1782774756416902000,4.89790185546875,-0.0024434609804302454,-0.0507018156349659,-0.06352998316287994
1782774756426871300,4.907871337890625,0.009162978269159794,-0.05803219974040985,-0.02626720629632473
1782774756436942000,4.917942138671875,0.00855211354792118,-0.06536258012056351,0.03176499158143997
1782774756446952000,4.927951904296875,-0.00733038317412138,-0.07147123664617538,0.0959058403968811
1782774756456971300,4.93797119140625,-0.039095375686883926,-0.1007927656173706,0.13316862285137177
1782774756466911000,4.947910888671875,-0.05253441259264946,-0.11667526513338089,0.13072516024112701
1782774756476899300,4.9578994140625,-0.05314527451992035,-0.08735372871160507,0.10201449692249298
1782774756486930400,4.967930419921875,-0.036041051149368286,-0.04703662544488907,0.05497787147760391
1782774756496888300,4.977888427734375,-0.012217304669320583,-0.01160643994808197,0.02687807008624077
1782774756506919700,4.987919677734375,-0.004886921960860491,0.0024434609804302454,0.02871066704392433
1782774756516908000,4.997907958984375,-0.015271631069481373,-0.0024434609804302454,0.04703662544488907
1782774756526909000,5.007908935546875,-0.02626720629632473,-0.009773843921720982,0.05803219974040985
1782774756536856600,5.017856689453125,-0.025656340643763542,-0.01160643994808197,0.05619960278272629
1782774756546989300,5.0279892578125,-0.022602014243602753,-0.01038470957428217,0.036651913076639175
1782774756556845600,5.037845458984375,-0.022602014243602753,-0.01466076634824276,0.006719517521560192
1782774756566977800,5.047977783203125,-0.01710422709584236,-0.019547687843441963,-0.02321287989616394
1782774756576905200,5.0579052734375,-0.018936822190880775,-0.006719517521560192,-0.03726277872920036
1782774756586875100,5.067875244140625,-0.03848451003432274,-0.005497787147760391,-0.04214970022439957
1782774756597831200,5.0788310546875,-0.05314527451992035,-0.014049900695681572,-0.048258353024721146
1782774756616883500,5.097883544921875,-0.04703662544488907,-0.003054326167330146,-0.04581489413976669
1782774756626914800,5.107914794921875,-0.039706241339445114,-0.010995574295520782,-0.03848451003432274
1782774756636933000,5.11793310546875,-0.03237585723400116,-0.016493361443281174,-0.03176499158143997
1782774756646903600,5.127903564453125,-0.031154127791523933,-0.016493361443281174,-0.018936822190880775
1782774756656892000,5.137891845703125,-0.022602014243602753,-0.012828170321881771,-0.003054326167330146
1782774756666923000,5.147923095703125,-0.0012217304902151227,-0.00733038317412138,0.012828170321881771
1782774756676841000,5.157841064453125,0.01466076634824276,-0.012828170321881771,0.02871066704392433
1782774756687003600,5.168003662109375,0.021991148591041565,-0.018325956538319588,0.039706241339445114
1782774756696900600,5.177900634765625,0.019547687843441963,-0.01771509274840355,0.04153883829712868
1782774756706932000,5.187931884765625,0.001832595793530345,-0.018325956538319588,0.03481931984424591
1782774756716889600,5.1978896484375,-0.015271631069481373,-0.009773843921720982,0.02015855349600315
1782774756726921000,5.2079208984375,-0.03481931984424591,-0.010995574295520782,0.0024434609804302454
1782774756736909000,5.217908935546875,-0.04642575979232788,-0.015882495790719986,-0.018936822190880775
1782774756746909700,5.22790966796875,-0.048258353024721146,-0.019547687843441963,-0.045204028487205505
1782774756756898300,5.237898193359375,-0.04214970022439957,-0.02687807008624077,-0.07147123664617538
1782774756766929400,5.247929443359375,-0.029932396486401558,-0.02076941914856434,-0.08857546001672745
1782774756776887000,5.257886962890625,-0.02871066704392433,-0.012217304669320583,-0.08429940044879913
1782774756786918100,5.267918212890625,-0.048258353024721146,-0.019547687843441963,-0.06963863968849182
1782774756796906500,5.277906494140625,-0.06414084881544113,-0.02871066704392433,-0.05375614017248154
1782774756806907100,5.2879072265625,-0.06536258012056351,-0.015271631069481373,-0.04153883829712868
1782774756816894500,5.29789453125,-0.05192354694008827,-0.004886921960860491,-0.04214970022439957
1782774756826926000,5.307926025390625,-0.013439035043120384,0.01160643994808197,-0.04398229718208313
1782774756836884200,5.31788427734375,-0.005497787147760391,0.015271631069481373,-0.03237585723400116
1782774756846915000,5.3279150390625,-0.012828170321881771,0.02076941914856434,-0.007941247895359993
1782774756856903700,5.337903564453125,-0.028099801391363144,0.02871066704392433,0.027488935738801956
1782774756866904300,5.347904296875,-0.0403171069920063,0.031154127791523933,0.05742133408784866
1782774756876892700,5.357892578125,-0.03420845419168472,0.027488935738801956,0.06536258012056351
1782774756886924000,5.367924072265625,-0.02321287989616394,0.03237585723400116,0.05314527451992035
1782774756896882000,5.3778818359375,-0.01466076634824276,0.03787364438176155,0.031154127791523933
1782774756906913000,5.3879130859375,-0.007941247895359993,0.0507018156349659,0.009162978269159794
1782774756916902000,5.39790185546875,-0.00366519158706069,0.05742133408784866,-0.00733038317412138
1782774756926902500,5.407902587890625,-0.0012217304902151227,0.04703662544488907,-0.012828170321881771
1782774756936890600,5.417890625,0.00855211354792118,0.028099801391363144,-0.012828170321881771
1782774756946921700,5.427921630859375,0.025045474991202354,0.009773843921720982,-0.01038470957428217
1782774756956910000,5.43791015625,0.028099801391363144,-0.007941247895359993,0.0006108652451075613
1782774756966910700,5.44791064453125,0.01771509274840355,-0.016493361443281174,0.016493361443281174
1782774756976899300,5.4578994140625,0.00366519158706069,-0.01038470957428217,0.019547687843441963
1782774756986930200,5.46793017578125,0.00733038317412138,0.00366519158706069,0.015271631069481373
1782774756996888300,5.477888427734375,0.03176499158143997,0.012217304669320583,0.015271631069481373
1782774757006919400,5.48791943359375,0.04948008432984352,0.00733038317412138,0.03176499158143997
1782774757016907800,5.49790771484375,0.04398229718208313,-0.01038470957428217,0.04886921867728233
1782774757026908700,5.50790869140625,0.02626720629632473,-0.016493361443281174,0.04153883829712868
1782774757036897000,5.51789697265625,0.018936822190880775,0.003054326167330146,0.010995574295520782
1782774757046928000,5.527927978515625,0.0012217304902151227,0.025656340643763542,-0.019547687843441963
1782774757056885800,5.5378857421875,-0.01771509274840355,0.02687807008624077,-0.03420845419168472
1782774757066916900,5.547916748046875,-0.02687807008624077,0.02382374368607998,-0.03298672288656235
1782774757076905500,5.557905517578125,-0.01771509274840355,0.015271631069481373,-0.02321287989616394
1782774757086906000,5.567906005859375,-0.00366519158706069,0.010995574295520782,-0.004886921960860491
1782774757096894500,5.57789453125,0.004886921960860491,0.00855211354792118,0.015271631069481373
1782774757106925600,5.587925537109375,0.009773843921720982,0.009162978269159794,0.033597588539123535
1782774757116883500,5.597883544921875,0.01771509274840355,0.014049900695681572,0.048258353024721146
1782774757126914800,5.607914794921875,0.021991148591041565,0.03176499158143997,0.06108652427792549
1782774757136903200,5.617903076171875,0.012828170321881771,0.030543262138962746,0.07147123664617538
1782774757146903600,5.627903564453125,0.009162978269159794,0.01710422709584236,0.06719517707824707
1782774757156892200,5.63789208984375,0.004886921960860491,0.015271631069481373,0.04948008432984352
1782774757166923000,5.647923095703125,-0.003054326167330146,0.012217304669320583,0.02382374368607998
1782774757176881000,5.657880859375,-0.0024434609804302454,0.018325956538319588,-0.0006108652451075613
1782774757186912300,5.667912353515625,0.00427605677396059,0.021991148591041565,-0.010995574295520782
1782774757196900400,5.677900390625,0.01771509274840355,0.015882495790719986,-0.00855211354792118
1782774757206931500,5.687931396484375,0.024434609338641167,0.016493361443281174,0.009162978269159794
1782774757216889600,5.6978896484375,0.01771509274840355,0.014049900695681572,0.033597588539123535
1782774757226920700,5.707920654296875,0.006719517521560192,0.009162978269159794,0.05009094998240471
1782774757236909300,5.717909423828125,-0.0024434609804302454,0.00733038317412138,0.051312681287527084
1782774757246910000,5.727909912109375,-0.0006108652451075613,0.02015855349600315,0.025045474991202354
1782774757256898000,5.73789794921875,0.012217304669320583,0.021991148591041565,0.0006108652451075613
1782774757266929200,5.74792919921875,0.039706241339445114,0.012217304669320583,-0.015882495790719986
1782774757276887000,5.757886962890625,0.06780604273080826,0.00427605677396059,-0.009162978269159794
1782774757286918400,5.76791845703125,0.0757472887635231,-0.007941247895359993,0.005497787147760391
1782774757296906500,5.777906494140625,0.07941248267889023,-0.006108652334660292,0.024434609338641167
1782774757306907400,5.787907470703125,0.07880161702632904,0.012828170321881771,0.03848451003432274
1782774757316895700,5.797895751953125,0.06780604273080826,0.022602014243602753,0.05192354694008827
1782774757326927000,5.807927001953125,0.0555887371301651,0.016493361443281174,0.06230825558304787
1782774757336884500,5.817884521484375,0.045204028487205505,0.018325956538319588,0.0708603709936142
1782774757346916000,5.827916015625,0.027488935738801956,0.02076941914856434,0.07941248267889023
1782774757356904000,5.837904052734375,0.00733038317412138,0.018325956538319588,0.07635815441608429
1782774757366904600,5.847904541015625,0,0.02076941914856434,0.048258353024721146
1782774757376853000,5.85785302734375,0.00366519158706069,0.02687807008624077,0
1782774757386985200,5.867985107421875,0.01160643994808197,0.025045474991202354,-0.048258353024721146
1782774757396842200,5.87784228515625,0.01771509274840355,0.02871066704392433,-0.07880161702632904
1782774757406974200,5.88797412109375,0.016493361443281174,0.027488935738801956,-0.08307767659425735
1782774757416901600,5.897901611328125,0.009773843921720982,0.015882495790719986,-0.07391469180583954
1782774757426871300,5.907871337890625,0.00366519158706069,0.012217304669320583,-0.04764748737215996
1782774757436942000,5.917942138671875,-0.01466076634824276,0.01466076634824276,-0.0012217304902151227
1782774757446983200,5.927983154296875,-0.02382374368607998,0.031154127791523933,0.03848451003432274
1782774757456910300,5.937910400390625,-0.027488935738801956,0.036651913076639175,0.060475658625364304
1782774757466911000,5.947910888671875,-0.019547687843441963,0.02382374368607998,0.06291911751031876
1782774757476899300,5.9578994140625,0.0006108652451075613,0.030543262138962746,0.05009094998240471
1782774757486930400,5.967930419921875,0.012828170321881771,0.04581489413976669,0.03176499158143997
1782774757496888300,5.977888427734375,0.02076941914856434,0.04948008432984352,0.013439035043120384
1782774757506919400,5.98791943359375,0.02382374368607998,0.0403171069920063,0.0006108652451075613
1782774757516907800,5.99790771484375,0.01771509274840355,0.024434609338641167,-0.00366519158706069
1782774757526908400,6.007908447265625,0.0024434609804302454,0.016493361443281174,0.00366519158706069
1782774757536897000,6.01789697265625,-0.009773843921720982,0.01466076634824276,0.01038470957428217
1782774757546928000,6.02792822265625,-0.006719517521560192,0.019547687843441963,0.01160643994808197
1782774757556886000,6.037885986328125,0.004886921960860491,0.02321287989616394,0.012828170321881771
1782774757566916900,6.047916748046875,0.018936822190880775,0.007941247895359993,0.01160643994808197
1782774757576905200,6.0579052734375,0.04092797264456749,-0.009773843921720982,0.01160643994808197
1782774757586906000,6.067906005859375,0.0555887371301651,-0.031154127791523933,0.010995574295520782
1782774757596894500,6.07789453125,0.05864306539297104,-0.06230825558304787,0.006719517521560192
1782774757606925600,6.087925537109375,0.05009094998240471,-0.06719517707824707,0.00427605677396059
1782774757616883500,6.097883544921875,0.027488935738801956,-0.04459316283464432,0.0024434609804302454
1782774757626914600,6.10791455078125,0.0006108652451075613,-0.007941247895359993,0.004886921960860491
1782774757636903200,6.117903076171875,-0.025656340643763542,0.012217304669320583,0.014049900695681572
1782774757646872600,6.12787255859375,-0.039706241339445114,0.0024434609804302454,0.03237585723400116
1782774757656953000,6.137953125,-0.031154127791523933,-0.013439035043120384,0.042760565876960754
1782774757666892000,6.14789208984375,-0.006108652334660292,-0.027488935738801956,0.03176499158143997
1782774757677125000,6.158125,0.015882495790719986,-0.024434609338641167,0.01466076634824276
1782774757686850600,6.1678505859375,0.03420845419168472,-0.01160643994808197,0.001832595793530345
1782774757696961500,6.17796142578125,0.03848451003432274,0,0.0012217304902151227
1782774757706931700,6.187931640625,0.024434609338641167,0.009162978269159794,0.01038470957428217
1782774757716889600,6.1978896484375,0.003054326167330146,-0.0006108652451075613,0.025045474991202354
1782774757726920700,6.207920654296875,-0.015271631069481373,-0.010995574295520782,0.04337143152952194
1782774757736909000,6.217908935546875,-0.028099801391363144,-0.01160643994808197,0.0555887371301651
1782774757746910000,6.227909912109375,-0.02015855349600315,-0.012828170321881771,0.05192354694008827
1782774757756898000,6.23789794921875,0.0012217304902151227,-0.005497787147760391,0.0403171069920063
1782774757766929400,6.247929443359375,0.01160643994808197,-0.005497787147760391,0.031154127791523933
1782774757776887000,6.257886962890625,0.012217304669320583,-0.00855211354792118,0.021380282938480377
1782774757786918100,6.267918212890625,0.014049900695681572,0,0.010995574295520782
1782774757796906800,6.27790673828125,0.010995574295520782,0.004886921960860491,0.003054326167330146
1782774757806907400,6.287907470703125,0.0024434609804302454,-0.0012217304902151227,-0.003054326167330146
1782774757816894700,6.297894775390625,-0.00366519158706069,0.0006108652451075613,-0.014049900695681572
1782774757826926300,6.30792626953125,-0.00427605677396059,0.013439035043120384,-0.027488935738801956
1782774757836884000,6.317884033203125,-0.0006108652451075613,0.02321287989616394,-0.03176499158143997
1782774757846915300,6.327915283203125,0.0006108652451075613,0.013439035043120384,-0.021380282938480377
1782774757856903700,6.337903564453125,-0.004886921960860491,0.003054326167330146,-0.0024434609804302454
1782774757866904300,6.347904296875,-0.00427605677396059,0.019547687843441963,0.01038470957428217
1782774757876892700,6.357892578125,-0.0012217304902151227,0.04337143152952194,0.01160643994808197
1782774757886923800,6.367923828125,0.01160643994808197,0.05375614017248154,0.00855211354792118
1782774757896882000,6.3778818359375,0.01771509274840355,0.04764748737215996,0.013439035043120384
1782774757906913000,6.3879130859375,0.01771509274840355,0.033597588539123535,0.016493361443281174
1782774757916901600,6.397901611328125,0.01771509274840355,0.04153883829712868,0.01771509274840355
1782774757926902300,6.40790234375,0.014049900695681572,0.05009094998240471,0.009773843921720982
1782774757936890600,6.417890625,0.01466076634824276,0.059864792972803116,-0.003054326167330146
1782774757946922000,6.427921875,0.012217304669320583,0.060475658625364304,-0.012828170321881771
1782774757956910300,6.437910400390625,0.01038470957428217,0.05864306539297104,-0.01160643994808197
1782774757966910700,6.44791064453125,0.00427605677396059,0.05192354694008827,-0.0006108652451075613
1782774757976899300,6.4578994140625,-0.001832595793530345,0.04337143152952194,0.010995574295520782
1782774757986930200,6.46793017578125,-0.00855211354792118,0.036651913076639175,0.016493361443281174
1782774757996888300,6.477888427734375,-0.01710422709584236,0.036041051149368286,0.01160643994808197
1782774758006888400,6.487888427734375,-0.016493361443281174,0.042760565876960754,0.0012217304902151227
1782774758016969000,6.497968994140625,-0.015882495790719986,0.06108652427792549,-0.004886921960860491
1782774758026877400,6.50787744140625,-0.016493361443281174,0.06719517707824707,-0.0012217304902151227
1782774758036917800,6.517917724609375,-0.015271631069481373,0.05192354694008827,0.014049900695681572
1782774758046989300,6.5279892578125,-0.012828170321881771,0.03420845419168472,0.03420845419168472
1782774758056886000,6.537885986328125,-0.01160643994808197,0.025045474991202354,0.0507018156349659
1782774758066886000,6.547885986328125,-0.010995574295520782,0.015882495790719986,0.054367005825042725
1782774758077912600,6.55891259765625,-0.001832595793530345,0.0012217304902151227,0.031154127791523933
1782774758096894500,6.57789453125,-0.018936822190880775,0.009162978269159794,-0.021380282938480377
1782774758106925600,6.587925537109375,-0.027488935738801956,0.012217304669320583,-0.04398229718208313
1782774758116883500,6.597883544921875,-0.027488935738801956,0.00427605677396059,-0.04948008432984352
1782774758126914800,6.607914794921875,-0.019547687843441963,-0.014049900695681572,-0.0403171069920063
1782774758136862700,6.61786279296875,-0.007941247895359993,-0.03176499158143997,-0.021991148591041565
1782774758146995200,6.6279951171875,0.0006108652451075613,-0.039706241339445114,-0.00366519158706069
1782774758156892000,6.637891845703125,0.004886921960860491,-0.042760565876960754,0.013439035043120384
1782774758166923000,6.647923095703125,-0.0006108652451075613,-0.03481931984424591,0.021380282938480377
1782774758176881000,6.657880859375,-0.00733038317412138,-0.021991148591041565,0.021380282938480377
1782774758186912300,6.667912353515625,-0.00733038317412138,-0.01038470957428217,0.022602014243602753
1782774758196900600,6.677900634765625,-0.009162978269159794,-0.018325956538319588,0.022602014243602753
1782774758206931700,6.687931640625,-0.016493361443281174,-0.042760565876960754,0.016493361443281174
1782774758216889600,6.6978896484375,-0.022602014243602753,-0.0403171069920063,0.005497787147760391
1782774758226920700,6.707920654296875,-0.02687807008624077,-0.02871066704392433,-0.009773843921720982
1782774758236909000,6.717908935546875,-0.030543262138962746,-0.02932153269648552,-0.018936822190880775
1782774758246909400,6.727909423828125,-0.03176499158143997,-0.04092797264456749,-0.019547687843441963
1782774758256898000,6.73789794921875,-0.025656340643763542,-0.05192354694008827,-0.02321287989616394
1782774758266929400,6.747929443359375,-0.022602014243602753,-0.04337143152952194,-0.02932153269648552
1782774758276887000,6.757886962890625,-0.02076941914856434,-0.02871066704392433,-0.0403171069920063
1782774758286918400,6.76791845703125,-0.018936822190880775,-0.02076941914856434,-0.051312681287527084
1782774758296866600,6.777866455078125,-0.015271631069481373,-0.021380282938480377,-0.05619960278272629
1782774758306998800,6.787998779296875,-0.013439035043120384,-0.02626720629632473,-0.04948008432984352
1782774758316895700,6.797895751953125,-0.013439035043120384,-0.02626720629632473,-0.036041051149368286
1782774758326927000,6.807927001953125,-0.013439035043120384,-0.02321287989616394,-0.024434609338641167
1782774758336884700,6.817884765625,-0.01466076634824276,-0.019547687843441963,-0.012217304669320583
1782774758346915800,6.827915771484375,-0.021991148591041565,-0.015271631069481373,0.001832595793530345
1782774758356864000,6.837864013671875,-0.033597588539123535,0.006108652334660292,0.021991148591041565
1782774758366996500,6.84799658203125,-0.039095375686883926,0.01710422709584236,0.031154127791523933
1782774758376853000,6.85785302734375,-0.02871066704392433,0.01466076634824276,0.02932153269648552
1782774758386985500,6.8679853515625,0.001832595793530345,0.016493361443281174,0.02382374368607998
1782774758396882200,6.877882080078125,0.028099801391363144,0.014049900695681572,0.018936822190880775
1782774758406882600,6.887882568359375,0.04398229718208313,0.010995574295520782,0.015882495790719986
1782774758416962800,6.897962890625,0.04153883829712868,0.01466076634824276,0.015882495790719986
1782774758426902500,6.907902587890625,0.02321287989616394,0.00855211354792118,0.015271631069481373
1782774758436890600,6.917890625,0.006719517521560192,-0.0006108652451075613,0.015271631069481373
1782774758446890800,6.927890869140625,-0.01710422709584236,-0.010995574295520782,0.015882495790719986
1782774758456931000,6.93793115234375,-0.03726277872920036,-0.013439035043120384,0.001832595793530345
1782774758466971400,6.947971435546875,-0.03298672288656235,-0.00366519158706069,-0.030543262138962746
1782774758477915100,6.9589150390625,-0.009162978269159794,0.0354301854968071,-0.06352998316287994
1782774758496848100,6.97784814453125,-0.00366519158706069,0.05742133408784866,-0.04153883829712868
1782774758506980600,6.987980712890625,-0.0024434609804302454,0.05314527451992035,0.01771509274840355
1782774758516908000,6.997907958984375,-0.010995574295520782,0.045204028487205505,0.05864306539297104
1782774758526908400,7.007908447265625,-0.019547687843441963,0.03848451003432274,0.08002334833145142
1782774758536897000,7.01789697265625,-0.02626720629632473,0.04092797264456749,0.07819075137376785
1782774758546927900,7.027927978515625,-0.03237585723400116,0.045204028487205505,0.05864306539297104
1782774758556885800,7.0378857421875,-0.027488935738801956,0.05192354694008827,0.02687807008624077
1782774758566917000,7.047917236328125,-0.014049900695681572,0.04948008432984352,-0.012217304669320583
1782774758576905500,7.057905517578125,0.004886921960860491,0.04886921867728233,-0.04581489413976669
1782774758586906000,7.067906005859375,0.022602014243602753,0.04948008432984352,-0.05619960278272629
1782774758596894500,7.07789453125,0.018936822190880775,0.03726277872920036,-0.03237585723400116
1782774758606925600,7.087925537109375,-0.00427605677396059,0.02076941914856434,0.016493361443281174
1782774758616883500,7.097883544921875,-0.022602014243602753,0.012828170321881771,0.06414084881544113
1782774758626914800,7.107914794921875,-0.025656340643763542,0.01160643994808197,0.07941248267889023
1782774758636932900,7.117932861328125,-0.010995574295520782,0.01160643994808197,0.06414084881544113
1782774758646903600,7.127903564453125,0.005497787147760391,0.010995574295520782,0.033597588539123535
1782774758656892200,7.13789208984375,0.01771509274840355,0.007941247895359993,-0.001832595793530345
1782774758666923000,7.147923095703125,0.027488935738801956,0.012217304669320583,-0.02871066704392433
1782774758676881200,7.157881103515625,0.025656340643763542,0.009162978269159794,-0.03848451003432274
1782774758686912300,7.167912353515625,0.018325956538319588,0.006719517521560192,-0.036651913076639175
1782774758696900600,7.177900634765625,0.009162978269159794,0.00733038317412138,-0.03237585723400116
1782774758706931700,7.187931640625,0.010995574295520782,0.013439035043120384,-0.03420845419168472
1782774758716889600,7.1978896484375,0.01466076634824276,0.007941247895359993,-0.03420845419168472
1782774758726920700,7.207920654296875,0.007941247895359993,-0.003054326167330146,-0.028099801391363144
1782774758736909000,7.217908935546875,-0.0012217304902151227,-0.001832595793530345,-0.022602014243602753
1782774758746910000,7.227909912109375,-0.004886921960860491,0.003054326167330146,-0.021380282938480377
1782774758756898300,7.237898193359375,-0.0012217304902151227,0.00733038317412138,-0.018325956538319588
1782774758766929400,7.247929443359375,0.0024434609804302454,0.00855211354792118,-0.00733038317412138
1782774758776887000,7.257886962890625,0.006108652334660292,0.012217304669320583,0.013439035043120384
1782774758786918100,7.267918212890625,0.01771509274840355,0.012217304669320583,0.03237585723400116
1782774758796906500,7.277906494140625,0.03176499158143997,0.00733038317412138,0.054367005825042725
1782774758806907600,7.28790771484375,0.036041051149368286,0.009162978269159794,0.06902777403593063
1782774758816894500,7.29789453125,0.0354301854968071,0.013439035043120384,0.05803219974040985
1782774758826926300,7.30792626953125,0.03481931984424591,0.014049900695681572,0.027488935738801956
1782774758836844500,7.317844482421875,0.036651913076639175,0.027488935738801956,-0.006108652334660292
1782774758846976300,7.327976318359375,0.036041051149368286,0.02871066704392433,-0.030543262138962746
1782774758856903700,7.337903564453125,0.03787364438176155,0.010995574295520782,-0.03726277872920036
1782774758866904300,7.347904296875,0.036651913076639175,-0.015271631069481373,-0.03420845419168472
1782774758876892700,7.357892578125,0.027488935738801956,-0.033597588539123535,-0.03481931984424591
1782774758886923800,7.367923828125,0.021380282938480377,-0.033597588539123535,-0.039095375686883926
1782774758896882000,7.3778818359375,0.02382374368607998,-0.024434609338641167,-0.04214970022439957
1782774758906913000,7.3879130859375,0.04214970022439957,-0.021380282938480377,-0.04337143152952194
1782774758916902000,7.39790185546875,0.05864306539297104,-0.028099801391363144,-0.029932396486401558
1782774758926902500,7.407902587890625,0.06169738993048668,-0.036651913076639175,-0.01160643994808197
1782774758936891000,7.417890869140625,0.05619960278272629,-0.018936822190880775,0.001832595793530345
1782774758946922200,7.427922119140625,0.03848451003432274,-0.012828170321881771,-0.00366519158706069
1782774758956910300,7.437910400390625,0.02015855349600315,-0.009162978269159794,-0.014049900695681572
1782774758966910700,7.44791064453125,0.01160643994808197,-0.010995574295520782,-0.031154127791523933
1782774758976899300,7.4578994140625,0.019547687843441963,-0.01710422709584236,-0.054367005825042725
1782774758986930400,7.467930419921875,0.036651913076639175,-0.027488935738801956,-0.07208210229873657
1782774758996888300,7.477888427734375,0.04764748737215996,-0.0354301854968071,-0.08307767659425735
1782774759006858000,7.48785791015625,0.05314527451992035,-0.028099801391363144,-0.08124507963657379
1782774759016999400,7.49799951171875,0.04092797264456749,-0.019547687843441963,-0.07513642311096191
1782774759026908700,7.50790869140625,0.02015855349600315,-0.009162978269159794,-0.06352998316287994
1782774759036856600,7.517856689453125,-0.0024434609804302454,0.00366519158706069,-0.051312681287527084
1782774759046989300,7.5279892578125,-0.025045474991202354,0.005497787147760391,-0.03787364438176155
1782774759056885800,7.5378857421875,-0.036041051149368286,0.013439035043120384,-0.02076941914856434
1782774759066886000,7.547885986328125,-0.02932153269648552,0.02015855349600315,-0.015271631069481373
1782774759076987400,7.5579873046875,-0.01771509274840355,0.02871066704392433,-0.018325956538319588
1782774759086966500,7.567966552734375,-0.00366519158706069,0.01771509274840355,-0.02321287989616394
1782774759096955400,7.577955322265625,0.005497787147760391,0.00733038317412138,-0.025045474991202354
1782774759106925600,7.587925537109375,0.001832595793530345,0.003054326167330146,-0.025045474991202354
1782774759116883500,7.597883544921875,-0.012828170321881771,-0.0024434609804302454,-0.031154127791523933
1782774759126914600,7.60791455078125,-0.025045474991202354,0.0012217304902151227,-0.036041051149368286
1782774759136903200,7.617903076171875,-0.029932396486401558,0.00366519158706069,-0.03298672288656235
1782774759146903600,7.627903564453125,-0.030543262138962746,0.01710422709584236,-0.025656340643763542
1782774759156892200,7.63789208984375,-0.03237585723400116,0.02076941914856434,-0.02321287989616394
1782774759166892000,7.64789208984375,-0.02932153269648552,0.02321287989616394,-0.025656340643763542
1782774759176972500,7.65797265625,-0.01710422709584236,0.030543262138962746,-0.0354301854968071
1782774759186912000,7.667912109375,-0.006108652334660292,0.025656340643763542,-0.033597588539123535
1782774759198191900,7.67919189453125,-0.006108652334660292,0.01160643994808197,-0.022602014243602753
1782774759216889600,7.6978896484375,-0.015271631069481373,0.0024434609804302454,-0.004886921960860491
1782774759226920700,7.707920654296875,-0.028099801391363144,0.001832595793530345,-0.004886921960860491
1782774759236909000,7.717908935546875,-0.0403171069920063,-0.006108652334660292,-0.007941247895359993
1782774759246910000,7.727909912109375,-0.048258353024721146,-0.010995574295520782,-0.009162978269159794
1782774759256898000,7.73789794921875,-0.04948008432984352,0.005497787147760391,-0.012217304669320583
1782774759266929400,7.747929443359375,-0.03481931984424591,0.015882495790719986,-0.019547687843441963
1782774759276887000,7.757886962890625,-0.01160643994808197,0.012217304669320583,-0.01710422709584236
1782774759286887200,7.76788720703125,0,0.015271631069481373,0.003054326167330146
1782774759296927500,7.777927490234375,-0.0006108652451075613,0.021991148591041565,0.03176499158143997
1782774759306998800,7.787998779296875,-0.009773843921720982,0.01160643994808197,0.04886921867728233
1782774759316895700,7.797895751953125,-0.013439035043120384,0.003054326167330146,0.04092797264456749
1782774759326927000,7.807927001953125,-0.014049900695681572,-0.004886921960860491,0.015882495790719986
1782774759336884500,7.817884521484375,-0.022602014243602753,-0.012828170321881771,-0.009773843921720982
1782774759346916000,7.827916015625,-0.02871066704392433,-0.009162978269159794,-0.02687807008624077
1782774759356904000,7.837904052734375,-0.0354301854968071,0.02321287989616394,-0.030543262138962746
1782774759366904600,7.847904541015625,-0.03237585723400116,0.04642575979232788,-0.029932396486401558
1782774759376893200,7.85789306640625,-0.019547687843441963,0.08185594528913498,-0.021380282938480377
1782774759386924300,7.86792431640625,-0.0024434609804302454,0.11789698898792267,-0.01771509274840355
1782774759396882200,7.877882080078125,0.016493361443281174,0.13377949595451355,-0.024434609338641167
1782774759406913300,7.887913330078125,0.045204028487205505,0.18020524084568024,0.012217304669320583
1782774759416902000,7.89790185546875,0.04398229718208313,0.09224065393209457,0.1466076523065567
1782774759426902300,7.90790234375,0.05742133408784866,-0.11423180252313614,0.14905111491680145
1782774759436890600,7.917890625,0.03420845419168472,-0.1160643994808197,0.0403171069920063
1782774759446921500,7.92792138671875,-0.01466076634824276,0.018936822190880775,-0.10506882518529892
1782774759456910300,7.937910400390625,-0.036041051149368286,0.11056660860776901,-0.24007004499435425
1782774759466911000,7.947910888671875,-0.03176499158143997,0.12339477986097336,-0.32131510972976685
1782774759476899300,7.9578994140625,-0.04092797264456749,0.04764748737215996,-0.34513887763023376
1782774759486930400,7.967930419921875,-0.042760565876960754,-0.051312681287527084,-0.3182607889175415
1782774759496888300,7.977888427734375,-0.04703662544488907,-0.12400564551353455,-0.28649580478668213
1782774759506921500,7.98792138671875,-0.036651913076639175,-0.10018189996480942,-0.23396138846874237
