time,seconds_elapsed,z,y,x
1782774769946676200,0.18067626953125,0.010995574295520782,-0.001832595793530345,0.08552113175392151
1782774769956845800,0.190845703125,-0.006108652334660292,-0.00427605677396059,0.06108652427792549
1782774769966846500,0.200846435546875,0.0012217304902151227,0.01710422709584236,0.025045474991202354
1782774769976834800,0.210834716796875,-0.003054326167330146,0.024434609338641167,0.001832595793530345
1782774769986866000,0.220865966796875,-0.003054326167330146,0.009162978269159794,-0.01466076634824276
1782774769996823600,0.230823486328125,0.015271631069481373,-0.004886921960860491,-0.024434609338641167
1782774770006854700,0.240854736328125,0.027488935738801956,-0.022602014243602753,-0.021991148591041565
1782774770016843300,0.25084326171875,0.02687807008624077,-0.03298672288656235,-0.016493361443281174
1782774770026844200,0.26084423828125,0.025045474991202354,-0.02871066704392433,-0.012828170321881771
1782774770036832300,0.270832275390625,0.012828170321881771,-0.01710422709584236,-0.003054326167330146
1782774770046863400,0.28086328125,-0.007941247895359993,0.010995574295520782,0.02015855349600315
1782774770056821200,0.2908212890625,-0.016493361443281174,0.027488935738801956,0.05253441259264946
1782774770066852600,0.3008525390625,-0.00855211354792118,0.039095375686883926,0.08429940044879913
1782774770076841000,0.310841064453125,0.003054326167330146,0.03237585723400116,0.10384709388017654
1782774770086841300,0.32084130859375,0.015271631069481373,0.015271631069481373,0.10384709388017654
1782774770096829700,0.33082958984375,0.027488935738801956,0.015271631069481373,0.09224065393209457
1782774770106860500,0.340860595703125,0.01710422709584236,0.00855211354792118,0.07208210229873657
1782774770116819000,0.35081884765625,0.00733038317412138,-0.00733038317412138,0.033597588539123535
1782774770126849800,0.360849853515625,0.006719517521560192,-0.013439035043120384,-0.009773843921720982
1782774770136838100,0.370838134765625,-0.007941247895359993,-0.019547687843441963,-0.042760565876960754
1782774770146838800,0.3808388671875,-0.02015855349600315,-0.02382374368607998,-0.06536258012056351
1782774770156827400,0.390827392578125,-0.022602014243602753,-0.021380282938480377,-0.07452555745840073
1782774770166858500,0.4008583984375,-0.02015855349600315,-0.01710422709584236,-0.06658431142568588
1782774770176816400,0.41081640625,-0.007941247895359993,-0.00427605677396059,-0.039095375686883926
1782774770186847200,0.42084716796875,0.010995574295520782,0.006108652334660292,-0.0012217304902151227
1782774770196836000,0.430836181640625,0.03237585723400116,-0.0024434609804302454,0.025045474991202354
1782774770206867500,0.440867431640625,0.056810468435287476,-0.00366519158706069,0.04153883829712868
1782774770216824800,0.450824951171875,0.06841690838336945,0.00733038317412138,0.056810468435287476
1782774770226856000,0.46085595703125,0.05253441259264946,0.00733038317412138,0.06169738993048668
1782774770236844300,0.47084423828125,0.027488935738801956,0.0012217304902151227,0.0507018156349659
1782774770246845000,0.480844970703125,0.005497787147760391,-0.0012217304902151227,0.024434609338641167
1782774770256833500,0.49083349609375,-0.01160643994808197,-0.0024434609804302454,-0.00855211354792118
1782774770266864600,0.50086474609375,-0.013439035043120384,-0.0006108652451075613,-0.0403171069920063
1782774770276822500,0.510822509765625,0.0006108652451075613,0.001832595793530345,-0.059864792972803116
1782774770286853600,0.520853515625,0.018325956538319588,-0.0006108652451075613,-0.05803219974040985
1782774770296842000,0.530842041015625,0.03481931984424591,-0.0012217304902151227,-0.03420845419168472
1782774770306842600,0.540842529296875,0.039095375686883926,0.004886921960860491,0.003054326167330146
1782774770316831000,0.5508310546875,0.031154127791523933,0.015271631069481373,0.036651913076639175
1782774770326862000,0.560862060546875,0.02076941914856434,0.018325956538319588,0.05314527451992035
1782774770336820000,0.570820068359375,0.01038470957428217,0.013439035043120384,0.05253441259264946
1782774770346851300,0.580851318359375,0.01038470957428217,0.01160643994808197,0.036651913076639175
1782774770356839700,0.590839599609375,0.018325956538319588,0.00733038317412138,0.003054326167330146
1782774770366840000,0.600840087890625,0.012828170321881771,0.0024434609804302454,-0.015882495790719986
1782774770376828700,0.61082861328125,0.01038470957428217,0.003054326167330146,-0.033597588539123535
1782774770386859800,0.62085986328125,0.01160643994808197,0.012217304669320583,-0.0354301854968071
1782774770396817700,0.630817626953125,0.006719517521560192,0.012828170321881771,-0.022602014243602753
1782774770406849000,0.64084912109375,0.005497787147760391,0.001832595793530345,-0.009773843921720982
1782774770416836900,0.6508369140625,0.009162978269159794,-0.0012217304902151227,0.0012217304902151227
1782774770426837500,0.66083740234375,0.006719517521560192,0.0024434609804302454,0.010995574295520782
1782774770436826000,0.670826171875,0.00733038317412138,0.003054326167330146,0.02382374368607998
1782774770446857200,0.680857177734375,0.006108652334660292,-0.0006108652451075613,0.036651913076639175
1782774770456845600,0.690845458984375,0.00366519158706069,-0.007941247895359993,0.04153883829712868
1782774770466846200,0.70084619140625,-0.00366519158706069,-0.007941247895359993,0.03787364438176155
1782774770476834600,0.71083447265625,-0.015271631069481373,-0.005497787147760391,0.021380282938480377
1782774770486866200,0.7208662109375,-0.018325956538319588,0.00366519158706069,-0.0012217304902151227
1782774770496823600,0.730823486328125,-0.01710422709584236,0.006719517521560192,-0.02015855349600315
1782774770506855000,0.74085498046875,-0.018325956538319588,-0.006719517521560192,-0.028099801391363144
1782774770516843300,0.75084326171875,-0.019547687843441963,-0.013439035043120384,-0.02015855349600315
1782774770526844000,0.760843994140625,-0.018325956538319588,-0.006719517521560192,-0.003054326167330146
1782774770536832300,0.770832275390625,-0.018936822190880775,-0.013439035043120384,0.00733038317412138
1782774770546863400,0.78086328125,-0.005497787147760391,-0.02626720629632473,0.009162978269159794
1782774770556821200,0.7908212890625,0.006719517521560192,-0.024434609338641167,0.004886921960860491
1782774770566852400,0.800852294921875,0.009162978269159794,-0.015882495790719986,-0.009773843921720982
1782774770576840700,0.8108408203125,0.00855211354792118,0.00427605677396059,-0.016493361443281174
1782774770586841000,0.820841064453125,-0.006108652334660292,0.012217304669320583,-0.00733038317412138
1782774770596829700,0.83082958984375,-0.025656340643763542,0.009773843921720982,0.014049900695681572
1782774770606861000,0.840861083984375,-0.0403171069920063,0.02321287989616394,0.036041051149368286
1782774770616819000,0.85081884765625,-0.04948008432984352,0.03420845419168472,0.05192354694008827
1782774770626850300,0.860850341796875,-0.0555887371301651,0.04092797264456749,0.07819075137376785
1782774770636868400,0.870868408203125,-0.03787364438176155,0.04948008432984352,0.08185594528913498
1782774770646839000,0.880839111328125,-0.013439035043120384,0.029932396486401558,0.07269296050071716
1782774770656827400,0.890827392578125,0.0006108652451075613,0.00366519158706069,0.05253441259264946
1782774770666858500,0.9008583984375,0.003054326167330146,-0.0024434609804302454,0.02871066704392433
1782774770676816400,0.91081640625,-0.01466076634824276,0.0012217304902151227,0.00855211354792118
1782774770686847700,0.92084765625,-0.04459316283464432,0.005497787147760391,0
1782774770696836000,0.930836181640625,-0.06780604273080826,0.006719517521560192,-0.006719517521560192
1782774770706867500,0.940867431640625,-0.07269296050071716,0.00733038317412138,-0.005497787147760391
1782774770716825000,0.9508251953125,-0.06658431142568588,0.00427605677396059,-0.0012217304902151227
1782774770726856200,0.960856201171875,-0.04581489413976669,0.009773843921720982,0.010995574295520782
1782774770736844500,0.970844482421875,-0.021380282938480377,0.03237585723400116,0.036041051149368286
1782774770746845200,0.98084521484375,-0.013439035043120384,0.045204028487205505,0.07391469180583954
1782774770756833500,0.99083349609375,-0.007941247895359993,0.015882495790719986,0.09346238523721695
1782774770766864600,1.00086474609375,-0.0024434609804302454,0.033597588539123535,0.09468411654233932
1782774770776822500,1.010822509765625,0.004886921960860491,0.02687807008624077,0.07452555745840073
1782774770786853600,1.020853515625,0.012217304669320583,0.028099801391363144,0.06108652427792549
1782774770796842200,1.03084228515625,0.015271631069481373,0.018325956538319588,0.04337143152952194
1782774770806842600,1.040842529296875,0.003054326167330146,0.01160643994808197,0.03237585723400116
1782774770816830000,1.050829833984375,-0.01160643994808197,0.01038470957428217,0.024434609338641167
1782774770826861600,1.060861572265625,-0.022602014243602753,0.00855211354792118,0.005497787147760391
1782774770836819500,1.0708193359375,-0.018936822190880775,0.016493361443281174,-0.02382374368607998
1782774770846850600,1.0808505859375,-0.0006108652451075613,0.02626720629632473,-0.05253441259264946
1782774770856839200,1.090839111328125,0.013439035043120384,0.02687807008624077,-0.06108652427792549
1782774770866839600,1.100839599609375,0.015882495790719986,0.02382374368607998,-0.042760565876960754
1782774770876828200,1.110828125,0.009162978269159794,0.01771509274840355,-0.012217304669320583
1782774770886859000,1.12085888671875,0.006719517521560192,0.018325956538319588,0.015882495790719986
1782774770896817200,1.130817138671875,0.0024434609804302454,0.02932153269648552,0.031154127791523933
1782774770906848300,1.14084814453125,-0.0006108652451075613,0.03298672288656235,0.0354301854968071
1782774770916837000,1.150837158203125,0.00366519158706069,0.0354301854968071,0.029932396486401558
1782774770926837800,1.160837646484375,0.0012217304902151227,0.025656340643763542,0.012217304669320583
1782774770936826000,1.170826171875,0.00427605677396059,0.022602014243602753,-0.014049900695681572
1782774770946857200,1.180857177734375,0.009162978269159794,0.02382374368607998,-0.033597588539123535
1782774770956845600,1.190845458984375,0.006719517521560192,0.018325956538319588,-0.03298672288656235
1782774770966846200,1.20084619140625,0,0.014049900695681572,-0.02015855349600315
1782774770976834600,1.21083447265625,-0.01038470957428217,0.012828170321881771,-0.004886921960860491
1782774770986866000,1.220865966796875,-0.015271631069481373,0.02076941914856434,0.007941247895359993
1782774770996823600,1.230823486328125,-0.016493361443281174,0.027488935738801956,0.012217304669320583
1782774771006855000,1.24085498046875,-0.01710422709584236,0.02932153269648552,0.01710422709584236
1782774771016843300,1.25084326171875,-0.015271631069481373,0.02076941914856434,0.018936822190880775
1782774771026844000,1.260843994140625,-0.006719517521560192,0.018936822190880775,0.018325956538319588
1782774771036832000,1.27083203125,-0.00366519158706069,0.016493361443281174,0.018325956538319588
1782774771046863400,1.28086328125,-0.01038470957428217,0.009773843921720982,0.02076941914856434
1782774771056821200,1.2908212890625,-0.018325956538319588,0.01160643994808197,0.021991148591041565
1782774771066852600,1.3008525390625,-0.02932153269648552,0.014049900695681572,0.019547687843441963
1782774771076841000,1.310841064453125,-0.02626720629632473,0.001832595793530345,0.00733038317412138
1782774771086841600,1.320841552734375,-0.009773843921720982,-0.01466076634824276,-0.003054326167330146
1782774771096829700,1.33082958984375,0.001832595793530345,-0.030543262138962746,-0.015882495790719986
1782774771106861000,1.340861083984375,0.009773843921720982,-0.03420845419168472,-0.031154127791523933
1782774771116818700,1.350818603515625,0.01466076634824276,-0.021380282938480377,-0.04459316283464432
1782774771126849800,1.360849853515625,0.01466076634824276,-0.019547687843441963,-0.04092797264456749
1782774771136838400,1.37083837890625,0.003054326167330146,-0.02321287989616394,-0.029932396486401558
1782774771146838800,1.3808388671875,-0.007941247895359993,-0.013439035043120384,-0.010995574295520782
1782774771156827400,1.390827392578125,-0.01771509274840355,0.004886921960860491,0.012217304669320583
1782774771166858500,1.4008583984375,-0.018325956538319588,0.00733038317412138,0.03237585723400116
1782774771176816400,1.41081640625,-0.0024434609804302454,0.0006108652451075613,0.03787364438176155
1782774771186847200,1.42084716796875,0.01466076634824276,0.0006108652451075613,0.03420845419168472
1782774771196835800,1.4308359375,0.02076941914856434,-0.004886921960860491,0.01710422709584236
1782774771206867000,1.440866943359375,0.015882495790719986,-0.003054326167330146,0.001832595793530345
1782774771216824800,1.450824951171875,0.012217304669320583,-0.00427605677396059,-0.009773843921720982
1782774771226856000,1.46085595703125,0.014049900695681572,-0.01038470957428217,-0.022602014243602753
1782774771236844300,1.47084423828125,0.016493361443281174,-0.005497787147760391,-0.030543262138962746
1782774771246845000,1.480844970703125,0.02015855349600315,-0.01038470957428217,-0.030543262138962746
1782774771256833500,1.49083349609375,0.019547687843441963,-0.010995574295520782,-0.027488935738801956
1782774771266864600,1.50086474609375,0.018936822190880775,-0.01038470957428217,-0.02321287989616394
1782774771276822500,1.510822509765625,0.016493361443281174,-0.009773843921720982,-0.01466076634824276
1782774771286853600,1.520853515625,0.013439035043120384,-0.004886921960860491,-0.009773843921720982
1782774771296842000,1.530842041015625,0.013439035043120384,-0.0006108652451075613,-0.006108652334660292
1782774771306842600,1.540842529296875,0.015271631069481373,-0.00427605677396059,-0.006108652334660292
1782774771316831000,1.5508310546875,0.015271631069481373,-0.0012217304902151227,-0.004886921960860491
1782774771326862300,1.5608623046875,0.015882495790719986,-0.005497787147760391,-0.00366519158706069
1782774771336820000,1.570820068359375,0.016493361443281174,-0.005497787147760391,-0.00855211354792118
1782774771346851300,1.580851318359375,0.027488935738801956,-0.006108652334660292,-0.01710422709584236
1782774771356839400,1.59083935546875,0.03298672288656235,-0.00427605677396059,-0.01710422709584236
1782774771366840000,1.600840087890625,0.02015855349600315,-0.009773843921720982,-0.018936822190880775
1782774771376828700,1.61082861328125,0.00427605677396059,-0.016493361443281174,-0.025656340643763542
1782774771386859800,1.62085986328125,-0.01160643994808197,-0.001832595793530345,-0.03237585723400116
1782774771396817700,1.630817626953125,-0.019547687843441963,0.01710422709584236,-0.036651913076639175
1782774771406849000,1.64084912109375,-0.01710422709584236,0.022602014243602753,-0.02932153269648552
1782774771416836900,1.6508369140625,-0.01160643994808197,0.012828170321881771,-0.01038470957428217
1782774771426837500,1.66083740234375,-0.00366519158706069,0.00366519158706069,0.00733038317412138
1782774771436826000,1.670826171875,0.00427605677396059,0.009773843921720982,0.019547687843441963
1782774771446857000,1.68085693359375,0.01038470957428217,0.02076941914856434,0.02932153269648552
1782774771456845600,1.690845458984375,0.009773843921720982,0.021380282938480377,0.04398229718208313
1782774771466846200,1.70084619140625,0.0024434609804302454,0.010995574295520782,0.05314527451992035
1782774771476834800,1.710834716796875,-0.009162978269159794,0.00427605677396059,0.04948008432984352
1782774771486866200,1.7208662109375,-0.01466076634824276,0.005497787147760391,0.02932153269648552
1782774771496823600,1.730823486328125,-0.019547687843441963,0.01160643994808197,0.0006108652451075613
1782774771506854700,1.740854736328125,-0.02321287989616394,0.012217304669320583,-0.02687807008624077
1782774771516843000,1.750843017578125,-0.015882495790719986,0.01466076634824276,-0.04337143152952194
1782774771526844000,1.760843994140625,-0.01466076634824276,0.00366519158706069,-0.039706241339445114
1782774771536832300,1.770832275390625,-0.015271631069481373,-0.001832595793530345,-0.02321287989616394
1782774771546863400,1.78086328125,-0.015271631069481373,0.00366519158706069,-0.0006108652451075613
1782774771556821200,1.7908212890625,-0.01466076634824276,0.00366519158706069,0.01771509274840355
1782774771566852600,1.8008525390625,-0.009162978269159794,0,0.02871066704392433
1782774771576840700,1.8108408203125,-0.0024434609804302454,0,0.03481931984424591
1782774771586841600,1.820841552734375,0,0.00427605677396059,0.03726277872920036
1782774771596829700,1.83082958984375,-0.0012217304902151227,0.00427605677396059,0.02382374368607998
1782774771606860800,1.84086083984375,0.009773843921720982,0.018325956538319588,0.00427605677396059
1782774771616818700,1.850818603515625,0.013439035043120384,0.021991148591041565,-0.00855211354792118
1782774771626850000,1.86085009765625,0.021380282938480377,-0.0006108652451075613,-0.02626720629632473
1782774771636838400,1.87083837890625,0.027488935738801956,0.009773843921720982,-0.030543262138962746
1782774771646838800,1.8808388671875,0.01771509274840355,0.015882495790719986,-0.025045474991202354
1782774771656827400,1.890827392578125,0.006108652334660292,0.016493361443281174,-0.01160643994808197
1782774771666858500,1.9008583984375,-0.0024434609804302454,0.015271631069481373,0.001832595793530345
1782774771676816400,1.91081640625,-0.00733038317412138,0.01160643994808197,0.01160643994808197
1782774771686847500,1.920847412109375,-0.00427605677396059,0.015271631069481373,0.004886921960860491
1782774771696836000,1.930836181640625,0.007941247895359993,0.029932396486401558,-0.00366519158706069
1782774771706867000,1.940866943359375,0.014049900695681572,0.036041051149368286,-0.00733038317412138
1782774771716825000,1.9508251953125,0.01710422709584236,0.03481931984424591,0.004886921960860491
1782774771726856000,1.96085595703125,0.021380282938480377,0.02382374368607998,0.02871066704392433
1782774771736844300,1.97084423828125,0.025656340643763542,0.0024434609804302454,0.04886921867728233
1782774771746845200,1.98084521484375,0.02015855349600315,-0.01038470957428217,0.0555887371301651
1782774771756833500,1.99083349609375,0.015271631069481373,-0.00855211354792118,0.04642575979232788
1782774771766864600,2.00086474609375,0.006108652334660292,-0.0012217304902151227,0.031154127791523933
1782774771776822500,2.010822509765625,-0.00855211354792118,-0.006108652334660292,0.006108652334660292
1782774771786853600,2.020853515625,-0.001832595793530345,-0.007941247895359993,-0.02076941914856434
1782774771796842200,2.03084228515625,0.00427605677396059,-0.014049900695681572,-0.036041051149368286
1782774771806842600,2.040842529296875,0.015882495790719986,-0.021991148591041565,-0.039095375686883926
1782774771816830000,2.050829833984375,0.025656340643763542,-0.022602014243602753,-0.02626720629632473
1782774771826861600,2.060861572265625,0.022602014243602753,-0.024434609338641167,0.0012217304902151227
1782774771836819500,2.0708193359375,0.016493361443281174,-0.03848451003432274,0.02321287989616394
1782774771846850800,2.080850830078125,0.018936822190880775,-0.03787364438176155,0.03298672288656235
1782774771856839200,2.090839111328125,0.018936822190880775,-0.04092797264456749,0.029932396486401558
1782774771866839600,2.100839599609375,0.021380282938480377,-0.048258353024721146,0.016493361443281174
1782774771876828200,2.110828125,0.02321287989616394,-0.04886921867728233,-0.001832595793530345
1782774771886859000,2.12085888671875,0.02015855349600315,-0.04764748737215996,-0.02321287989616394
1782774771896817200,2.130817138671875,0.01710422709584236,-0.04337143152952194,-0.0403171069920063
1782774771906848300,2.14084814453125,0.014049900695681572,-0.04153883829712868,-0.04581489413976669
1782774771916836900,2.1508369140625,0.014049900695681572,-0.042760565876960754,-0.0403171069920063
1782774771926837800,2.160837646484375,0.01771509274840355,-0.0354301854968071,-0.02076941914856434
1782774771936826000,2.170826171875,0.01466076634824276,-0.027488935738801956,0.006108652334660292
1782774771946857500,2.180857421875,0.013439035043120384,-0.028099801391363144,0.02871066704392433
1782774771956845600,2.190845458984375,0.015271631069481373,-0.015271631069481373,0.04337143152952194
1782774771966846500,2.200846435546875,0.012828170321881771,-0.009773843921720982,0.04948008432984352
1782774771976834600,2.21083447265625,0.014049900695681572,-0.014049900695681572,0.048258353024721146
1782774771986866000,2.220865966796875,0.01710422709584236,-0.014049900695681572,0.03420845419168472
1782774771996823600,2.230823486328125,0.018325956538319588,-0.015271631069481373,0.01466076634824276
1782774772006855000,2.24085498046875,0.009162978269159794,-0.007941247895359993,0.0006108652451075613
1782774772016843300,2.25084326171875,0.004886921960860491,-0.001832595793530345,-0.005497787147760391
1782774772026844000,2.260843994140625,0.0024434609804302454,0.005497787147760391,0.0012217304902151227
1782774772036832300,2.270832275390625,0.009773843921720982,0.004886921960860491,0.009162978269159794
1782774772046863400,2.28086328125,0.024434609338641167,-0.003054326167330146,0.024434609338641167
1782774772056821200,2.2908212890625,0.024434609338641167,-0.005497787147760391,0.03787364438176155
1782774772066852400,2.300852294921875,0.01038470957428217,0.0006108652451075613,0.045204028487205505
1782774772076840700,2.3108408203125,0.0012217304902151227,0.0012217304902151227,0.04337143152952194
1782774772086841300,2.32084130859375,0.001832595793530345,0.0012217304902151227,0.027488935738801956
1782774772096829700,2.33082958984375,0.009773843921720982,-0.005497787147760391,0.006719517521560192
1782774772106860800,2.34086083984375,0.01771509274840355,-0.010995574295520782,-0.009773843921720982
1782774772116819000,2.35081884765625,0.012828170321881771,-0.007941247895359993,-0.014049900695681572
1782774772126849800,2.360849853515625,0.003054326167330146,-0.00855211354792118,-0.010995574295520782
1782774772136838100,2.370838134765625,-0.0012217304902151227,-0.004886921960860491,-0.009773843921720982
1782774772146838800,2.3808388671875,0.0006108652451075613,-0.006719517521560192,-0.009162978269159794
1782774772156827400,2.390827392578125,0.012828170321881771,-0.012828170321881771,-0.01710422709584236
1782774772166858200,2.400858154296875,0.02871066704392433,-0.006108652334660292,-0.015271631069481373
1782774772176816400,2.41081640625,0.03176499158143997,-0.00855211354792118,-0.003054326167330146
1782774772186847500,2.420847412109375,0.02687807008624077,-0.009162978269159794,0.013439035043120384
1782774772196836000,2.430836181640625,0.012828170321881771,0.007941247895359993,0.029932396486401558
1782774772206867000,2.440866943359375,-0.007941247895359993,0.030543262138962746,0.039095375686883926
1782774772216824800,2.450824951171875,-0.018936822190880775,0.04214970022439957,0.036041051149368286
1782774772226856000,2.46085595703125,-0.013439035043120384,0.045204028487205505,0.027488935738801956
1782774772236844300,2.47084423828125,-0.0006108652451075613,0.03298672288656235,0.02076941914856434
1782774772246845000,2.480844970703125,0.012217304669320583,0.02321287989616394,0.016493361443281174
1782774772256833500,2.49083349609375,0.01466076634824276,0.02015855349600315,0.018936822190880775
1782774772266864600,2.50086474609375,0.007941247895359993,0.016493361443281174,0.030543262138962746
1782774772276822500,2.510822509765625,0.007941247895359993,0.01710422709584236,0.036041051149368286
1782774772286853600,2.520853515625,0.01038470957428217,0.007941247895359993,0.02871066704392433
1782774772296842000,2.530842041015625,0.007941247895359993,-0.0012217304902151227,0.012828170321881771
1782774772306842600,2.540842529296875,0.009162978269159794,-0.0012217304902151227,-0.012217304669320583
1782774772316831000,2.5508310546875,0.003054326167330146,0.0006108652451075613,-0.027488935738801956
1782774772326862000,2.560862060546875,-0.009773843921720982,-0.006719517521560192,-0.036041051149368286
1782774772336820000,2.570820068359375,-0.01466076634824276,-0.01160643994808197,-0.039095375686883926
1782774772346851000,2.58085107421875,-0.015271631069481373,-0.01160643994808197,-0.03481931984424591
1782774772356839700,2.590839599609375,-0.005497787147760391,-0.012217304669320583,-0.02382374368607998
1782774772366840000,2.600840087890625,0.006719517521560192,-0.013439035043120384,-0.01160643994808197
1782774772376828700,2.61082861328125,0.007941247895359993,-0.012828170321881771,0.001832595793530345
1782774772386859500,2.620859619140625,0.01160643994808197,-0.012828170321881771,0.013439035043120384
1782774772396817400,2.6308173828125,0.02015855349600315,-0.01160643994808197,0.019547687843441963
1782774772406848800,2.640848876953125,0.025045474991202354,-0.010995574295520782,0.024434609338641167
1782774772416837000,2.650837158203125,0.02015855349600315,-0.02015855349600315,0.024434609338641167
1782774772426837800,2.660837646484375,0.009773843921720982,-0.012217304669320583,0.022602014243602753
1782774772436826000,2.670826171875,-0.009773843921720982,0.0006108652451075613,0.02321287989616394
1782774772446857200,2.680857177734375,-0.025656340643763542,0.001832595793530345,0.027488935738801956
1782774772456845600,2.690845458984375,-0.025045474991202354,0,0.024434609338641167
1782774772466846500,2.700846435546875,0.0006108652451075613,0.00366519158706069,0.005497787147760391
1782774772476834600,2.71083447265625,0.01466076634824276,0.007941247895359993,-0.00366519158706069
1782774772486866000,2.720865966796875,0.02076941914856434,0.006108652334660292,-0.001832595793530345
1782774772496823600,2.730823486328125,0.02871066704392433,0.01466076634824276,0.006719517521560192
1782774772506855000,2.74085498046875,0.028099801391363144,0.01771509274840355,0.021991148591041565
1782774772516843300,2.75084326171875,0.01710422709584236,0.006108652334660292,0.03848451003432274
1782774772526843600,2.76084375,0.0006108652451075613,-0.00366519158706069,0.04764748737215996
1782774772536832300,2.770832275390625,-0.01038470957428217,0.0012217304902151227,0.039706241339445114
1782774772546863600,2.780863525390625,-0.010995574295520782,0.012217304669320583,0.01466076634824276
1782774772556821200,2.7908212890625,-0.006719517521560192,0.01710422709584236,-0.00855211354792118
1782774772566852400,2.800852294921875,0.0012217304902151227,0.016493361443281174,-0.018936822190880775
1782774772576840700,2.8108408203125,0.00427605677396059,0.01038470957428217,-0.013439035043120384
1782774772586841300,2.82084130859375,0,0.005497787147760391,0.0024434609804302454
1782774772596830000,2.830829833984375,-0.009773843921720982,0.0012217304902151227,0.021991148591041565
1782774772606861300,2.840861328125,-0.02015855349600315,0.00427605677396059,0.03481931984424591
1782774772616818700,2.850818603515625,-0.028099801391363144,0.00427605677396059,0.0403171069920063
1782774772626849800,2.860849853515625,-0.025045474991202354,-0.00427605677396059,0.03726277872920036
1782774772636868400,2.870868408203125,-0.01160643994808197,-0.0024434609804302454,0.018936822190880775
1782774772646838800,2.8808388671875,0.0012217304902151227,0.0006108652451075613,-0.0012217304902151227
1782774772656827400,2.890827392578125,0.0006108652451075613,-0.00366519158706069,-0.015271631069481373
1782774772666858500,2.9008583984375,-0.00733038317412138,-0.001832595793530345,-0.02015855349600315
1782774772676816400,2.91081640625,-0.015271631069481373,0.00427605677396059,-0.02076941914856434
1782774772686847500,2.920847412109375,-0.01466076634824276,-0.0012217304902151227,-0.021380282938480377
1782774772696836000,2.930836181640625,-0.003054326167330146,-0.01038470957428217,-0.02687807008624077
1782774772706867000,2.940866943359375,0.00855211354792118,-0.015882495790719986,-0.033597588539123535
1782774772716825000,2.9508251953125,0.016493361443281174,-0.01038470957428217,-0.025656340643763542
1782774772726856000,2.96085595703125,0.006719517521560192,0.00427605677396059,-0.00427605677396059
1782774772736844500,2.970844482421875,-0.001832595793530345,0.009773843921720982,0.015271631069481373
1782774772746845000,2.980844970703125,-0.00427605677396059,0.015271631069481373,0.03298672288656235
1782774772756833500,2.99083349609375,-0.0006108652451075613,0.01710422709584236,0.045204028487205505
1782774772766864600,3.00086474609375,0.001832595793530345,0.02015855349600315,0.04581489413976669
1782774772776822500,3.010822509765625,0.0006108652451075613,0.02382374368607998,0.04153883829712868
1782774772786853600,3.020853515625,-0.0012217304902151227,0.027488935738801956,0.03237585723400116
1782774772796842200,3.03084228515625,-0.0012217304902151227,0.02382374368607998,0.018936822190880775
1782774772806842600,3.040842529296875,-0.00366519158706069,0.02382374368607998,0.010995574295520782
1782774772816830000,3.050829833984375,-0.006719517521560192,0.018325956538319588,0.009773843921720982
1782774772826861600,3.060861572265625,-0.005497787147760391,0.018936822190880775,0.009162978269159794
1782774772836819500,3.0708193359375,-0.006108652334660292,0.01710422709584236,0.015882495790719986
1782774772846850800,3.080850830078125,-0.006108652334660292,0.009162978269159794,0.02382374368607998
1782774772856839200,3.090839111328125,-0.0006108652451075613,0.006108652334660292,0.02626720629632473
1782774772866839600,3.100839599609375,0.007941247895359993,-0.0012217304902151227,0.02321287989616394
1782774772876828200,3.110828125,0.01466076634824276,-0.014049900695681572,0.01466076634824276
1782774772886859000,3.12085888671875,0.014049900695681572,-0.022602014243602753,-0.010995574295520782
1782774772896817200,3.130817138671875,0.00427605677396059,-0.018936822190880775,-0.033597588539123535
1782774772906848300,3.14084814453125,-0.004886921960860491,-0.009162978269159794,-0.0555887371301651
1782774772916837000,3.150837158203125,-0.009162978269159794,0.00427605677396059,-0.06475171446800232
1782774772926837800,3.160837646484375,-0.009773843921720982,0.00733038317412138,-0.056810468435287476
1782774772936826000,3.170826171875,0,0.01160643994808197,-0.031154127791523933
1782774772946857200,3.180857177734375,0.001832595793530345,0.009162978269159794,-0.0012217304902151227
1782774772956845600,3.190845458984375,0.0012217304902151227,0.0024434609804302454,0.01710422709584236
1782774772966846500,3.200846435546875,0.006108652334660292,0.005497787147760391,0.015271631069481373
1782774772976834600,3.21083447265625,0.009162978269159794,0.012828170321881771,0.0024434609804302454
1782774772986865700,3.22086572265625,0.013439035043120384,0.018936822190880775,-0.014049900695681572
1782774772996823800,3.23082373046875,0.01710422709584236,0.016493361443281174,-0.024434609338641167
1782774773006855000,3.24085498046875,0.01710422709584236,0.010995574295520782,-0.02382374368607998
1782774773016843000,3.250843017578125,0.00733038317412138,0.006108652334660292,-0.01160643994808197
1782774773026843600,3.26084375,0.0012217304902151227,0.010995574295520782,-0.004886921960860491
1782774773036832300,3.270832275390625,0.00427605677396059,0.02015855349600315,0
1782774773046863000,3.280863037109375,0.005497787147760391,0.02321287989616394,0.00733038317412138
1782774773056821200,3.2908212890625,0.003054326167330146,0.016493361443281174,0.021380282938480377
1782774773066852400,3.300852294921875,-0.006719517521560192,0.007941247895359993,0.030543262138962746
1782774773076841000,3.310841064453125,-0.012828170321881771,0.012217304669320583,0.019547687843441963
1782774773086841600,3.320841552734375,-0.01466076634824276,0.02076941914856434,-0.0024434609804302454
1782774773096830000,3.330829833984375,-0.010995574295520782,0.02076941914856434,-0.022602014243602753
1782774773106861000,3.340861083984375,0.0006108652451075613,0.01771509274840355,-0.036651913076639175
1782774773116818700,3.350818603515625,0.009773843921720982,0.01466076634824276,-0.03481931984424591
1782774773126850000,3.36085009765625,0.009162978269159794,0.003054326167330146,-0.007941247895359993
1782774773136838100,3.370838134765625,-0.005497787147760391,-0.006108652334660292,0.02626720629632473
1782774773146839300,3.38083935546875,-0.02015855349600315,-0.006108652334660292,0.04764748737215996
1782774773156827400,3.390827392578125,-0.02871066704392433,0.0006108652451075613,0.04642575979232788
1782774773166858800,3.400858642578125,-0.02687807008624077,0.004886921960860491,0.02932153269648552
1782774773176816400,3.41081640625,-0.01771509274840355,-0.0006108652451075613,0.00733038317412138
1782774773186847500,3.420847412109375,-0.003054326167330146,-0.009162978269159794,-0.00855211354792118
1782774773196795600,3.430795654296875,0.00366519158706069,-0.01771509274840355,-0.01771509274840355
1782774773206928100,3.44092822265625,0.007941247895359993,-0.02015855349600315,-0.02076941914856434
1782774773216825000,3.4508251953125,0.00427605677396059,-0.02321287989616394,-0.01466076634824276
1782774773226856000,3.46085595703125,-0.010995574295520782,-0.04214970022439957,-0.01038470957428217
1782774773236844500,3.470844482421875,-0.01710422709584236,-0.045204028487205505,-0.02076941914856434
1782774773246814200,3.480814208984375,-0.009773843921720982,-0.0354301854968071,-0.04398229718208313
1782774773256894500,3.49089453125,0.0006108652451075613,-0.031154127791523933,-0.060475658625364304
1782774773266864600,3.50086474609375,0.004886921960860491,-0.036041051149368286,-0.06658431142568588
1782774773276782300,3.5107822265625,0.00855211354792118,-0.036651913076639175,-0.06291911751031876
1782774773286914600,3.52091455078125,0.00366519158706069,-0.02871066704392433,-0.05009094998240471
1782774773296842200,3.53084228515625,0.004886921960860491,-0.01466076634824276,-0.036041051149368286
1782774773306842600,3.540842529296875,0.012828170321881771,0.006719517521560192,-0.015882495790719986
1782774773316790800,3.550790771484375,0.019547687843441963,0.005497787147760391,0.015882495790719986
1782774773326923300,3.56092333984375,0.02687807008624077,-0.0024434609804302454,0.028099801391363144
1782774773336820000,3.570820068359375,0.025045474991202354,-0.001832595793530345,0.02871066704392433
1782774773346820000,3.580820068359375,0.010995574295520782,-0.006108652334660292,0.01038470957428217
1782774773357761000,3.591760986328125,0,-0.010995574295520782,-0.025045474991202354
1782774773376828700,3.61082861328125,-0.01160643994808197,-0.00427605677396059,-0.11789698898792267
1782774773386859800,3.62085986328125,-0.014049900695681572,0.00427605677396059,-0.1417207419872284
1782774773396817700,3.630817626953125,-0.01160643994808197,0.010995574295520782,-0.13744467496871948
1782774773406848800,3.640848876953125,-0.006719517521560192,0.006719517521560192,-0.10812314599752426
1782774773416837000,3.650837158203125,0.001832595793530345,-0.001832595793530345,-0.06658431142568588
1782774773426837500,3.66083740234375,0.016493361443281174,0.0006108652451075613,-0.02076941914856434
1782774773436826000,3.670826171875,0.015271631069481373,0.00366519158706069,0.019547687843441963
1782774773446826200,3.680826171875,0.006719517521560192,0.004886921960860491,0.0403171069920063
1782774773456906800,3.69090673828125,0.003054326167330146,0.01038470957428217,0.04153883829712868
1782774773466846200,3.70084619140625,-0.004886921960860491,0.014049900695681572,0.03420845419168472
1782774773476834800,3.710834716796875,-0.018325956538319588,0.00427605677396059,0.016493361443281174
1782774773486866200,3.7208662109375,-0.02076941914856434,0.006719517521560192,-0.010995574295520782
1782774773496823800,3.73082373046875,-0.015882495790719986,0.019547687843441963,-0.029932396486401558
1782774773506855000,3.74085498046875,-0.018325956538319588,0.02015855349600315,-0.021991148591041565
1782774773516843000,3.750843017578125,-0.021380282938480377,0.014049900695681572,-0.0006108652451075613
1782774773526844000,3.760843994140625,-0.021991148591041565,0.006719517521560192,0.02382374368607998
1782774773536832300,3.770832275390625,-0.021380282938480377,0.014049900695681572,0.04092797264456749
1782774773546863600,3.780863525390625,-0.022602014243602753,0.024434609338641167,0.05009094998240471
1782774773556821200,3.7908212890625,-0.019547687843441963,0.02321287989616394,0.04703662544488907
1782774773566852400,3.800852294921875,-0.014049900695681572,0.015882495790719986,0.03726277872920036
1782774773576841000,3.810841064453125,-0.01038470957428217,0.01038470957428217,0.022602014243602753
1782774773586841600,3.820841552734375,-0.012828170321881771,0.00733038317412138,0.006719517521560192
1782774773596830000,3.830829833984375,-0.018325956538319588,0.010995574295520782,-0.0012217304902151227
1782774773606860800,3.84086083984375,-0.02015855349600315,0.01160643994808197,-0.007941247895359993
1782774773616819000,3.85081884765625,-0.01771509274840355,0.003054326167330146,-0.012828170321881771
1782774773626850000,3.86085009765625,-0.01038470957428217,0.00366519158706069,-0.015882495790719986
1782774773636838400,3.87083837890625,-0.00733038317412138,0.006719517521560192,-0.014049900695681572
1782774773646839000,3.880839111328125,-0.005497787147760391,0.00855211354792118,-0.00855211354792118
1782774773656827400,3.890827392578125,-0.009773843921720982,0.006719517521560192,0.003054326167330146
1782774773666827500,3.90082763671875,-0.009162978269159794,0.001832595793530345,0.01160643994808197
1782774773676867800,3.910867919921875,-0.006719517521560192,0.006108652334660292,0.01771509274840355
1782774773686909000,3.920908935546875,-0.006719517521560192,0.006108652334660292,0.02076941914856434
1782774773696836000,3.930836181640625,-0.005497787147760391,0.009773843921720982,0.014049900695681572
1782774773706867000,3.940866943359375,-0.009773843921720982,0.019547687843441963,0.0006108652451075613
1782774773716825000,3.9508251953125,-0.015271631069481373,0.021991148591041565,-0.01466076634824276
1782774773726856000,3.96085595703125,-0.021380282938480377,0.02382374368607998,-0.027488935738801956
1782774773736844300,3.97084423828125,-0.022602014243602753,0.01160643994808197,-0.0354301854968071
1782774773746814200,3.980814208984375,-0.009162978269159794,0.009162978269159794,-0.039095375686883926
1782774773766864600,4.00086474609375,0.016493361443281174,0.012828170321881771,-0.021991148591041565
1782774773776822500,4.010822509765625,0.015882495790719986,0.006719517521560192,-0.005497787147760391
1782774773786853600,4.020853515625,0.012828170321881771,0.007941247895359993,0.004886921960860491
1782774773796842200,4.03084228515625,0.00855211354792118,0.01771509274840355,0.01160643994808197
1782774773806811600,4.040811767578125,0.006108652334660292,0.02321287989616394,0.01466076634824276
1782774773816891100,4.05089111328125,0.010995574295520782,0.024434609338641167,0.021991148591041565
1782774773826861600,4.060861572265625,0.012828170321881771,0.025045474991202354,0.0354301854968071
1782774773836819500,4.0708193359375,0.012828170321881771,0.028099801391363144,0.042760565876960754
1782774773846850600,4.0808505859375,0.015882495790719986,0.033597588539123535,0.03176499158143997
1782774773856839000,4.0908388671875,0.014049900695681572,0.04092797264456749,0.010995574295520782
1782774773866839800,4.10083984375,0.013439035043120384,0.04398229718208313,-0.012828170321881771
1782774773876828200,4.110828125,0.01038470957428217,0.03237585723400116,-0.02932153269648552
1782774773886859300,4.120859375,0.009162978269159794,0.018936822190880775,-0.039706241339445114
1782774773896817000,4.13081689453125,0.00855211354792118,0.01466076634824276,-0.04092797264456749
1782774773906848000,4.140847900390625,0.009773843921720982,0.01466076634824276,-0.03420845419168472
1782774773916837000,4.150837158203125,0.00855211354792118,0.01771509274840355,-0.018936822190880775
1782774773926837800,4.160837646484375,0.007941247895359993,0.021991148591041565,0.003054326167330146
1782774773936786000,4.170785888671875,0.00427605677396059,0.027488935738801956,0.021991148591041565
1782774773946855700,4.180855712890625,0,0.028099801391363144,0.04153883829712868
1782774773957786600,4.19178662109375,0.003054326167330146,0.025045474991202354,0.051312681287527084
1782774773976834800,4.210834716796875,0.022602014243602753,0.01466076634824276,0.04337143152952194
1782774773986866000,4.220865966796875,0.02015855349600315,0.018325956538319588,0.03237585723400116
1782774773996823600,4.230823486328125,0.01466076634824276,0.027488935738801956,0.02015855349600315
1782774774006854700,4.240854736328125,0.005497787147760391,0.0354301854968071,0.012217304669320583
1782774774016843300,4.25084326171875,-0.007941247895359993,0.029932396486401558,0.013439035043120384
1782774774026844200,4.26084423828125,-0.01771509274840355,0.014049900695681572,0.018325956538319588
1782774774036832300,4.270832275390625,-0.015271631069481373,0.014049900695681572,0.01771509274840355
1782774774046863400,4.28086328125,-0.009773843921720982,0.016493361443281174,0.018936822190880775
1782774774056821200,4.2908212890625,-0.00427605677396059,0.01038470957428217,0.02626720629632473
1782774774066852400,4.300852294921875,0.006719517521560192,0.006108652334660292,0.033597588539123535
1782774774076840700,4.3108408203125,0.012217304669320583,0.004886921960860491,0.04337143152952194
1782774774086841300,4.32084130859375,0.012217304669320583,0.0024434609804302454,0.05009094998240471
1782774774096830000,4.330829833984375,0.009162978269159794,0.003054326167330146,0.05314527451992035
1782774774106860800,4.34086083984375,-0.001832595793530345,-0.001832595793530345,0.054367005825042725
1782774774116819000,4.35081884765625,-0.018325956538319588,-0.01771509274840355,0.04153883829712868
1782774774126849800,4.360849853515625,-0.02687807008624077,-0.02626720629632473,0.015882495790719986
1782774774136838400,4.37083837890625,-0.02687807008624077,-0.01710422709584236,-0.012217304669320583
1782774774146839000,4.380839111328125,-0.031154127791523933,-0.016493361443281174,-0.03298672288656235
1782774774156827400,4.390827392578125,-0.02687807008624077,-0.01771509274840355,-0.05009094998240471
1782774774166858500,4.4008583984375,-0.00855211354792118,-0.004886921960860491,-0.04764748737215996
1782774774176816400,4.41081640625,-0.0012217304902151227,-0.006108652334660292,-0.021991148591041565
1782774774186847500,4.420847412109375,-0.0024434609804302454,0.0006108652451075613,0.00855211354792118
1782774774196836000,4.430836181640625,-0.00733038317412138,0.001832595793530345,0.036041051149368286
1782774774206867200,4.4408671875,-0.00733038317412138,0.00855211354792118,0.056810468435287476
1782774774216824800,4.450824951171875,-0.005497787147760391,0.009162978269159794,0.06291911751031876
1782774774226825000,4.460824951171875,-0.00427605677396059,0.00366519158706069,0.05314527451992035
1782774774236987400,4.4709873046875,0.0012217304902151227,0.005497787147760391,0.02687807008624077
1782774774246936600,4.4809365234375,0.0012217304902151227,0.019547687843441963,-0.00366519158706069
1782774774256833500,4.49083349609375,-0.004886921960860491,0.025045474991202354,-0.02687807008624077
1782774774266864600,4.50086474609375,-0.01038470957428217,0.02321287989616394,-0.039095375686883926
1782774774276822500,4.510822509765625,-0.007941247895359993,0.01710422709584236,-0.04214970022439957
1782774774286853600,4.520853515625,0.009162978269159794,0.00733038317412138,-0.04581489413976669
1782774774296842000,4.530842041015625,0.030543262138962746,0.007941247895359993,-0.04459316283464432
1782774774306811600,4.540811767578125,0.04581489413976669,0.015882495790719986,-0.03787364438176155
1782774774317737200,4.5517373046875,0.04581489413976669,0.019547687843441963,-0.02015855349600315
1782774774336820000,4.570820068359375,0.021380282938480377,0.036651913076639175,0.012217304669320583
1782774774346851300,4.580851318359375,0.006719517521560192,0.0555887371301651,0.02626720629632473
1782774774356839700,4.590839599609375,-0.001832595793530345,0.0708603709936142,0.03787364438176155
1782774774366839800,4.60083984375,-0.0012217304902151227,0.07757988572120667,0.04886921867728233
1782774774376828700,4.61082861328125,-0.0024434609804302454,0.0708603709936142,0.05742133408784866
1782774774386859800,4.62085986328125,0,0.060475658625364304,0.05497787147760391
1782774774396817400,4.6308173828125,0.0006108652451075613,0.054367005825042725,0.04214970022439957
1782774774406849000,4.64084912109375,0.0024434609804302454,0.04092797264456749,0.02626720629632473
1782774774416836900,4.6508369140625,0,0.024434609338641167,0.01038470957428217
1782774774426806800,4.660806884765625,-0.009162978269159794,0.009773843921720982,-0.001832595793530345
1782774774437848000,4.67184814453125,-0.01710422709584236,-0.0006108652451075613,-0.014049900695681572
1782774774456845600,4.690845458984375,-0.022602014243602753,-0.00366519158706069,-0.0354301854968071
1782774774466815500,4.7008154296875,-0.018325956538319588,-0.007941247895359993,-0.04703662544488907
1782774774476895700,4.710895751953125,-0.005497787147760391,-0.0024434609804302454,-0.0555887371301651
1782774774486866000,4.720865966796875,-0.0006108652451075613,-0.006108652334660292,-0.05009094998240471
1782774774496783400,4.730783447265625,0.0006108652451075613,-0.014049900695681572,-0.03787364438176155
1782774774506916000,4.740916015625,0.001832595793530345,-0.009773843921720982,-0.02626720629632473
1782774774516843300,4.75084326171875,0.009162978269159794,-0.006719517521560192,-0.01466076634824276
1782774774526843600,4.76084375,0.018936822190880775,-0.006108652334660292,-0.0006108652451075613
1782774774536832300,4.770832275390625,0.03237585723400116,-0.003054326167330146,0.018936822190880775
1782774774546832400,4.780832275390625,0.03848451003432274,-0.00427605677396059,0.036651913076639175
1782774774557642500,4.791642578125,0.042760565876960754,0.0024434609804302454,0.04398229718208313
1782774774576841000,4.810841064453125,0.030543262138962746,0.00366519158706069,0.02321287989616394
1782774774586841600,4.820841552734375,0.021380282938480377,-0.004886921960860491,-0.012828170321881771
1782774774596830000,4.830829833984375,0.015882495790719986,-0.006108652334660292,-0.03176499158143997
1782774774606829800,4.840829833984375,0.010995574295520782,-0.007941247895359993,-0.039095375686883926
1782774774616910300,4.850910400390625,0.009162978269159794,-0.004886921960860491,-0.03481931984424591
1782774774626849800,4.860849853515625,0.010995574295520782,-0.001832595793530345,-0.021991148591041565
1782774774636868600,4.87086865234375,0.00855211354792118,-0.007941247895359993,-0.004886921960860491
1782774774646839000,4.880839111328125,0.012828170321881771,-0.013439035043120384,0.004886921960860491
1782774774656827400,4.890827392578125,0.02321287989616394,-0.006108652334660292,0.01160643994808197
1782774774666858500,4.9008583984375,0.02626720629632473,0.003054326167330146,0.018936822190880775
1782774774676816400,4.91081640625,0.02626720629632473,0.0024434609804302454,0.030543262138962746
1782774774686816500,4.92081640625,0.018936822190880775,-0.006108652334660292,0.04459316283464432
1782774774696897000,4.93089697265625,0.001832595793530345,-0.024434609338641167,0.045204028487205505
1782774774706867200,4.9408671875,-0.010995574295520782,-0.025656340643763542,0.025656340643763542
1782774774716824800,4.950824951171875,-0.01771509274840355,-0.012217304669320583,-0.006108652334660292
1782774774726856000,4.96085595703125,-0.018936822190880775,-0.00733038317412138,-0.02932153269648552
1782774774736844300,4.97084423828125,-0.014049900695681572,-0.01038470957428217,-0.033597588539123535
1782774774746845000,4.980844970703125,-0.01038470957428217,-0.02382374368607998,-0.030543262138962746
1782774774756833500,4.99083349609375,-0.0012217304902151227,-0.021991148591041565,-0.025656340643763542
1782774774766864600,5.00086474609375,0.00733038317412138,-0.00427605677396059,-0.016493361443281174
1782774774776822500,5.010822509765625,0.004886921960860491,0.007941247895359993,0.001832595793530345
1782774774786884000,5.020884033203125,0.001832595793530345,-0.0012217304902151227,0.021991148591041565
1782774774796903200,5.030903076171875,-0.003054326167330146,-0.012828170321881771,0.03298672288656235
1782774774806811600,5.040811767578125,-0.006719517521560192,-0.013439035043120384,0.03176499158143997
1782774774816891100,5.05089111328125,-0.003054326167330146,-0.01160643994808197,0.015271631069481373
1782774774826861600,5.060861572265625,0.00366519158706069,-0.006108652334660292,-0.01038470957428217
1782774774836780000,5.070780029296875,0.013439035043120384,-0.0024434609804302454,-0.03481931984424591
1782774774846850800,5.080850830078125,0.01710422709584236,0.00427605677396059,-0.04398229718208313
1782774774856900000,5.090900146484375,0.010995574295520782,0.006108652334660292,-0.03481931984424591
1782774774866839600,5.100839599609375,0.00733038317412138,0.007941247895359993,-0.016493361443281174
1782774774876828200,5.110828125,-0.0006108652451075613,0.015271631069481373,0.01038470957428217
1782774774886859300,5.120859375,-0.01160643994808197,0.014049900695681572,0.03481931984424591
1782774774896817200,5.130817138671875,-0.019547687843441963,0.01038470957428217,0.04581489413976669
1782774774906848300,5.14084814453125,-0.01710422709584236,0.015882495790719986,0.04153883829712868
1782774774916837000,5.150837158203125,-0.016493361443281174,0.018936822190880775,0.029932396486401558
1782774774926837500,5.16083740234375,-0.019547687843441963,0.01710422709584236,0.01466076634824276
1782774774936826000,5.170826171875,-0.019547687843441963,0.019547687843441963,0.003054326167330146
1782774774946826200,5.180826171875,-0.02015855349600315,0.018936822190880775,0.003054326167330146
1782774774957796400,5.19179638671875,-0.019547687843441963,-0.0006108652451075613,0.01466076634824276
1782774774976834800,5.210834716796875,-0.024434609338641167,-0.014049900695681572,0.02626720629632473
1782774774986866000,5.220865966796875,-0.02382374368607998,-0.009162978269159794,0.018936822190880775
1782774774996823800,5.23082373046875,-0.016493361443281174,-0.00733038317412138,0.00427605677396059
1782774775006854700,5.240854736328125,-0.009773843921720982,-0.01466076634824276,-0.021380282938480377
1782774775016843300,5.25084326171875,-0.007941247895359993,-0.001832595793530345,-0.02871066704392433
1782774775026844000,5.260843994140625,-0.00855211354792118,-0.003054326167330146,-0.025045474991202354
1782774775036832300,5.270832275390625,-0.01160643994808197,-0.015271631069481373,-0.009773843921720982
1782774775046863000,5.280863037109375,-0.01160643994808197,-0.02382374368607998,0.01038470957428217
1782774775056821200,5.2908212890625,-0.01038470957428217,-0.02015855349600315,0.021991148591041565
1782774775066852600,5.3008525390625,-0.003054326167330146,-0.015882495790719986,0.02382374368607998
1782774775076840700,5.3108408203125,0.004886921960860491,-0.014049900695681572,0.015271631069481373
1782774775086841300,5.32084130859375,0.00733038317412138,-0.012828170321881771,0.004886921960860491
1782774775096830000,5.330829833984375,0.001832595793530345,-0.013439035043120384,-0.00855211354792118
1782774775106860800,5.34086083984375,-0.007941247895359993,-0.009162978269159794,-0.01771509274840355
1782774775116819000,5.35081884765625,-0.016493361443281174,0.0024434609804302454,-0.021991148591041565
1782774775126850000,5.36085009765625,-0.01771509274840355,0.007941247895359993,-0.013439035043120384
1782774775136838100,5.370838134765625,-0.016493361443281174,0.005497787147760391,0.00733038317412138
1782774775146839000,5.380839111328125,-0.014049900695681572,0,0.029932396486401558
1782774775156827400,5.390827392578125,-0.01710422709584236,-0.003054326167330146,0.04337143152952194
1782774775166858800,5.400858642578125,-0.02321287989616394,0,0.04092797264456749
1782774775176816400,5.41081640625,-0.029932396486401558,0.0024434609804302454,0.02687807008624077
1782774775186847700,5.42084765625,-0.03420845419168472,-0.003054326167330146,0.01160643994808197
1782774775196835800,5.4308359375,-0.0354301854968071,-0.00855211354792118,-0.0024434609804302454
1782774775206867200,5.4408671875,-0.03420845419168472,-0.00733038317412138,-0.01160643994808197
1782774775216824800,5.450824951171875,-0.03481931984424591,-0.0024434609804302454,-0.01771509274840355
1782774775226856000,5.46085595703125,-0.027488935738801956,-0.001832595793530345,-0.015882495790719986
1782774775236844300,5.47084423828125,-0.02932153269648552,-0.010995574295520782,0.0024434609804302454
1782774775246845000,5.480844970703125,-0.03237585723400116,-0.02626720629632473,0.013439035043120384
1782774775256833500,5.49083349609375,-0.025656340643763542,-0.02932153269648552,0.00733038317412138
1782774775266864600,5.50086474609375,-0.01466076634824276,-0.022602014243602753,-0.004886921960860491
1782774775276822500,5.510822509765625,-0.003054326167330146,-0.02321287989616394,-0.016493361443281174
1782774775286853600,5.520853515625,0.00427605677396059,-0.022602014243602753,-0.018936822190880775
1782774775296842000,5.530842041015625,0.009162978269159794,-0.018325956538319588,-0.015271631069481373
1782774775306811600,5.540811767578125,0.012217304669320583,-0.014049900695681572,-0.006719517521560192
1782774775316922600,5.550922607421875,0.001832595793530345,-0.021380282938480377,0.006108652334660292
1782774775326862000,5.560862060546875,-0.009773843921720982,-0.029932396486401558,0.012217304669320583
1782774775336820000,5.570820068359375,-0.009162978269159794,-0.029932396486401558,0.00366519158706069
1782774775346851000,5.58085107421875,0.0006108652451075613,-0.028099801391363144,-0.010995574295520782
1782774775356839400,5.59083935546875,0.01160643994808197,-0.036041051149368286,-0.022602014243602753
1782774775366840300,5.60084033203125,0.021380282938480377,-0.039706241339445114,-0.03420845419168472
1782774775376828700,5.61082861328125,0.02687807008624077,-0.033597588539123535,-0.039706241339445114
1782774775386859800,5.62085986328125,0.025656340643763542,-0.022602014243602753,-0.04214970022439957
1782774775396817400,5.6308173828125,0.02076941914856434,-0.009162978269159794,-0.03848451003432274
1782774775406848800,5.640848876953125,0.012217304669320583,-0.006719517521560192,-0.029932396486401558
1782774775416837000,5.650837158203125,-0.0012217304902151227,-0.007941247895359993,-0.015882495790719986
1782774775426837800,5.660837646484375,-0.015271631069481373,0.00366519158706069,0.0006108652451075613
1782774775436826000,5.670826171875,-0.006719517521560192,0.010995574295520782,0.009773843921720982
1782774775446857200,5.680857177734375,0.00733038317412138,0.007941247895359993,0.02932153269648552
1782774775456845600,5.690845458984375,0.016493361443281174,-0.009162978269159794,0.04581489413976669
1782774775466846200,5.70084619140625,0.02626720629632473,-0.019547687843441963,0.04398229718208313
1782774775476834800,5.710834716796875,0.03237585723400116,-0.014049900695681572,0.025656340643763542
1782774775486866200,5.7208662109375,0.022602014243602753,-0.010995574295520782,0.007941247895359993
1782774775496823600,5.730823486328125,0.00366519158706069,-0.02015855349600315,-0.009162978269159794
1782774775506854700,5.740854736328125,-0.01038470957428217,-0.021991148591041565,-0.027488935738801956
1782774775516843300,5.75084326171875,-0.01466076634824276,-0.013439035043120384,-0.04092797264456749
1782774775526844000,5.760843994140625,-0.009162978269159794,-0.015271631069481373,-0.042760565876960754
1782774775536832300,5.770832275390625,0.0012217304902151227,-0.021991148591041565,-0.03420845419168472
1782774775546863400,5.78086328125,0.00855211354792118,-0.02321287989616394,-0.014049900695681572
1782774775556821200,5.7908212890625,0.010995574295520782,-0.025656340643763542,0.006108652334660292
1782774775566852400,5.800852294921875,0.012217304669320583,-0.01710422709584236,0.02626720629632473
1782774775576840700,5.8108408203125,0.01038470957428217,-0.007941247895359993,0.03726277872920036
1782774775586810400,5.820810302734375,0.012828170321881771,-0.007941247895359993,0.03726277872920036
1782774775596911900,5.830911865234375,0.014049900695681572,0.0012217304902151227,0.03298672288656235
1782774775606860300,5.8408603515625,0.004886921960860491,0.00427605677396059,0.028099801391363144
1782774775616849400,5.850849365234375,0,0.0024434609804302454,0.021380282938480377
1782774775626849800,5.860849853515625,-0.0024434609804302454,0.001832595793530345,0.018936822190880775
1782774775636838400,5.87083837890625,0,-0.007941247895359993,0.012828170321881771
1782774775646839000,5.880839111328125,0.00855211354792118,-0.006719517521560192,0.00427605677396059
1782774775656827400,5.890827392578125,0.012828170321881771,-0.0006108652451075613,-0.001832595793530345
1782774775666858500,5.9008583984375,0.007941247895359993,-0.0012217304902151227,-0.0012217304902151227
1782774775676816400,5.91081640625,0.0012217304902151227,0.001832595793530345,0.0012217304902151227
1782774775686847500,5.920847412109375,-0.003054326167330146,0.007941247895359993,0.00855211354792118
1782774775696836000,5.930836181640625,0,0.005497787147760391,0.018325956538319588
1782774775706867000,5.940866943359375,0.006719517521560192,0.00733038317412138,0.03298672288656235
1782774775716825000,5.9508251953125,0.003054326167330146,0.006108652334660292,0.04642575979232788
1782774775726856200,5.960856201171875,-0.0024434609804302454,-0.00733038317412138,0.04459316283464432
1782774775736844300,5.97084423828125,0.00427605677396059,0,0.03176499158143997
1782774775746845000,5.980844970703125,0.006108652334660292,0.0012217304902151227,0.01771509274840355
1782774775756833500,5.99083349609375,0.007941247895359993,-0.00733038317412138,0.00427605677396059
1782774775766864400,6.000864501953125,0.012217304669320583,-0.00733038317412138,-0.003054326167330146
1782774775776822500,6.010822509765625,0.007941247895359993,-0.00855211354792118,0
1782774775786853400,6.020853271484375,0.0024434609804302454,-0.01160643994808197,0.004886921960860491
1782774775796842200,6.03084228515625,-0.0006108652451075613,-0.006719517521560192,0.012828170321881771
1782774775806843000,6.0408427734375,0.003054326167330146,-0.01038470957428217,0.012828170321881771
1782774775816830200,6.050830322265625,0.005497787147760391,-0.018325956538319588,0.005497787147760391
1782774775826861600,6.060861572265625,0.006719517521560192,-0.00855211354792118,-0.007941247895359993
1782774775836819500,6.0708193359375,0.00427605677396059,0.004886921960860491,-0.014049900695681572
1782774775846850800,6.080850830078125,-0.006719517521560192,0.010995574295520782,-0.00855211354792118
1782774775856839200,6.090839111328125,-0.012217304669320583,0.0012217304902151227,0.0024434609804302454
1782774775866839600,6.100839599609375,0.00427605677396059,0.003054326167330146,0.00366519158706069
1782774775876828200,6.110828125,0.028099801391363144,0.00427605677396059,0.003054326167330146
1782774775886798300,6.12079833984375,0.04153883829712868,-0.006108652334660292,0.006108652334660292
1782774775896908500,6.130908447265625,0.03848451003432274,-0.021991148591041565,0.006108652334660292
1782774775906817800,6.14081787109375,0.033597588539123535,-0.01038470957428217,-0.005497787147760391
1782774775916928500,6.150928466796875,0.024434609338641167,0.005497787147760391,-0.01771509274840355
1782774775926806800,6.160806884765625,0.01160643994808197,0.00427605677396059,-0.022602014243602753
1782774775936877600,6.170877685546875,-0.0006108652451075613,-0.00366519158706069,-0.01710422709584236
1782774775946918400,6.18091845703125,-0.012828170321881771,-0.00427605677396059,-0.005497787147760391
1782774775956845600,6.190845458984375,-0.02076941914856434,0.006108652334660292,0.005497787147760391
1782774775966846500,6.200846435546875,-0.019547687843441963,0.009162978269159794,0.01160643994808197
1782774775976834800,6.210834716796875,-0.006108652334660292,0.006719517521560192,0.015882495790719986
1782774775986866000,6.220865966796875,0.00855211354792118,0.00427605677396059,0.018325956538319588
1782774775996823600,6.230823486328125,0.01771509274840355,-0.003054326167330146,0.01466076634824276
1782774776006854400,6.2408544921875,0.01710422709584236,-0.009773843921720982,0.0024434609804302454
1782774776016843300,6.25084326171875,0.00427605677396059,-0.005497787147760391,-0.010995574295520782
1782774776026844000,6.260843994140625,-0.018936822190880775,-0.00366519158706069,-0.02321287989616394
1782774776036832300,6.270832275390625,-0.036651913076639175,-0.003054326167330146,-0.033597588539123535
1782774776046863400,6.28086328125,-0.03726277872920036,-0.0006108652451075613,-0.039095375686883926
1782774776056821200,6.2908212890625,-0.02932153269648552,-0.006719517521560192,-0.03726277872920036
1782774776066882800,6.3008828125,-0.01160643994808197,-0.00733038317412138,-0.02626720629632473
1782774776076902000,6.31090185546875,0.00366519158706069,0.0012217304902151227,-0.006719517521560192
1782774776086841600,6.320841552734375,0.004886921960860491,0.00427605677396059,0.018325956538319588
1782774776096830000,6.330829833984375,0.004886921960860491,0.001832595793530345,0.03726277872920036
1782774776106861000,6.340861083984375,0.0024434609804302454,0.003054326167330146,0.045204028487205505
1782774776116819000,6.35081884765625,-0.0012217304902151227,0.0006108652451075613,0.04092797264456749
1782774776126849800,6.360849853515625,-0.009162978269159794,-0.009162978269159794,0.02687807008624077
1782774776136838400,6.37083837890625,-0.01710422709584236,-0.015882495790719986,0.0024434609804302454
1782774776146839000,6.380839111328125,-0.02932153269648552,-0.01710422709584236,-0.030543262138962746
1782774776156827400,6.390827392578125,-0.028099801391363144,-0.015882495790719986,-0.060475658625364304
1782774776166858500,6.4008583984375,-0.025656340643763542,-0.015271631069481373,-0.07513642311096191
1782774776176816400,6.41081640625,-0.01771509274840355,-0.01710422709584236,-0.0757472887635231
1782774776186847500,6.420847412109375,-0.00366519158706069,-0.02015855349600315,-0.06230825558304787
1782774776196795600,6.430795654296875,0.00427605677396059,-0.015882495790719986,-0.03848451003432274
1782774776206928100,6.44092822265625,0.005497787147760391,-0.012828170321881771,-0.00733038317412138
1782774776216824800,6.450824951171875,0.00366519158706069,-0.00733038317412138,0.02382374368607998
1782774776226856000,6.46085595703125,-0.00427605677396059,-0.009162978269159794,0.04398229718208313
1782774776236844300,6.47084423828125,-0.013439035043120384,-0.016493361443281174,0.0403171069920063
1782774776246845200,6.48084521484375,-0.014049900695681572,-0.014049900695681572,0.02076941914856434
1782774776256833500,6.49083349609375,-0.01771509274840355,-0.00855211354792118,-0.007941247895359993
1782774776266895000,6.50089501953125,-0.018325956538319588,-0.0024434609804302454,-0.0403171069920063
1782774776276822500,6.510822509765625,-0.019547687843441963,0.001832595793530345,-0.0555887371301651
1782774776286822400,6.520822509765625,-0.014049900695681572,0.015271631069481373,-0.05619960278272629
1782774776296903200,6.530903076171875,-0.015882495790719986,0.025656340643763542,-0.03176499158143997
1782774776306842600,6.540842529296875,-0.016493361443281174,0.02015855349600315,0
1782774776316831000,6.5508310546875,-0.014049900695681572,0.01466076634824276,0.02932153269648552
1782774776326862000,6.560862060546875,-0.01038470957428217,0.01466076634824276,0.05009094998240471
1782774776336780000,6.570780029296875,-0.00855211354792118,0.018325956538319588,0.060475658625364304
1782774776346912300,6.580912353515625,-0.009773843921720982,0.02932153269648552,0.056810468435287476
1782774776356839700,6.590839599609375,-0.009773843921720982,0.033597588539123535,0.04092797264456749
1782774776366840300,6.60084033203125,-0.00733038317412138,0.033597588539123535,0.02015855349600315
1782774776376828700,6.61082861328125,-0.006108652334660292,0.030543262138962746,0.005497787147760391
1782774776386828800,6.620828857421875,-0.005497787147760391,0.02687807008624077,-0.0012217304902151227
1782774776396939800,6.630939697265625,-0.00366519158706069,0.019547687843441963,-0.0012217304902151227
1782774776406848800,6.640848876953125,0.004886921960860491,0.009773843921720982,-0.005497787147760391
1782774776416837000,6.650837158203125,0.015271631069481373,0.003054326167330146,-0.015882495790719986
1782774776426837500,6.66083740234375,0.021380282938480377,0.0006108652451075613,-0.025045474991202354
1782774776436826000,6.670826171875,0.018936822190880775,0.0024434609804302454,-0.024434609338641167
1782774776446857500,6.680857421875,0.00733038317412138,-0.00427605677396059,-0.025045474991202354
1782774776456845600,6.690845458984375,0.001832595793530345,0.005497787147760391,-0.021380282938480377
1782774776466846200,6.70084619140625,0.0006108652451075613,0.014049900695681572,-0.013439035043120384
1782774776476834800,6.710834716796875,0.007941247895359993,0.01771509274840355,0.0024434609804302454
1782774776486865700,6.72086572265625,0.012828170321881771,0.018936822190880775,0.02687807008624077
1782774776496823800,6.73082373046875,0.01771509274840355,0.00855211354792118,0.05009094998240471
1782774776506855000,6.74085498046875,0.02015855349600315,0,0.06108652427792549
1782774776516843300,6.75084326171875,0.019547687843441963,0.0024434609804302454,0.05009094998240471
1782774776526844000,6.760843994140625,0.02076941914856434,0.00366519158706069,0.021380282938480377
1782774776536832300,6.770832275390625,0.02871066704392433,0.0024434609804302454,-0.01466076634824276
1782774776546863400,6.78086328125,0.02382374368607998,0.0024434609804302454,-0.03481931984424591
1782774776556821200,6.7908212890625,0.009162978269159794,-0.0024434609804302454,-0.03848451003432274
1782774776566852400,6.800852294921875,0.0006108652451075613,-0.001832595793530345,-0.03298672288656235
1782774776576840700,6.8108408203125,0,0.0024434609804302454,-0.02015855349600315
1782774776586841600,6.820841552734375,0.00855211354792118,-0.006719517521560192,-0.00855211354792118
1782774776596830000,6.830829833984375,0.02871066704392433,-0.01466076634824276,0.0024434609804302454
1782774776606860800,6.84086083984375,0.042760565876960754,-0.01160643994808197,0.015271631069481373
1782774776616819000,6.85081884765625,0.04581489413976669,-0.00855211354792118,0.019547687843441963
1782774776626849800,6.860849853515625,0.04398229718208313,0.0024434609804302454,0.019547687843441963
1782774776636868600,6.87086865234375,0.036651913076639175,0.009773843921720982,0.016493361443281174
1782774776646839000,6.880839111328125,0.03176499158143997,0.00855211354792118,0.01038470957428217
1782774776656827400,6.890827392578125,0.03237585723400116,0.0012217304902151227,0.004886921960860491
1782774776666858500,6.9008583984375,0.03298672288656235,-0.006108652334660292,0.0006108652451075613
1782774776676816400,6.91081640625,0.029932396486401558,-0.009773843921720982,-0.001832595793530345
1782774776686816500,6.92081640625,0.027488935738801956,-0.001832595793530345,-0.0012217304902151227
1782774776696897000,6.93089697265625,0.029932396486401558,-0.001832595793530345,0.003054326167330146
1782774776706836000,6.9408359375,0.039706241339445114,-0.0012217304902151227,0.014049900695681572
1782774776716916700,6.950916748046875,0.04703662544488907,-0.0012217304902151227,0.019547687843441963
1782774776726856200,6.960856201171875,0.05742133408784866,-0.003054326167330146,0.01771509274840355
1782774776736844500,6.970844482421875,0.05925392732024193,-0.01160643994808197,0.012217304669320583
1782774776746845400,6.980845458984375,0.04337143152952194,-0.024434609338641167,0.00427605677396059
1782774776756833500,6.99083349609375,0.025045474991202354,-0.02626720629632473,-0.00366519158706069
1782774776766864600,7.00086474609375,0.013439035043120384,-0.025045474991202354,-0.019547687843441963
1782774776776822500,7.010822509765625,0.01038470957428217,-0.025045474991202354,-0.0403171069920063
1782774776786853600,7.020853515625,0.016493361443281174,-0.02076941914856434,-0.051312681287527084
1782774776796842000,7.030842041015625,0.01771509274840355,-0.015271631069481373,-0.04153883829712868
1782774776806843000,7.0408427734375,0.012217304669320583,-0.01466076634824276,-0.015882495790719986
1782774776816830000,7.050829833984375,0.010995574295520782,-0.005497787147760391,0.018936822190880775
1782774776826861600,7.060861572265625,0.012828170321881771,-0.0012217304902151227,0.04703662544488907
1782774776836819500,7.0708193359375,0.016493361443281174,-0.00855211354792118,0.0659734457731247
1782774776846850600,7.0808505859375,0.018936822190880775,-0.015882495790719986,0.07147123664617538
1782774776856839200,7.090839111328125,0.016493361443281174,-0.016493361443281174,0.06230825558304787
1782774776866839800,7.10083984375,0.012217304669320583,-0.01710422709584236,0.03787364438176155
1782774776876828200,7.110828125,-0.0012217304902151227,-0.022602014243602753,0.00855211354792118
1782774776886859300,7.120859375,-0.02076941914856434,-0.02871066704392433,-0.02015855349600315
1782774776896817200,7.130817138671875,-0.0354301854968071,-0.027488935738801956,-0.04948008432984352
1782774776906848300,7.14084814453125,-0.039706241339445114,-0.015271631069481373,-0.06719517707824707
1782774776916837000,7.150837158203125,-0.02871066704392433,-0.012828170321881771,-0.06414084881544113
1782774776926806800,7.160806884765625,-0.014049900695681572,-0.01771509274840355,-0.03481931984424591
1782774776936917500,7.17091748046875,-0.006719517521560192,-0.025045474991202354,0.007941247895359993
1782774776946857200,7.180857177734375,-0.001832595793530345,-0.0354301854968071,0.03787364438176155
1782774776956845600,7.190845458984375,0.00733038317412138,-0.028099801391363144,0.04581489413976669
1782774776966846200,7.20084619140625,0.01038470957428217,-0.01710422709584236,0.039706241339445114
1782774776976834800,7.210834716796875,0.00733038317412138,-0.014049900695681572,0.029932396486401558
1782774776986866000,7.220865966796875,0.00427605677396059,-0.012828170321881771,0.01466076634824276
1782774776996823800,7.23082373046875,-0.003054326167330146,-0.004886921960860491,0.0024434609804302454
1782774777006823700,7.24082373046875,-0.014049900695681572,0.00427605677396059,0
1782774777016904200,7.250904296875,-0.02626720629632473,0.013439035043120384,0.009773843921720982
1782774777026844000,7.260843994140625,-0.03481931984424591,0.010995574295520782,0.02076941914856434
1782774777036832300,7.270832275390625,-0.030543262138962746,0.0024434609804302454,0.021991148591041565
1782774777046863400,7.28086328125,-0.019547687843441963,0.0006108652451075613,0.014049900695681572
1782774777056821200,7.2908212890625,-0.01038470957428217,0.0012217304902151227,0.0024434609804302454
1782774777066852400,7.300852294921875,-0.009773843921720982,0.00733038317412138,-0.006719517521560192
1782774777076841000,7.310841064453125,-0.006719517521560192,0.02015855349600315,-0.009773843921720982
1782774777086841300,7.32084130859375,-0.006108652334660292,0.022602014243602753,-0.004886921960860491
1782774777096830000,7.330829833984375,-0.004886921960860491,0.014049900695681572,0.006108652334660292
1782774777106861000,7.340861083984375,-0.0006108652451075613,0.009773843921720982,0.02321287989616394
1782774777116819000,7.35081884765625,-0.012217304669320583,0.0006108652451075613,0.0354301854968071
1782774777126850300,7.360850341796875,-0.02382374368607998,0.0024434609804302454,0.03237585723400116
1782774777136838400,7.37083837890625,-0.02687807008624077,0.0012217304902151227,0.01710422709584236
1782774777146839000,7.380839111328125,-0.018325956538319588,0.00366519158706069,-0.00427605677396059
1782774777156827400,7.390827392578125,-0.006108652334660292,0.00733038317412138,-0.02076941914856434
1782774777166858800,7.400858642578125,-0.00733038317412138,0.007941247895359993,-0.02626720629632473
1782774777176816400,7.41081640625,-0.014049900695681572,0.006719517521560192,-0.02321287989616394
1782774777186847500,7.420847412109375,-0.021380282938480377,0.01160643994808197,-0.012217304669320583
1782774777196836000,7.430836181640625,-0.030543262138962746,0.01466076634824276,0.0006108652451075613
1782774777206867000,7.440866943359375,-0.03176499158143997,0.009162978269159794,0.00855211354792118
1782774777216824800,7.450824951171875,-0.02382374368607998,0.01160643994808197,0.012217304669320583
1782774777226856200,7.460856201171875,-0.012828170321881771,0.014049900695681572,0.016493361443281174
1782774777236844300,7.47084423828125,-0.009162978269159794,0.01160643994808197,0.02076941914856434
1782774777246845000,7.480844970703125,-0.009773843921720982,0.009162978269159794,0.013439035043120384
1782774777256833500,7.49083349609375,-0.01160643994808197,0.009162978269159794,0
1782774777266864400,7.500864501953125,-0.021991148591041565,0.013439035043120384,-0.00427605677396059
1782774777276822500,7.510822509765625,-0.03848451003432274,0.004886921960860491,-0.00733038317412138
1782774777286853600,7.520853515625,-0.04153883829712868,0.00366519158706069,-0.00855211354792118
1782774777296842000,7.530842041015625,-0.04092797264456749,0.00427605677396059,-0.01038470957428217
1782774777306842600,7.540842529296875,-0.03481931984424591,0.00733038317412138,-0.01038470957428217
1782774777316831000,7.5508310546875,-0.025045474991202354,0.013439035043120384,-0.009773843921720982
1782774777326862000,7.560862060546875,-0.01771509274840355,0.02076941914856434,-0.00427605677396059
1782774777336820000,7.570820068359375,-0.015271631069481373,0.02015855349600315,0.006108652334660292
1782774777346851300,7.580851318359375,-0.021991148591041565,0.01771509274840355,0.025045474991202354
1782774777356839700,7.590839599609375,-0.031154127791523933,0.012828170321881771,0.039706241339445114
1782774777366840000,7.600840087890625,-0.03420845419168472,0.012217304669320583,0.04214970022439957
1782774777376828700,7.61082861328125,-0.03726277872920036,0.01771509274840355,0.036041051149368286
1782774777386860000,7.620860107421875,-0.0403171069920063,0.019547687843441963,0.024434609338641167
1782774777396817700,7.630817626953125,-0.042760565876960754,0.02076941914856434,0.01466076634824276
1782774777406849000,7.64084912109375,-0.04642575979232788,0.01710422709584236,0.00733038317412138
1782774777416836900,7.6508369140625,-0.039706241339445114,0.01466076634824276,-0.006108652334660292
1782774777426806800,7.660806884765625,-0.02321287989616394,0.02382374368607998,-0.016493361443281174
1782774777437039900,7.671039794921875,-0.01160643994808197,0.018325956538319588,-0.01038470957428217
1782774777446857200,7.680857177734375,-0.006108652334660292,0.009162978269159794,0.003054326167330146
1782774777456845600,7.690845458984375,-0.006108652334660292,0.005497787147760391,0.02321287989616394
1782774777466784800,7.70078466796875,-0.010995574295520782,-0.001832595793530345,0.04092797264456749
1782774777477739800,7.71173974609375,-0.005497787147760391,-0.00733038317412138,0.03848451003432274
1782774777496823800,7.73082373046875,0.005497787147760391,-0.001832595793530345,0.001832595793530345
1782774777506854700,7.740854736328125,0.012217304669320583,0.00427605677396059,-0.02076941914856434
1782774777516843300,7.75084326171875,0.018936822190880775,0.006719517521560192,-0.031154127791523933
1782774777526844200,7.76084423828125,0.025656340643763542,0.006719517521560192,-0.02382374368607998
1782774777536792000,7.7707919921875,0.022602014243602753,0.003054326167330146,0.0006108652451075613
1782774777546893300,7.780893310546875,0.02321287989616394,0.00427605677396059,0.024434609338641167
1782774777557881600,7.791881591796875,0.03237585723400116,0.012217304669320583,0.02687807008624077
1782774777576902000,7.81090185546875,0.03237585723400116,-0.009773843921720982,0.013439035043120384
1782774777586841300,7.82084130859375,0.036651913076639175,-0.014049900695681572,-0.0012217304902151227
1782774777596830000,7.830829833984375,0.04581489413976669,-0.021380282938480377,-0.013439035043120384
1782774777606860800,7.84086083984375,0.04948008432984352,-0.029932396486401558,-0.018325956538319588
1782774777616819000,7.85081884765625,0.04214970022439957,-0.03420845419168472,-0.01710422709584236
1782774777626819000,7.860819091796875,0.03237585723400116,-0.03237585723400116,-0.00855211354792118
1782774777637761300,7.87176123046875,0.02871066704392433,-0.031154127791523933,0.00427605677396059
1782774777656919000,7.8909189453125,0.012828170321881771,-0.045204028487205505,0
1782774777666858200,7.900858154296875,0.009162978269159794,-0.02382374368607998,-0.02076941914856434
1782774777676816400,7.91081640625,0.00366519158706069,-0.012217304669320583,-0.0403171069920063
1782774777686847500,7.920847412109375,-0.0024434609804302454,-0.012828170321881771,-0.04337143152952194
1782774777696836000,7.930836181640625,-0.00733038317412138,-0.02076941914856434,-0.0354301854968071
1782774777706867200,7.9408671875,-0.00855211354792118,-0.013439035043120384,-0.021991148591041565
1782774777716825000,7.9508251953125,-0.009773843921720982,-0.007941247895359993,-0.003054326167330146
1782774777736389000,7.97038916015625,-0.0006108652451075613,-0.0024434609804302454,0.018936822190880775
1782774777746390000,7.98039013671875,0.007941247895359993,0.006719517521560192,0.021380282938480377
1782774777756378000,7.990378173828125,0.015271631069481373,0.0012217304902151227,0.02015855349600315
1782774777766409500,8.000409423828126,0.018325956538319588,-0.004886921960860491,0.02321287989616394
1782774777776367000,8.0103671875,0.01466076634824276,-0.00366519158706069,0.025656340643763542
1782774777786398200,8.020398193359375,0.0024434609804302454,-0.00366519158706069,0.02382374368607998
1782774777796386800,8.03038671875,-0.007941247895359993,-0.00427605677396059,0.014049900695681572
1782774777806356200,8.040356201171875,-0.00855211354792118,-0.0012217304902151227,-0.0012217304902151227
1782774777816435700,8.050435791015625,-0.00427605677396059,-0.00366519158706069,-0.01771509274840355
1782774777826406400,8.060406494140626,-0.001832595793530345,-0.012217304669320583,-0.02932153269648552
1782774777836364000,8.070364013671876,0.0006108652451075613,-0.01771509274840355,-0.036041051149368286
1782774777846334200,8.080334228515625,0.006108652334660292,-0.015271631069481373,-0.03726277872920036
1782774777856444700,8.090444580078126,0.007941247895359993,-0.009773843921720982,-0.03237585723400116
1782774777866327800,8.100327880859375,0.00733038317412138,-0.007941247895359993,-0.02382374368607998
1782774777877466000,8.111466064453126,0.012217304669320583,-0.009162978269159794,-0.009773843921720982
1782774777896361700,8.13036181640625,0.015271631069481373,-0.003054326167330146,0.0006108652451075613
1782774777906393000,8.14039306640625,0.00733038317412138,0.001832595793530345,0.0024434609804302454
1782774777916381700,8.150381591796876,0.0012217304902151227,0.009162978269159794,-0.003054326167330146
1782774777926382300,8.16038232421875,-0.0012217304902151227,0.015271631069481373,-0.00855211354792118
1782774777936370700,8.17037060546875,0,0.01038470957428217,-0.016493361443281174
1782774777946402000,8.180402099609376,0.0024434609804302454,0.009773843921720982,-0.018936822190880775
1782774777956390400,8.190390380859375,0,0.006719517521560192,-0.014049900695681572
1782774777966387200,8.20038720703125,-0.013439035043120384,0.006719517521560192,-0.001832595793530345
1782774777976379400,8.21037939453125,-0.018325956538319588,0.013439035043120384,0.0006108652451075613
1782774777986410500,8.220410400390625,-0.016493361443281174,0.021380282938480377,0.004886921960860491
1782774777996368400,8.230368408203125,-0.012217304669320583,0.01466076634824276,0.012828170321881771
1782774778006368500,8.240368408203125,0.001832595793530345,0.009162978269159794,0.013439035043120384
1782774778016449000,8.250448974609375,0.01466076634824276,-0.0006108652451075613,0.009773843921720982
1782774778026357500,8.260357421875,0.015882495790719986,0.0012217304902151227,0.005497787147760391
1782774778037284900,8.271284912109374,-0.006108652334660292,0.010995574295520782,0.00366519158706069
1782774778056366000,8.290365966796875,-0.0403171069920063,0.01038470957428217,0.0024434609804302454
1782774778066397200,8.300397216796876,-0.04337143152952194,0.00855211354792118,0.0024434609804302454
1782774778076385500,8.310385498046875,-0.03848451003432274,0.00366519158706069,0.0012217304902151227
1782774778086386200,8.32038623046875,-0.0354301854968071,-0.00427605677396059,-0.001832595793530345
1782774778096374500,8.33037451171875,-0.03237585723400116,-0.01038470957428217,-0.007941247895359993
1782774778106405600,8.340405517578125,-0.028099801391363144,-0.018936822190880775,-0.01710422709584236
1782774778116323300,8.3503232421875,-0.025045474991202354,-0.02015855349600315,-0.018936822190880775
1782774778126424600,8.360424560546875,-0.02076941914856434,-0.027488935738801956,-0.021380282938480377
1782774778136444200,8.370444091796875,-0.027488935738801956,-0.030543262138962746,-0.021991148591041565
1782774778146383600,8.380383544921875,-0.03726277872920036,-0.02687807008624077,-0.022602014243602753
1782774778156372000,8.3903720703125,-0.04214970022439957,-0.025656340643763542,-0.01771509274840355
1782774778166403000,8.400403076171875,-0.03237585723400116,-0.02076941914856434,-0.012217304669320583
1782774778176361000,8.41036083984375,-0.01710422709584236,-0.022602014243602753,-0.00366519158706069
1782774778186392300,8.420392333984376,-0.00855211354792118,-0.03848451003432274,-0.006719517521560192
1782774778196380700,8.430380615234375,-0.0006108652451075613,-0.03237585723400116,-0.016493361443281174
1782774778206411800,8.440411865234376,0,-0.018325956538319588,-0.02321287989616394
1782774778216369700,8.45036962890625,0,-0.012828170321881771,-0.015882495790719986
1782774778226400800,8.46040087890625,-0.0024434609804302454,-0.012217304669320583,0.00366519158706069
1782774778236389000,8.47038916015625,-0.009162978269159794,-0.01771509274840355,0.02015855349600315
1782774778246390000,8.48039013671875,-0.01466076634824276,-0.007941247895359993,0.01710422709584236
1782774778256378000,8.490378173828125,-0.02932153269648552,0.004886921960860491,0.0024434609804302454
1782774778266409500,8.500409423828126,-0.03298672288656235,0.009162978269159794,-0.02015855349600315
1782774778276367000,8.5103671875,-0.029932396486401558,0.03726277872920036,-0.03787364438176155
1782774778286398200,8.520398193359375,-0.03481931984424591,-0.006719517521560192,-0.04764748737215996
1782774778296386600,8.530386474609376,-0.02015855349600315,-0.003054326167330146,-0.0507018156349659
1782774778306387500,8.540387451171876,-0.010995574295520782,0.021380282938480377,-0.056810468435287476
1782774778316375800,8.550375732421875,-0.013439035043120384,0.033597588539123535,-0.06414084881544113
1782774778326407000,8.560406982421876,-0.0024434609804302454,0.05925392732024193,-0.06658431142568588
1782774778336364800,8.57036474609375,0.006719517521560192,0.1270599663257599,0.006108652334660292
1782774778346395600,8.580395751953125,0.00855211354792118,0.02382374368607998,0.11301007121801376
1782774778356384300,8.59038427734375,0.02871066704392433,-0.05253441259264946,0.15882496535778046
1782774778366385000,8.600385009765626,0.0403171069920063,0.01160643994808197,0.15882496535778046
1782774778376373200,8.610373291015625,0.021380282938480377,0.025656340643763542,0.11423180252313614
1782774778386404400,8.620404296875,0.01710422709584236,0.05314527451992035,0.03481931984424591
1782774778396362200,8.6303623046875,0.010995574295520782,0.006108652334660292,-0.009162978269159794
1782774778406393300,8.640393310546875,0.006719517521560192,-0.036651913076639175,-0.048258353024721146
1782774778416382000,8.6503818359375,-0.014049900695681572,-0.04581489413976669,-0.09651670604944229
1782774778426382600,8.660382568359376,-0.045204028487205505,-0.0354301854968071,-0.14966198801994324
1782774778436371000,8.670370849609375,-0.06536258012056351,-0.025656340643763542,-0.192422553896904
1782774778446402000,8.680402099609376,-0.0757472887635231,-0.02687807008624077,-0.20952677726745605
1782774778456390400,8.690390380859375,-0.06963863968849182,-0.04703662544488907,-0.20341812074184418
1782774778466390800,8.700390869140625,-0.05742133408784866,-0.04214970022439957,-0.1618792861700058
