time,seconds_elapsed,z,y,x
1782774142395825700,0.30782568359375,-0.06806932389736176,0.14275598526000977,0.0850973129272461
1782774142406385400,0.318385498046875,0.0010223239660263062,0.20363712310791016,0.1449899673461914
1782774142416395300,0.328395263671875,-0.041834235191345215,0.18581032752990723,0.21453857421875
1782774142426404900,0.33840478515625,-0.17586451768875122,0.17507410049438477,0.20271682739257812
1782774142436384300,0.34838427734375,-0.32841891050338745,0.18314123153686523,0.12393665313720703
1782774142446394000,0.35839404296875,-0.2983019948005676,0.14704251289367676,0.02465343475341797
1782774142456403700,0.36840380859375,-0.29072248935699463,0.1435987949371338,0.03330421447753906
1782774142466383000,0.378383056640625,-0.23273441195487976,0.11175346374511719,0.07783317565917969
1782774142476393000,0.38839306640625,-0.0714554563164711,0.08686542510986328,0.10330581665039062
1782774142486402600,0.398402587890625,-0.08397241681814194,0.06607866287231445,0.07148170471191406
1782774142496381700,0.408381591796875,-0.02033492922782898,0.03271603584289551,0.054141998291015625
1782774142506391600,0.4183916015625,0.13637478649616241,0.006278276443481445,0.02242279052734375
1782774142516401200,0.428401123046875,0.14092880487442017,-0.01793694496154785,0.0026597976684570312
1782774142526380500,0.438380615234375,0.08303074538707733,-0.013331174850463867,0.01880168914794922
1782774142536390400,0.448390380859375,-0.08958031237125397,-0.03221321105957031,-0.0034332275390625
1782774142546400000,0.45839990234375,-0.2837175726890564,-0.10364317893981934,-0.14775466918945312
1782774142556379400,0.46837939453125,-0.3511310815811157,-0.08865857124328613,-0.17720603942871094
1782774142566389200,0.47838916015625,-0.4037696123123169,-0.08905792236328125,-0.10889720916748047
1782774142576398800,0.48839892578125,-0.326770544052124,-0.08561468124389648,-0.12476158142089844
1782774142586378000,0.4983779296875,-0.2877063751220703,-0.026475906372070312,-0.11441993713378906
1782774142596387800,0.508387939453125,-0.2508411407470703,-0.017113924026489258,-0.11854076385498047
1782774142606397400,0.5183974609375,-0.09797932207584381,-0.039348602294921875,-0.21109962463378906
1782774142616376800,0.528376953125,0.1588531732559204,-0.10357952117919922,-0.3871307373046875
1782774142626386700,0.53838671875,0.4025789499282837,-0.14428448677062988,-0.4409656524658203
1782774142636396300,0.548396240234375,0.366852343082428,-0.07351493835449219,-0.31084156036376953
1782774142646375700,0.558375732421875,0.2241051197052002,-0.10319256782531738,-0.27472686767578125
1782774142656385500,0.568385498046875,0.1402156949043274,-0.035386085510253906,-0.20789241790771484
1782774142666395400,0.5783955078125,0.0872182697057724,0.022248268127441406,-0.03854179382324219
1782774142676405000,0.588405029296875,-0.05367898941040039,0.076751708984375,0.04660320281982422
1782774142686384000,0.598384033203125,-0.043436408042907715,0.0570225715637207,0.01922321319580078
1782774142696394000,0.60839404296875,-0.023312494158744812,0.18175649642944336,0.16459941864013672
1782774142706403600,0.618403564453125,-0.08460895717144012,0.21484375,0.3029327392578125
1782774142716383000,0.628383056640625,-0.059166476130485535,0.1744232177734375,0.22382736206054688
1782774142726392800,0.638392822265625,-0.11552958190441132,0.1811678409576416,0.013826370239257812
1782774142736402400,0.64840234375,-0.10737492144107819,0.1042637825012207,-0.1812124252319336
1782774142746381800,0.6583818359375,0.037391871213912964,0.0435643196105957,-0.3305788040161133
1782774142756391700,0.6683916015625,0.20700666308403015,0.002675294876098633,-0.32447147369384766
1782774142766401300,0.6784013671875,0.3149041533470154,-0.017297983169555664,-0.28049278259277344
1782774142776380700,0.688380615234375,0.247013121843338,0.060630083084106445,-0.1197805404663086
1782774142786390300,0.698390380859375,0.19901567697525024,0.1322021484375,0.0957651138305664
1782774142796400000,0.708400146484375,0.10296937823295593,0.15597128868103027,0.18918895721435547
1782774142806379300,0.718379150390625,-0.018865451216697693,0.12569856643676758,0.034008026123046875
1782774142816389000,0.72838916015625,0.08695288002490997,0.002578258514404297,-0.2595071792602539
1782774142826398700,0.738398681640625,0.1930927038192749,-0.01862025260925293,-0.44261646270751953
1782774142836378000,0.748378173828125,0.26387715339660645,-0.03136610984802246,-0.31482601165771484
1782774142846388000,0.758387939453125,0.2633633613586426,-0.020706653594970703,-0.13486003875732422
1782774142856397600,0.7683974609375,0.13722704350948334,0.015036344528198242,-0.031795501708984375
1782774142866377000,0.778376953125,0.06094050407409668,-0.04974985122680664,-0.12979888916015625
1782774142876386800,0.78838671875,0.14121057093143463,0.00031757354736328125,-0.10799312591552734
1782774142886396400,0.798396484375,0.09947511553764343,-0.020520925521850586,0.009340286254882812
1782774142896375800,0.808375732421875,0.010471135377883911,0.030373811721801758,0.16012001037597656
1782774142906385400,0.818385498046875,-0.14384675025939941,0.025427579879760742,0.22956466674804688
1782774142916395300,0.828395263671875,-0.2828717827796936,-0.048338890075683594,0.13661479949951172
1782774142926404900,0.83840478515625,-0.3367787301540375,-0.13068151473999023,-0.1211395263671875
1782774142936384300,0.84838427734375,-0.19814006984233856,-0.15828680992126465,-0.3452119827270508
1782774142946394000,0.85839404296875,-0.1124894917011261,-0.1269066333770752,-0.2823324203491211
1782774142956403700,0.86840380859375,0.020599722862243652,-0.11646151542663574,-0.14597511291503906
1782774142966383000,0.878383056640625,0.14978492259979248,-0.00856161117553711,0.03306102752685547
1782774142976393000,0.88839306640625,0.07222293317317963,-0.007785797119140625,0.13768386840820312
1782774142986402600,0.898402587890625,-0.04861702024936676,0.009082317352294922,0.09878730773925781
1782774142996381700,0.908381591796875,-0.11148528009653091,0.010338306427001953,-0.02363872528076172
1782774143006391600,0.9183916015625,-0.1577151119709015,-0.010814905166625977,-0.12433719635009766
1782774143016401200,0.928401123046875,-0.22316637635231018,0.03716611862182617,-0.13163375854492188
1782774143026380500,0.938380615234375,-0.22794482111930847,0.08498597145080566,0.023900985717773438
1782774143036390400,0.948390380859375,-0.12688100337982178,0.061341047286987305,0.028550148010253906
1782774143046400000,0.95839990234375,-0.09051087498664856,0.09459733963012695,0.014245033264160156
1782774143056379400,0.96837939453125,-0.018215462565422058,0.08911705017089844,-0.054962158203125
1782774143066389200,0.97838916015625,0.0670575201511383,0.040313005447387695,-0.14801979064941406
1782774143076398800,0.98839892578125,0.11591771245002747,0.06815266609191895,-0.11417865753173828
1782774143086378000,0.9983779296875,0.060694411396980286,0.09877896308898926,-0.02779865264892578
1782774143096387800,1.008387939453125,0.011912554502487183,0.18491911888122559,0.12067508697509766
1782774143106397700,1.018397705078125,-0.038541629910469055,0.21611404418945312,0.1374197006225586
1782774143116376800,1.028376953125,-0.0448281466960907,0.1769876480102539,0.041851043701171875
1782774143126386700,1.03838671875,0.018629297614097595,0.1481764316558838,-0.03891754150390625
1782774143136396300,1.048396240234375,0.037983402609825134,0.14775514602661133,0.007319450378417969
1782774143146375700,1.058375732421875,0.05808629095554352,0.15753984451293945,0.10370540618896484
1782774143156385500,1.068385498046875,0.04653029143810272,0.2006089687347412,0.09482097625732422
1782774143166395400,1.0783955078125,-0.03713583946228027,0.1950383186340332,0.08614921569824219
1782774143176405000,1.088405029296875,-0.012342751026153564,0.10032963752746582,-0.02049732208251953
1782774143186384100,1.098384033203125,0.06868542730808258,0.05982470512390137,-0.1748199462890625
1782774143196394000,1.10839404296875,0.11236965656280518,-0.023524045944213867,-0.30050086975097656
1782774143206403600,1.118403564453125,0.1670183688402176,0.028001070022583008,-0.24446678161621094
1782774143216383000,1.128383056640625,0.17662790417671204,0.05223417282104492,-0.1457357406616211
1782774143226392800,1.138392822265625,0.06647360324859619,0.04134392738342285,-0.047219276428222656
1782774143236402400,1.14840234375,-0.034673258662223816,0.05424141883850098,-0.1425762176513672
1782774143246381800,1.1583818359375,0.0414016991853714,0.0036818981170654297,-0.26633644104003906
1782774143256391700,1.1683916015625,0.07343173027038574,0.008283853530883789,-0.30869579315185547
1782774143266401300,1.1784013671875,0.07767827808856964,0.013634681701660156,-0.2961568832397461
1782774143276380700,1.188380615234375,0.15168052911758423,0.0506892204284668,-0.15928268432617188
1782774143286390300,1.198390380859375,0.13553835451602936,0.05974745750427246,0.008496284484863281
1782774143296400100,1.208400146484375,-0.011216968297958374,0.08578896522521973,0.08520889282226562
1782774143306379300,1.218379150390625,0.028659120202064514,0.08717179298400879,-0.027022361755371094
1782774143316389000,1.22838916015625,0.16929681599140167,0.032283782958984375,-0.08386516571044922
1782774143326398700,1.238398681640625,0.23689505457878113,0.05163311958312988,0.00775909423828125
1782774143336378000,1.248378173828125,0.1714484691619873,0.05996060371398926,0.09916210174560547
1782774143346388000,1.258387939453125,0.049535900354385376,0.06313610076904297,0.10923576354980469
1782774143356397600,1.2683974609375,-0.08810323476791382,0.05585813522338867,0.009388923645019531
1782774143366377000,1.278376953125,-0.151078462600708,-0.04065537452697754,-0.13099288940429688
1782774143376386800,1.28838671875,-0.17286650836467743,-0.08223986625671387,-0.26177120208740234
1782774143386396400,1.298396484375,-0.1788783073425293,-0.07264375686645508,-0.2060832977294922
1782774143396375800,1.308375732421875,-0.04163607954978943,-0.07344698905944824,-0.10299491882324219
1782774143406385400,1.318385498046875,0.10288286209106445,-0.04189562797546387,0.04284954071044922
1782774143416395300,1.328395263671875,0.07394026219844818,0.0021753311157226562,0.13111305236816406
1782774143426404900,1.33840478515625,0.01711946725845337,-0.011426925659179688,0.24820423126220703
1782774143436324600,1.34832470703125,-0.06721651554107666,-0.00723576545715332,0.21486282348632812
1782774143446455000,1.358455078125,-0.09021802246570587,0.0026438236236572266,0.13885879516601562
1782774143456344000,1.368343994140625,-0.06535130739212036,-0.010534048080444336,0.06805706024169922
1782774143466474500,1.378474609375,-0.006392925977706909,-0.03172922134399414,-0.012103080749511719
1782774143476393000,1.38839306640625,0.0546446293592453,-0.07716631889343262,-0.1304779052734375
1782774143486402600,1.398402587890625,0.04006604850292206,-0.07942676544189453,-0.1914386749267578
1782774143496381700,1.408381591796875,0.01020282506942749,-0.1453862190246582,-0.2646656036376953
1782774143506391600,1.4183916015625,0.03629763424396515,-0.11227679252624512,-0.2783088684082031
1782774143516401200,1.428401123046875,-0.09644962847232819,-0.09662914276123047,-0.14874649047851562
1782774143526380500,1.438380615234375,-0.14190788567066193,-0.0985419750213623,-0.0746603012084961
1782774143536390400,1.448390380859375,0.02360650897026062,-0.10252165794372559,-0.079681396484375
1782774143546400000,1.45839990234375,0.12228082120418549,-0.08246278762817383,-0.10628128051757812
1782774143556379400,1.46837939453125,0.1189689189195633,-0.06531906127929688,-0.08487701416015625
1782774143566389200,1.47838916015625,0.11586333811283112,-0.11541223526000977,-0.05145072937011719
1782774143576398800,1.48839892578125,0.019296810030937195,-0.11109066009521484,-0.1543121337890625
1782774143586378000,1.4983779296875,-0.1018950343132019,-0.06230902671813965,-0.22813987731933594
1782774143596387800,1.508387939453125,-0.08624736964702606,-0.08049511909484863,-0.23250484466552734
1782774143606397400,1.5183974609375,-0.022982224822044373,-0.01819777488708496,-0.1558694839477539
1782774143616376800,1.528376953125,0.007742002606391907,0.025647640228271484,-0.09381961822509766
1782774143626386700,1.53838671875,0.006280109286308289,0.04834127426147461,-0.0007848739624023438
1782774143636396300,1.548396240234375,-0.0041658878326416016,0.044394731521606445,-0.001056671142578125
1782774143646375700,1.558375732421875,-0.059089913964271545,0.013710498809814453,-0.061036109924316406
1782774143656385500,1.568385498046875,-0.007426932454109192,-0.02660846710205078,-0.1185770034790039
1782774143666395400,1.5783955078125,0.06496493518352509,-0.007086038589477539,-0.14981842041015625
1782774143676405000,1.588405029296875,0.04859714210033417,0.04631161689758301,-0.06629085540771484
1782774143686384000,1.598384033203125,0.07328268885612488,0.09293437004089355,0.057819366455078125
1782774143696394000,1.60839404296875,0.04271511733531952,0.07948160171508789,0.09341049194335938
1782774143706403600,1.618403564453125,-0.03503039479255676,0.08608078956604004,0.021660804748535156
1782774143716383000,1.628383056640625,-0.17390111088752747,0.05060911178588867,-0.0018510818481445312
1782774143726392800,1.638392822265625,-0.15279343724250793,0.031584978103637695,-0.001323699951171875
1782774143736402400,1.64840234375,-0.007958844304084778,0.05327606201171875,0.059075355529785156
1782774143746381800,1.6583818359375,0.04792553186416626,0.0565028190612793,0.10258769989013672
1782774143756391700,1.6683916015625,0.04305529594421387,-0.0432887077331543,0.050421714782714844
1782774143766401300,1.6784013671875,0.13322831690311432,-0.04330801963806152,-0.08770179748535156
1782774143776380700,1.688380615234375,0.1715758889913559,0.002084970474243164,-0.034282684326171875
1782774143786390300,1.698390380859375,0.14003567397594452,-0.030733585357666016,0.06435871124267578
1782774143796400000,1.708400146484375,0.12999649345874786,-0.06587576866149902,0.052796363830566406
1782774143806379500,1.718379638671875,0.035588622093200684,-0.03962898254394531,-0.06151771545410156
1782774143816389000,1.72838916015625,0.043957218527793884,-0.12171745300292969,-0.07988929748535156
1782774143826398700,1.738398681640625,0.07720890641212463,-0.1624128818511963,-0.12236499786376953
1782774143836378000,1.748378173828125,-0.008092120289802551,-0.1619091033935547,-0.24156475067138672
1782774143846388000,1.758387939453125,-0.043230652809143066,-0.14416003227233887,-0.24118900299072266
1782774143856397600,1.7683974609375,-0.12117314338684082,-0.13674283027648926,-0.07847213745117188
1782774143866377000,1.778376953125,-0.14634442329406738,-0.06559538841247559,0.050312042236328125
1782774143876386800,1.78838671875,-0.12816518545150757,-0.01086878776550293,0.03773689270019531
1782774143886396400,1.798396484375,-0.14548808336257935,-0.01938939094543457,-0.07033538818359375
1782774143896375800,1.808375732421875,-0.08344343304634094,-0.06961441040039062,-0.1613750457763672
1782774143906385400,1.818385498046875,-0.01870061457157135,-0.09168004989624023,-0.2355022430419922
1782774143916395300,1.828395263671875,0.00828617811203003,-0.08181524276733398,-0.20207786560058594
1782774143926404900,1.83840478515625,0.0159112811088562,-0.048862457275390625,-0.11635589599609375
1782774143936384300,1.84838427734375,0.029836341738700867,-0.014752388000488281,0.004974365234375
1782774143946394000,1.85839404296875,-0.03108954429626465,0.026693105697631836,0.13580322265625
1782774143956403700,1.86840380859375,-0.033033668994903564,0.06078147888183594,0.1493358612060547
1782774143966383000,1.878383056640625,-0.0480494499206543,0.08173942565917969,0.12724876403808594
1782774143976393000,1.88839306640625,-0.05989536643028259,0.04879426956176758,0.11028003692626953
1782774143986402600,1.898402587890625,-0.1147322952747345,0.005059480667114258,0.0002727508544921875
1782774143996381700,1.908381591796875,-0.09043373167514801,-0.018110990524291992,-0.1070718765258789
1782774144006391600,1.9183916015625,-0.11042612791061401,-0.05560803413391113,-0.18088150024414062
1782774144016401200,1.928401123046875,-0.14454174041748047,-0.046990156173706055,-0.19980430603027344
1782774144026380500,1.938380615234375,-0.09714578837156296,-0.06790661811828613,-0.1856517791748047
1782774144036390400,1.948390380859375,-0.05177052319049835,-0.08107566833496094,-0.17884445190429688
1782774144046400000,1.95839990234375,0.01920914649963379,-0.012202739715576172,-0.15065383911132812
1782774144056379400,1.96837939453125,0.08281680941581726,-0.017139911651611328,-0.07468795776367188
1782774144066389200,1.97838916015625,0.02257716655731201,0.028043031692504883,-0.0010833740234375
1782774144076398800,1.98839892578125,-0.17878186702728271,0.06322383880615234,0.0846090316772461
1782774144086378000,1.9983779296875,-0.2516518831253052,-0.017534732818603516,-0.040093421936035156
1782774144096387800,2.008387939453125,-0.03332944214344025,-0.04934954643249512,-0.23862934112548828
1782774144106397400,2.0183974609375,0.17332710325717926,-0.0478823184967041,-0.2671175003051758
1782774144116376800,2.028376953125,0.26483985781669617,-0.09041070938110352,-0.16672611236572266
1782774144126386700,2.03838671875,0.23379939794540405,-0.02875828742980957,-0.03554534912109375
1782774144136396300,2.048396240234375,0.1295166164636612,0.07721829414367676,0.12644672393798828
1782774144146375700,2.058375732421875,-0.04222644865512848,0.07778549194335938,0.25255298614501953
1782774144156385500,2.068385498046875,-0.21384207904338837,0.017477035522460938,0.23528671264648438
1782774144166395400,2.0783955078125,-0.2102145254611969,0.031746864318847656,0.07013511657714844
1782774144176405000,2.088405029296875,-0.09823708236217499,-0.04191088676452637,-0.08736705780029297
1782774144186384100,2.098384033203125,0.09518589079380035,-0.07036137580871582,-0.17056941986083984
1782774144196394000,2.10839404296875,0.30579203367233276,-0.06234574317932129,-0.21802043914794922
1782774144206403600,2.118403564453125,0.39245498180389404,-0.03655695915222168,-0.1364297866821289
1782774144216383000,2.128383056640625,0.3044435381889343,-0.03800773620605469,-0.08872604370117188
1782774144226392800,2.138392822265625,0.09863981604576111,0.00142669677734375,-0.09613037109375
1782774144236402400,2.14840234375,-0.08849719911813736,-0.011636018753051758,-0.05807971954345703
1782774144246381800,2.1583818359375,-0.18636661767959595,0.03026723861694336,-0.060713768005371094
1782774144256391700,2.1683916015625,-0.35977497696876526,0.052741050720214844,0.015717506408691406
1782774144266401300,2.1784013671875,-0.4682324528694153,-0.059419870376586914,-0.08013629913330078
1782774144276380700,2.188380615234375,-0.33687400817871094,-0.014921188354492188,-0.19722270965576172
1782774144286390500,2.198390625,-0.14659108221530914,-0.06390929222106934,-0.2687692642211914
1782774144296400100,2.208400146484375,0.02393500506877899,-0.032993316650390625,-0.17529773712158203
1782774144306379500,2.218379638671875,0.20430150628089905,-0.038828134536743164,-0.1253070831298828
1782774144316389000,2.22838916015625,0.26246902346611023,0.02076268196105957,-0.06834602355957031
1782774144326398700,2.238398681640625,0.1628705859184265,0.08551859855651855,0.12018966674804688
1782774144336378000,2.248378173828125,0.03786180913448334,0.1212468147277832,0.1699228286743164
1782774144346388000,2.258387939453125,-0.08137071132659912,0.1077582836151123,0.10747623443603516
1782774144356397600,2.2683974609375,-0.16899287700653076,0.06153416633605957,-0.002422332763671875
1782774144366377000,2.278376953125,-0.21233400702476501,0.016423940658569336,-0.1311473846435547
1782774144376386800,2.28838671875,-0.14123627543449402,-0.03157401084899902,-0.2597808837890625
1782774144386396400,2.298396484375,-0.0015904754400253296,-0.05485391616821289,-0.18276119232177734
1782774144396375800,2.308375732421875,0.12387071549892426,-0.028522253036499023,-0.008055686950683594
1782774144406385400,2.318385498046875,0.19857026636600494,-0.055539846420288086,0.1135110855102539
1782774144416395300,2.328395263671875,0.24574996531009674,-0.05115199089050293,0.11292266845703125
1782774144426404900,2.33840478515625,0.255696177482605,-0.03787350654602051,0.031154632568359375
1782774144436384300,2.34838427734375,0.23383621871471405,-0.05150198936462402,0.050110816955566406
1782774144446394000,2.35839404296875,0.15406537055969238,-0.005621433258056641,0.023632049560546875
1782774144456403700,2.36840380859375,0.12775078415870667,0.0064122676849365234,0.0570831298828125
1782774144466383000,2.378383056640625,0.005544766783714294,-0.00557398796081543,0.07619094848632812
1782774144476393000,2.38839306640625,-0.09203588962554932,-0.013299703598022461,-0.014650344848632812
1782774144486402600,2.398402587890625,-0.08449672907590866,-0.048064470291137695,-0.12200355529785156
1782774144496381700,2.408381591796875,-0.10265373438596725,-0.10408186912536621,-0.19827556610107422
1782774144506391600,2.4183916015625,-0.0774906575679779,-0.16214346885681152,-0.3249244689941406
1782774144516401200,2.428401123046875,-0.058965981006622314,-0.12346005439758301,-0.3489046096801758
1782774144526380500,2.438380615234375,0.042817384004592896,-0.06398963928222656,-0.23924541473388672
1782774144536390400,2.448390380859375,0.09154723584651947,0.032732486724853516,-0.08445453643798828
1782774144546400000,2.45839990234375,0.05624444782733917,0.05536937713623047,0.03439521789550781
1782774144556379400,2.46837939453125,-0.05343875288963318,0.0409698486328125,0.012302398681640625
1782774144566389200,2.47838916015625,-0.023848503828048706,0.003525257110595703,-0.12909793853759766
1782774144576398800,2.48839892578125,-0.0965583473443985,-0.020518064498901367,-0.18645000457763672
1782774144586378000,2.4983779296875,-0.18541619181632996,-0.056066274642944336,-0.18169689178466797
1782774144596387800,2.508387939453125,-0.2880927324295044,-0.06194353103637695,-0.17960739135742188
1782774144606397400,2.5183974609375,-0.24282793700695038,-0.009165763854980469,-0.09403610229492188
1782774144616376800,2.528376953125,-0.22584055364131927,0.03970479965209961,0.04874706268310547
1782774144626386700,2.53838671875,-0.24893851578235626,0.07166719436645508,0.134033203125
1782774144636396300,2.548396240234375,-0.23583003878593445,0.08052849769592285,0.07602500915527344
1782774144646375700,2.558375732421875,-0.15017595887184143,-0.0179140567779541,-0.0915985107421875
1782774144656385500,2.568385498046875,-0.09584054350852966,-0.0433042049407959,-0.1846771240234375
1782774144666395400,2.5783955078125,-0.07835398614406586,-0.09223175048828125,-0.2203807830810547
1782774144676405000,2.588405029296875,-0.09691490232944489,-0.039656877517700195,-0.17733001708984375
1782774144686384000,2.598384033203125,-0.1954582929611206,0.0017480850219726562,-0.06509780883789062
1782774144696394000,2.60839404296875,-0.24394787847995758,0.029589176177978516,0.05889320373535156
1782774144706403600,2.618403564453125,-0.20219488441944122,0.016822338104248047,-0.0038690567016601562
1782774144716383000,2.628383056640625,-0.14809446036815643,-0.002099752426147461,-0.09978580474853516
1782774144726392800,2.638392822265625,-0.003719314932823181,-0.01656961441040039,-0.09024810791015625
1782774144736402400,2.64840234375,0.17610475420951843,-0.032898664474487305,-0.09760570526123047
1782774144746381800,2.6583818359375,0.265144407749176,-0.010690927505493164,-0.07150936126708984
1782774144756391700,2.6683916015625,0.23615151643753052,0.03582596778869629,0.08139419555664062
1782774144766401300,2.6784013671875,0.1690560132265091,0.03025674819946289,0.15278148651123047
1782774144776380700,2.688380615234375,0.18649114668369293,0.048354148864746094,0.1332998275756836
1782774144786390500,2.698390625,0.15626667439937592,0.007949352264404297,0.04945564270019531
1782774144796400000,2.708400146484375,0.25038230419158936,0.007183074951171875,-0.007761955261230469
1782774144806319600,2.718319580078125,0.2550777792930603,-0.032205820083618164,-0.036144256591796875
1782774144816450000,2.728449951171875,0.23189736902713776,-0.05661296844482422,-0.09099769592285156
1782774144826398700,2.738398681640625,0.2699894905090332,-0.09025287628173828,-0.17704391479492188
1782774144836318500,2.748318359375,0.30661800503730774,-0.06882119178771973,-0.12903404235839844
1782774144846389200,2.75838916015625,0.17311668395996094,-0.0393679141998291,-0.07412242889404297
1782774144856458800,2.768458740234375,0.013351649045944214,-0.05732011795043945,-0.07201766967773438
1782774144866377000,2.778376953125,-0.10830313712358475,-0.015548944473266602,-0.10338592529296875
1782774144876386800,2.78838671875,-0.22735914587974548,-0.026691675186157227,-0.15863609313964844
1782774144886396400,2.798396484375,-0.2495020031929016,-0.020984411239624023,-0.11098861694335938
1782774144896375800,2.808375732421875,-0.2270154505968094,-0.005622148513793945,-0.12085914611816406
1782774144906385400,2.818385498046875,-0.11350305378437042,0.0024247169494628906,-0.12590503692626953
1782774144916395300,2.828395263671875,-0.06880758702754974,0.02450728416442871,-0.1356639862060547
1782774144926404900,2.83840478515625,-0.09835925698280334,0.06346678733825684,-0.04729270935058594
1782774144936384300,2.84838427734375,-0.1626701056957245,0.03342080116271973,-0.01407623291015625
1782774144946394000,2.85839404296875,-0.2281973510980606,0.03634166717529297,-0.021436691284179688
1782774144956403700,2.86840380859375,-0.21776831150054932,0.08933186531066895,0.08853626251220703
1782774144966383000,2.878383056640625,-0.13918694853782654,0.14480280876159668,0.2774696350097656
1782774144976393000,2.88839306640625,-0.13619711995124817,0.13512849807739258,0.2774314880371094
1782774144986402600,2.898402587890625,-0.12077216058969498,0.09947872161865234,0.16306495666503906
1782774144996381700,2.908381591796875,-0.08746550977230072,0.06008648872375488,0.008390426635742188
1782774145006391600,2.9183916015625,-0.0441097766160965,0.03701901435852051,-0.06716251373291016
1782774145016401200,2.928401123046875,0.1277162879705429,-0.014456033706665039,-0.13805103302001953
1782774145026380500,2.938380615234375,0.24579380452632904,-0.019524097442626953,-0.08950424194335938
1782774145036390400,2.948390380859375,0.1522568315267563,0.05838608741760254,0.056794166564941406
1782774145046400000,2.95839990234375,-0.04784195125102997,0.08458614349365234,0.2148284912109375
1782774145056379400,2.96837939453125,-0.159246563911438,0.09107017517089844,0.2149944305419922
1782774145066389200,2.97838916015625,-0.20009645819664001,0.021607637405395508,0.0959024429321289
1782774145076398800,2.98839892578125,-0.1466992199420929,-0.0401458740234375,-0.11606884002685547
1782774145086378000,2.9983779296875,-0.01657821238040924,-0.19377899169921875,-0.3613128662109375
1782774145096387800,3.008387939453125,0.18295243382453918,-0.19902825355529785,-0.4293642044067383
1782774145106397400,3.0183974609375,0.3505910038948059,-0.1780686378479004,-0.328033447265625
1782774145116376800,3.028376953125,0.32350653409957886,-0.17586421966552734,-0.15802383422851562
1782774145126386700,3.03838671875,0.1928267478942871,-0.11225700378417969,-0.084197998046875
1782774145136396300,3.048396240234375,0.05691137909889221,-0.11547493934631348,-0.09900474548339844
1782774145146375700,3.058375732421875,-0.11274901777505875,-0.1790928840637207,-0.17351531982421875
1782774145156385500,3.068385498046875,-0.1509387493133545,-0.18826985359191895,-0.2765779495239258
1782774145166395400,3.0783955078125,-0.17102527618408203,-0.1761760711669922,-0.31255340576171875
1782774145176405000,3.088405029296875,-0.10936229676008224,-0.19191670417785645,-0.2937145233154297
1782774145186384100,3.098384033203125,0.06280569732189178,-0.18048357963562012,-0.2894754409790039
1782774145196394000,3.10839404296875,0.2059650421142578,-0.10596942901611328,-0.21602916717529297
1782774145206403600,3.118403564453125,0.2104027271270752,-0.10436272621154785,-0.05191993713378906
1782774145216383000,3.128383056640625,0.13179215788841248,-0.061330556869506836,0.0737152099609375
1782774145226392800,3.138392822265625,0.07344575226306915,-0.042224884033203125,0.06290340423583984
1782774145236402400,3.14840234375,0.0038034766912460327,-0.02654743194580078,0.0763082504272461
1782774145246381800,3.1583818359375,-0.047332823276519775,0.00017142295837402344,0.10190391540527344
1782774145256391700,3.1683916015625,-0.049423664808273315,-0.0048367977142333984,0.09891223907470703
1782774145266401300,3.1784013671875,-0.12124620378017426,-0.017575740814208984,0.06734561920166016
1782774145276380700,3.188380615234375,-0.18335282802581787,-0.028548479080200195,-0.02630138397216797
1782774145286390500,3.198390625,-0.11296295374631882,-0.06163954734802246,-0.06713676452636719
1782774145296400100,3.208400146484375,-0.05751052498817444,-0.04420208930969238,-0.05057048797607422
1782774145306379500,3.218379638671875,-0.046237438917160034,-0.021336078643798828,-0.060492515563964844
1782774145316389000,3.22838916015625,-0.007831424474716187,-0.03683018684387207,-0.06802082061767578
1782774145326398700,3.238398681640625,0.013897016644477844,0.007569551467895508,-0.030069351196289062
1782774145336378000,3.248378173828125,-0.03255903720855713,-0.026699304580688477,-0.0017671585083007812
1782774145346388000,3.258387939453125,-0.10726210474967957,-0.025464296340942383,-0.016457557678222656
1782774145356397600,3.2683974609375,-0.21316519379615784,-0.0054209232330322266,-0.026309967041015625
1782774145366377000,3.278376953125,-0.32381635904312134,0.0020875930786132812,0.0022516250610351562
1782774145376386800,3.28838671875,-0.38702189922332764,0.0069234371185302734,0.06916332244873047
1782774145386396400,3.298396484375,-0.37088966369628906,0.0012326240539550781,-0.026474952697753906
1782774145396375800,3.308375732421875,-0.2723994851112366,-0.04098200798034668,-0.1243143081665039
1782774145406385400,3.318385498046875,-0.09306991100311279,-0.13387703895568848,-0.2555513381958008
1782774145416395300,3.328395263671875,0.11115561425685883,-0.1714036464691162,-0.3724784851074219
1782774145426404900,3.33840478515625,0.2855786979198456,-0.154998779296875,-0.3053770065307617
1782774145436384300,3.34838427734375,0.2845423221588135,-0.08834624290466309,-0.06891632080078125
1782774145446394000,3.35839404296875,0.20407061278820038,-0.060698747634887695,0.1024465560913086
1782774145456403700,3.36840380859375,0.08596855401992798,-0.019053220748901367,0.1829233169555664
1782774145466383000,3.378383056640625,-0.011067330837249756,-0.01945042610168457,0.1703958511352539
1782774145476393000,3.38839306640625,-0.12184476852416992,-0.06235909461975098,0.06018543243408203
1782774145486402600,3.398402587890625,-0.01635843515396118,-0.1496727466583252,-0.09756755828857422
1782774145496381700,3.408381591796875,0.048343464732170105,-0.16089129447937012,-0.16419601440429688
1782774145506391600,3.4183916015625,0.11932253837585449,-0.15434741973876953,-0.1664409637451172
1782774145516401200,3.428401123046875,0.20331484079360962,-0.15132880210876465,-0.23604488372802734
1782774145526380500,3.438380615234375,0.2832505702972412,-0.08974885940551758,-0.15987491607666016
1782774145536390400,3.448390380859375,0.2922095060348511,-0.08869314193725586,-0.0769662857055664
1782774145546400000,3.45839990234375,0.2531634569168091,-0.070526123046875,-0.056396484375
1782774145556379400,3.46837939453125,0.17252981662750244,-0.0767371654510498,-0.10995101928710938
1782774145566389200,3.47838916015625,0.07908172905445099,-0.08598017692565918,-0.14420223236083984
1782774145576398800,3.48839892578125,-0.10488251596689224,-0.09566116333007812,-0.2214374542236328
1782774145586378000,3.4983779296875,-0.26556408405303955,-0.11267805099487305,-0.2579202651977539
1782774145596387800,3.508387939453125,-0.3223024606704712,-0.04575324058532715,-0.21544647216796875
1782774145606397400,3.5183974609375,-0.31735506653785706,0.009868144989013672,-0.09895706176757812
1782774145616317200,3.528317138671875,-0.2879810929298401,0.05166220664978027,0.017381668090820312
1782774145626447600,3.538447509765625,-0.22593466937541962,0.04540872573852539,0.0068836212158203125
1782774145636396500,3.548396484375,-0.11550094187259674,0.014282464981079102,-0.05840110778808594
1782774145646375700,3.558375732421875,-0.031146839261054993,-0.01781773567199707,-0.15691471099853516
1782774145656385500,3.568385498046875,0.07078035175800323,-0.05009651184082031,-0.2553577423095703
1782774145666395400,3.5783955078125,0.12881284952163696,-0.053404808044433594,-0.1815042495727539
1782774145676405000,3.588405029296875,0.010970309376716614,0.006682872772216797,-0.0026311874389648438
1782774145686384000,3.598384033203125,-0.09122166037559509,0.02902531623840332,0.08988571166992188
1782774145696394000,3.60839404296875,-0.28357961773872375,0.09377026557922363,0.1873607635498047
1782774145706403800,3.61840380859375,-0.29453590512275696,0.07262516021728516,0.13220882415771484
1782774145716383000,3.628383056640625,-0.21808980405330658,-0.017052412033081055,0.02000904083251953
1782774145726333200,3.638333251953125,-0.11218670010566711,-0.04043889045715332,-0.06566715240478516
1782774145736463600,3.648463623046875,-0.05348959565162659,-0.05623888969421387,-0.1203317642211914
1782774145746381800,3.6583818359375,-0.025113403797149658,-0.08106613159179688,-0.156005859375
1782774145756391700,3.6683916015625,-0.022561371326446533,-0.07175540924072266,-0.16072559356689453
1782774145766341600,3.678341552734375,-0.11152444779872894,-0.05455160140991211,-0.11056041717529297
1782774145776472300,3.688472412109375,-0.28736090660095215,-0.08188128471374512,-0.01993560791015625
1782774145786390500,3.698390625,-0.4086427688598633,-0.0686483383178711,-0.12323570251464844
1782774145796400000,3.708400146484375,-0.42301732301712036,-0.08782958984375,-0.20709705352783203
1782774145806379500,3.718379638671875,-0.35369595885276794,-0.10448384284973145,-0.32454490661621094
1782774145816389000,3.72838916015625,-0.2222626954317093,-0.07013130187988281,-0.3104972839355469
1782774145826398700,3.738398681640625,-0.06966156512498856,-0.048902273178100586,-0.28955650329589844
1782774145836378000,3.748378173828125,0.03405716270208359,-0.04604482650756836,-0.32384204864501953
1782774145846388000,3.758387939453125,0.052193135023117065,0.024095773696899414,-0.255218505859375
1782774145856397600,3.7683974609375,0.028981760144233704,0.07129216194152832,-0.09826087951660156
1782774145866377000,3.778376953125,0.033762574195861816,0.14519882202148438,0.029876708984375
1782774145876386800,3.78838671875,-0.016896195709705353,0.1946113109588623,0.13901615142822266
1782774145886396400,3.798396484375,-0.11015140265226364,0.2807328701019287,0.22462844848632812
1782774145896375800,3.808375732421875,-0.14649172127246857,0.3125905990600586,0.3130617141723633
1782774145906385400,3.818385498046875,-0.1090787947177887,0.3212621212005615,0.3205299377441406
1782774145916395300,3.828395263671875,-0.00831131637096405,0.30169105529785156,0.2614469528198242
1782774145926345200,3.83834521484375,0.025834113359451294,0.3019120693206787,0.24352264404296875
1782774145936475600,3.8484755859375,0.10405892133712769,0.2510526180267334,0.1875286102294922
1782774145946334500,3.85833447265625,0.13536766171455383,0.23062777519226074,0.11737728118896484
1782774145956435700,3.868435791015625,0.06088612973690033,0.186021089553833,0.1023702621459961
1782774145966474500,3.878474609375,-0.030994847416877747,0.1295762062072754,0.10889530181884766
1782774145976393000,3.88839306640625,-0.07759235799312592,0.17152786254882812,0.0866384506225586
1782774145986402600,3.898402587890625,-0.07907061278820038,0.1609492301940918,0.16970252990722656
1782774145996381700,3.908381591796875,-0.11144552379846573,0.11477375030517578,0.12818622589111328
1782774146006391600,3.9183916015625,-0.13047930598258972,0.02408885955810547,-0.018312454223632812
1782774146016341500,3.928341552734375,-0.06397943198680878,0.0063092708587646484,-0.14293575286865234
1782774146026472200,3.93847216796875,-0.0017611682415008545,-0.011211156845092773,-0.11679840087890625
1782774146036390400,3.948390380859375,-0.05667056143283844,-0.04699087142944336,-0.10286903381347656
1782774146046400000,3.95839990234375,-0.18177227675914764,-0.09386897087097168,-0.1657724380493164
1782774146056379400,3.96837939453125,-0.20891864597797394,-0.10665488243103027,-0.1976451873779297
1782774146066389200,3.97838916015625,-0.12031038105487823,-0.0996248722076416,-0.22008132934570312
1782774146076398800,3.98839892578125,-0.002159222960472107,-0.08707451820373535,-0.13498973846435547
1782774146086378000,3.9983779296875,0.05598609149456024,-0.10471677780151367,-0.023862838745117188
1782774146096387800,4.008387939453125,0.0651782751083374,-0.09579277038574219,0.012952804565429688
1782774146106397400,4.0183974609375,0.05666646361351013,-0.08235025405883789,-0.009989738464355469
1782774146116376800,4.028376953125,0.012288987636566162,-0.1816422939300537,-0.0711202621459961
1782774146126386700,4.03838671875,-0.08839431405067444,-0.19089031219482422,-0.1822967529296875
1782774146136396300,4.048396240234375,-0.20399171113967896,-0.17857599258422852,-0.2743654251098633
1782774146146316000,4.05831591796875,-0.2115875780582428,-0.10772490501403809,-0.16562175750732422
1782774146156477000,4.068476806640625,-0.2441542148590088,-0.08275818824768066,-0.07655525207519531
1782774146166395400,4.0783955078125,-0.2578893005847931,-0.10540080070495605,-0.16712379455566406
1782774146176405000,4.088405029296875,-0.0891401618719101,-0.12814593315124512,-0.2600698471069336
1782774146186384100,4.098384033203125,0.014753907918930054,-0.10924386978149414,-0.1665210723876953
1782774146196394000,4.10839404296875,0.04856908321380615,-0.12032222747802734,-0.0708761215209961
1782774146206344000,4.118343994140625,-0.003946095705032349,-0.07156777381896973,-0.03507518768310547
1782774146216474400,4.128474365234375,-0.04521043598651886,-0.06133460998535156,-0.03989410400390625
1782774146226333200,4.138333251953125,-0.060064882040023804,-0.054390668869018555,-0.061219215393066406
1782774146236404000,4.148404052734375,-0.0688648521900177,-0.0937662124633789,-0.1876974105834961
1782774146246473500,4.158473388671875,-0.05439503490924835,-0.14594697952270508,-0.30202198028564453
1782774146256332000,4.16833203125,-0.03184768557548523,-0.20030975341796875,-0.34221363067626953
1782774146266402800,4.17840283203125,-0.014276951551437378,-0.22729825973510742,-0.4473285675048828
1782774146277252000,4.189252197265625,0.11952653527259827,-0.25353312492370605,-0.6196584701538086
1782774146296400100,4.208400146484375,0.08959260582923889,-0.271716833114624,-0.620330810546875
1782774146306379500,4.218379638671875,0.07507190108299255,-0.23681426048278809,-0.6212196350097656
1782774146316389000,4.22838916015625,0.023176878690719604,-0.19849705696105957,-0.6200237274169922
1782774146326398700,4.238398681640625,-0.03968551754951477,-0.18086624145507812,-0.5855770111083984
1782774146336378000,4.248378173828125,-0.1477016657590866,-0.08512187004089355,-0.38634681701660156
1782774146346388000,4.258387939453125,-0.1985071301460266,-0.009525299072265625,-0.22100543975830078
1782774146356397800,4.268397705078125,-0.1829664558172226,0.07856321334838867,-0.09407997131347656
1782774146366377000,4.278376953125,-0.1020054966211319,0.1970198154449463,0.08339405059814453
1782774146376386800,4.28838671875,-0.12305939197540283,0.19971942901611328,0.19651508331298828
1782774146386396400,4.298396484375,0.010399788618087769,0.07644796371459961,0.0706634521484375
1782774146396375800,4.308375732421875,0.2420201599597931,0.04478812217712402,-0.026060104370117188
1782774146406385400,4.318385498046875,0.32494157552719116,0.0875399112701416,0.04229164123535156
1782774146416395300,4.328395263671875,0.254313200712204,0.13691997528076172,0.31606578826904297
1782774146426404900,4.33840478515625,0.1418628692626953,0.1999225616455078,0.5104360580444336
1782774146436384300,4.34838427734375,-0.1241232305765152,0.29390621185302734,0.6210689544677734
1782774146446394000,4.35839404296875,-0.3375917971134186,0.2259519100189209,0.5645303726196289
1782774146456403700,4.36840380859375,-0.4798153042793274,0.14309334754943848,0.33871936798095703
1782774146466383000,4.378383056640625,-0.440127432346344,0.009446144104003906,0.039368629455566406
1782774146476393000,4.38839306640625,-0.21042847633361816,-0.04923129081726074,-0.1997213363647461
1782774146486402600,4.398402587890625,0.05458557605743408,-0.057229042053222656,-0.27848339080810547
1782774146496381700,4.408381591796875,0.18224164843559265,-0.03977823257446289,-0.2642393112182617
1782774146506391600,4.4183916015625,0.23512861132621765,-0.0565037727355957,-0.3054990768432617
1782774146516401200,4.428401123046875,0.15344929695129395,-0.06042814254760742,-0.34935569763183594
1782774146526380500,4.438380615234375,0.18656593561172485,-0.03243255615234375,-0.3359527587890625
1782774146536390400,4.448390380859375,0.14180505275726318,0.08299040794372559,-0.08589649200439453
1782774146546400000,4.45839990234375,0.1762947142124176,0.1527268886566162,0.2449789047241211
1782774146556379400,4.46837939453125,0.17723697423934937,0.22408175468444824,0.3749532699584961
1782774146566389200,4.47838916015625,0.14092591404914856,0.2430248260498047,0.35231685638427734
1782774146576398800,4.48839892578125,0.19424483180046082,0.1949615478515625,0.20825576782226562
1782774146586318300,4.498318359375,0.31056469678878784,0.1188507080078125,0.07897758483886719
1782774146597244200,4.509244140625,0.38826751708984375,0.11591672897338867,0.07687950134277344
1782774146616376800,4.528376953125,0.2700035274028778,0.10244989395141602,0.1417369842529297
1782774146626386700,4.53838671875,0.17611414194107056,0.14559388160705566,0.12290668487548828
1782774146636396300,4.548396240234375,0.23012277483940125,0.12389779090881348,0.08979320526123047
1782774146646316000,4.55831591796875,0.31962183117866516,0.09720778465270996,0.1333751678466797
1782774146656417300,4.568417236328125,0.47029170393943787,0.06502938270568848,0.057488441467285156
1782774146666456300,4.578456298828125,0.5339765548706055,0.07250285148620605,0.053752899169921875
1782774146676405000,4.588405029296875,0.4937368929386139,0.07026886940002441,0.0716562271118164
1782774146686384000,4.598384033203125,0.4373597502708435,0.09429740905761719,0.1088409423828125
1782774146696394000,4.60839404296875,0.3012281060218811,0.09655904769897461,0.09107208251953125
1782774146706403800,4.61840380859375,0.15672725439071655,0.08156228065490723,0.035086631774902344
1782774146716383000,4.628383056640625,0.1833907961845398,0.03473067283630371,-0.06146049499511719
1782774146726392800,4.638392822265625,0.3914893865585327,0.0374298095703125,-0.1362171173095703
1782774146736402400,4.64840234375,0.46808451414108276,0.04286932945251465,-0.10557270050048828
1782774146746322200,4.658322265625,0.4977380037307739,-0.015785932540893555,-0.15143871307373047
1782774146757307100,4.66930712890625,0.446971595287323,0.011203765869140625,-0.225616455078125
1782774146776380700,4.688380615234375,0.051565349102020264,-0.017600536346435547,-0.1664600372314453
1782774146786390500,4.698390625,-0.057408273220062256,-0.025986194610595703,-0.13126659393310547
1782774146796400000,4.708400146484375,-0.014846265316009521,-0.10395169258117676,-0.21833229064941406
1782774146806379300,4.718379150390625,0.12363052368164062,-0.14178800582885742,-0.3459482192993164
1782774146816389000,4.72838916015625,0.198133647441864,-0.18857097625732422,-0.3443183898925781
1782774146826339000,4.738339111328125,0.3536912202835083,-0.2647879123687744,-0.3429412841796875
1782774146836410000,4.74841015625,0.45237958431243896,-0.2552008628845215,-0.3060445785522461
1782774146846449000,4.758448974609375,0.41924482583999634,-0.20990705490112305,-0.13785076141357422
1782774146856397800,4.768397705078125,0.27072834968566895,-0.2418830394744873,0.017972946166992188
1782774146866377000,4.778376953125,0.10293197631835938,-0.25449275970458984,-0.017942428588867188
1782774146876386800,4.78838671875,-0.0524175763130188,-0.24416303634643555,0.010854721069335938
1782774146886396700,4.798396728515625,-0.12839025259017944,-0.26781749725341797,-0.017889976501464844
1782774146896375800,4.808375732421875,-0.12423956394195557,-0.28174567222595215,-0.09224510192871094
1782774146906385400,4.818385498046875,-0.028915107250213623,-0.27133822441101074,-0.11643314361572266
1782774146916395300,4.828395263671875,0.04160565137863159,-0.25984835624694824,-0.08815956115722656
1782774146926404900,4.83840478515625,0.14747893810272217,-0.24213552474975586,-0.05542469024658203
1782774146936384300,4.84838427734375,0.20038580894470215,-0.19930601119995117,0.005768775939941406
1782774146946393900,4.858393798828125,0.2018219232559204,-0.10524415969848633,0.21526432037353516
1782774146956403700,4.86840380859375,0.08474928140640259,-0.004146099090576172,0.39618968963623047
1782774146966383000,4.878383056640625,-0.05865448713302612,0.09272193908691406,0.4914264678955078
1782774146976393000,4.88839306640625,-0.217820942401886,0.13266730308532715,0.4841270446777344
1782774146986402600,4.898402587890625,-0.18517184257507324,0.07895660400390625,0.3671722412109375
1782774146996381700,4.908381591796875,-0.048289716243743896,0.09244060516357422,0.22435665130615234
1782774147006391600,4.9183916015625,0.04801380634307861,0.0069925785064697266,0.09632110595703125
1782774147016401200,4.928401123046875,0.18603289127349854,-0.009524106979370117,0.018829345703125
1782774147026380500,4.938380615234375,0.19829612970352173,0.024810314178466797,0.0847482681274414
1782774147036390400,4.948390380859375,0.0020224452018737793,0.11471772193908691,0.25568389892578125
1782774147046400000,4.95839990234375,-0.2069067358970642,0.0725862979888916,0.28769493103027344
1782774147056379400,4.96837939453125,-0.4260428249835968,0.08420610427856445,0.22890853881835938
1782774147066389200,4.97838916015625,-0.5311468839645386,0.0777137279510498,0.15836811065673828
1782774147076398800,4.98839892578125,-0.4825870990753174,0.025228500366210938,0.12622833251953125
1782774147086378200,4.998378173828125,-0.42188334465026855,0.027761220932006836,0.0988759994506836
1782774147096387800,5.008387939453125,-0.24963760375976562,0.0015194416046142578,-0.012166976928710938
1782774147106397700,5.018397705078125,0.07606852054595947,-0.022215604782104492,-0.034440040588378906
1782774147116376800,5.028376953125,0.18818271160125732,-0.009475231170654297,0.055718421936035156
1782774147126417200,5.038417236328125,0.1926613450050354,0.02035212516784668,0.1170511245727539
1782774147136337000,5.0483369140625,0.12863284349441528,-0.03913474082946777,0.03484153747558594
1782774147146467300,5.05846728515625,-0.022781729698181152,-0.09503436088562012,-0.17644596099853516
1782774147156326000,5.068325927734375,-0.21644610166549683,-0.10164737701416016,-0.32290172576904297
1782774147166427100,5.07842724609375,-0.2741454243659973,-0.1551368236541748,-0.34291934967041016
1782774147176466200,5.088466064453125,-0.1624193787574768,-0.1885826587677002,-0.3202543258666992
1782774147186324500,5.098324462890625,-0.04144555330276489,-0.1802387237548828,-0.34094810485839844
1782774147197340400,5.10934033203125,0.11650753021240234,-0.23536157608032227,-0.3424367904663086
1782774147216383000,5.128383056640625,0.33599603176116943,-0.24511003494262695,-0.3098316192626953
1782774147226392800,5.138392822265625,0.3788970708847046,-0.25376200675964355,-0.2236328125
1782774147236402400,5.14840234375,0.2599409818649292,-0.19678282737731934,-0.1545553207397461
1782774147246381800,5.1583818359375,0.1360521912574768,-0.2352917194366455,-0.17173099517822266
1782774147256391700,5.1683916015625,-0.0006552934646606445,-0.2624931335449219,-0.29877281188964844
1782774147266401300,5.1784013671875,0.01020282506942749,-0.3259553909301758,-0.4519672393798828
1782774147276380700,5.188380615234375,0.04604572057723999,-0.2960367202758789,-0.5142908096313477
1782774147286390500,5.198390625,0.06324172019958496,-0.250150203704834,-0.4190788269042969
1782774147296400100,5.208400146484375,0.23428988456726074,-0.29763293266296387,-0.4392518997192383
1782774147306379300,5.218379150390625,0.2861667275428772,-0.16668248176574707,-0.3757743835449219
1782774147316389000,5.22838916015625,0.23077279329299927,-0.0751042366027832,-0.19273757934570312
1782774147326398700,5.238398681640625,0.11669164896011353,-0.023818254470825195,-0.053012847900390625
1782774147336378000,5.248378173828125,0.04993158578872681,0.04076266288757324,-0.059230804443359375
1782774147346388000,5.258387939453125,-0.05331367254257202,0.08438467979431152,-0.1058511734008789
1782774147356397800,5.268397705078125,-0.0006844997406005859,0.12210369110107422,-0.1689596176147461
1782774147366377000,5.278376953125,0.1546282172203064,0.20734047889709473,-0.02603912353515625
1782774147376386800,5.28838671875,0.2871696949005127,0.2856178283691406,0.17441558837890625
1782774147386396700,5.298396728515625,0.29628193378448486,0.428539514541626,0.3800535202026367
1782774147396375800,5.308375732421875,0.25426995754241943,0.4289116859436035,0.4712085723876953
1782774147406385400,5.318385498046875,0.04904317855834961,0.46535825729370117,0.5411968231201172
1782774147416395300,5.328395263671875,-0.07788985967636108,0.4498891830444336,0.6162281036376953
1782774147426404900,5.33840478515625,-0.13780689239501953,0.377793550491333,0.6126670837402344
1782774147436384300,5.34838427734375,-0.0643470287322998,0.23924016952514648,0.41573333740234375
1782774147446393900,5.358393798828125,0.09486198425292969,0.1302018165588379,0.29323673248291016
1782774147456403700,5.36840380859375,0.17479538917541504,0.08362150192260742,0.34284114837646484
1782774147466383000,5.378383056640625,0.14317572116851807,-0.010308027267456055,0.38501644134521484
1782774147476393000,5.38839306640625,0.02041912078857422,-0.042624711990356445,0.24303054809570312
1782774147486402600,5.398402587890625,-0.11363977193832397,-0.1191415786743164,0.04167747497558594
1782774147496381700,5.408381591796875,-0.23410218954086304,-0.21539711952209473,-0.08041763305664062
1782774147506391600,5.4183916015625,-0.3365185260772705,-0.2964320182800293,-0.21245670318603516
1782774147516401200,5.428401123046875,-0.39583760499954224,-0.35666942596435547,-0.3454618453979492
1782774147526380500,5.438380615234375,-0.4808575510978699,-0.33757781982421875,-0.2930459976196289
1782774147536390400,5.448390380859375,-0.5499988794326782,-0.3382740020751953,-0.1823110580444336
1782774147546400000,5.45839990234375,-0.5986065864562988,-0.3478991985321045,-0.22336292266845703
1782774147556379400,5.46837939453125,-0.4951257109642029,-0.3372156620025635,-0.32204151153564453
1782774147566389200,5.47838916015625,-0.352872371673584,-0.3685746192932129,-0.3728961944580078
1782774147576398800,5.48839892578125,-0.18848025798797607,-0.341841459274292,-0.3614673614501953
1782774147586378200,5.498378173828125,-0.08975332975387573,-0.27391481399536133,-0.24231243133544922
1782774147596387800,5.508387939453125,-0.09792554378509521,-0.26961278915405273,-0.17352867126464844
1782774147606397700,5.518397705078125,-0.08440029621124268,-0.21538448333740234,-0.19060420989990234
1782774147616376800,5.528376953125,-0.1295587420463562,-0.2738533020019531,-0.26975154876708984
1782774147626386700,5.53838671875,-0.2090606689453125,-0.21792268753051758,-0.3321495056152344
1782774147636396500,5.548396484375,-0.28007131814956665,-0.16153764724731445,-0.24179935455322266
1782774147646375700,5.558375732421875,-0.3859037160873413,-0.139678955078125,-0.13058853149414062
1782774147656385500,5.568385498046875,-0.2681739330291748,-0.038271427154541016,-0.010004043579101562
1782774147666395400,5.5783955078125,-0.12859654426574707,0.02507805824279785,0.08441162109375
1782774147676405000,5.588405029296875,0.03266596794128418,-0.019623517990112305,0.062056541442871094
1782774147686384000,5.598384033203125,0.16922205686569214,0.02284407615661621,-0.04581165313720703
1782774147696394000,5.60839404296875,0.26860833168029785,0.028768539428710938,0.011809349060058594
1782774147706403800,5.61840380859375,0.33627426624298096,0.05908203125,0.07656288146972656
1782774147716383000,5.628383056640625,0.40291452407836914,0.1513204574584961,0.184600830078125
1782774147726392800,5.638392822265625,0.2948322892189026,0.2188260555267334,0.29523181915283203
1782774147736342800,5.6483427734375,0.09088319540023804,0.16020965576171875,0.3294486999511719
1782774147746473200,5.65847314453125,-0.0033376216888427734,0.14722132682800293,0.22757530212402344
1782774147756332000,5.66833203125,-0.07679623365402222,0.07241034507751465,0.051825523376464844
1782774147766462500,5.67846240234375,-0.11532968282699585,-0.0009136199951171875,-0.14514827728271484
1782774147776380700,5.688380615234375,-0.07841247320175171,0.00013709068298339844,-0.22234058380126953
1782774147786390500,5.698390625,-0.07124972343444824,0.05773115158081055,-0.10348129272460938
1782774147796400000,5.708400146484375,-0.06222879886627197,0.09812211990356445,0.08197975158691406
1782774147806379500,5.718379638671875,-0.04296994209289551,0.13371014595031738,0.16443634033203125
1782774147816389000,5.72838916015625,-0.08986026048660278,0.1128084659576416,0.1274566650390625
1782774147826398700,5.738398681640625,-0.16707450151443481,0.0037851333618164062,-0.05755329132080078
1782774147836378000,5.748378173828125,-0.25471943616867065,-0.015988588333129883,-0.27100372314453125
1782774147846388000,5.758387939453125,-0.24274080991744995,-0.021059274673461914,-0.281158447265625
1782774147856397800,5.768397705078125,-0.21401220560073853,0.01886296272277832,-0.0834808349609375
1782774147866377000,5.778376953125,-0.23919981718063354,0.06504058837890625,-0.0033693313598632812
1782774147876386800,5.78838671875,-0.17954754829406738,0.08491730690002441,0.05291557312011719
1782774147886396400,5.798396484375,-0.14726388454437256,0.1259150505065918,0.09503650665283203
1782774147896375800,5.808375732421875,-0.17441487312316895,0.13027596473693848,0.06786727905273438
1782774147906385400,5.818385498046875,-0.10730302333831787,0.08828258514404297,0.04323101043701172
1782774147916395300,5.828395263671875,-0.024492621421813965,0.06248140335083008,-0.024471282958984375
1782774147926404900,5.83840478515625,-0.0361596941947937,0.10313820838928223,-0.015522956848144531
1782774147936384300,5.84838427734375,-0.07167816162109375,0.08883857727050781,-0.03054523468017578
1782774147946394000,5.85839404296875,-0.17400747537612915,0.11231637001037598,-0.021509170532226562
1782774147956403700,5.86840380859375,-0.21607905626296997,0.05405068397521973,-0.06269168853759766
1782774147966383000,5.878383056640625,-0.23093581199645996,0.019291162490844727,-0.1493244171142578
1782774147976393000,5.88839306640625,-0.22332298755645752,0.008494138717651367,-0.17856502532958984
1782774147986402600,5.898402587890625,-0.22075283527374268,-0.0398249626159668,-0.20318126678466797
1782774147996381700,5.908381591796875,-0.07423603534698486,-0.05571126937866211,-0.22554969787597656
1782774148006391600,5.9183916015625,-0.006495773792266846,0.044586181640625,-0.1067953109741211
1782774148016401200,5.928401123046875,0.049157142639160156,0.007714748382568359,-0.016992568969726562
1782774148026380500,5.938380615234375,0.14750701189041138,0.04549431800842285,-0.04457378387451172
1782774148036390400,5.948390380859375,0.2205582857131958,0.0732731819152832,-0.01706409454345703
1782774148046340400,5.95834033203125,0.14835047721862793,0.05800938606262207,0.0845937728881836
1782774148056470800,5.968470703125,0.08534777164459229,0.09043502807617188,0.1767568588256836
1782774148066329600,5.97832958984375,0.21718376874923706,0.05013632774353027,0.12560081481933594
1782774148076461300,5.98846142578125,0.23611003160476685,0.046370744705200195,0.053542137145996094
1782774148086470000,5.998469970703125,0.2695966958999634,-0.06846022605895996,-0.15440654754638672
1782774148096387800,6.008387939453125,0.33653444051742554,-0.10782814025878906,-0.2950315475463867
1782774148106397400,6.0183974609375,0.38756662607192993,-0.10843038558959961,-0.34006309509277344
1782774148116376800,6.028376953125,0.35316580533981323,-0.11194229125976562,-0.2730827331542969
1782774148126386700,6.03838671875,0.1752069592475891,-0.12090158462524414,-0.2402362823486328
1782774148136396500,6.048396484375,-0.08504557609558105,-0.03794360160827637,-0.1359081268310547
1782774148146375700,6.058375732421875,-0.3358580768108368,-0.021085500717163086,-0.09643936157226562
1782774148156385500,6.068385498046875,-0.4727502167224884,0.021989822387695312,-0.07361984252929688
1782774148166335700,6.078335693359375,-0.36998480558395386,0.08122706413269043,-0.021941184997558594
1782774148176466200,6.088466064453125,-0.22306174039840698,0.039119720458984375,-0.06592178344726562
1782774148186384400,6.09838427734375,-0.0278775691986084,-0.016035079956054688,-0.2198038101196289
1782774148196394000,6.10839404296875,0.10607320070266724,-0.019343852996826172,-0.36159229278564453
1782774148206403800,6.11840380859375,0.12345689535140991,-0.015141487121582031,-0.3311347961425781
1782774148216383000,6.128383056640625,-0.0267331600189209,0.05277228355407715,-0.21244525909423828
1782774148226392800,6.138392822265625,-0.2187228798866272,0.10573959350585938,-0.10128498077392578
1782774148236402400,6.14840234375,-0.313014417886734,0.11290621757507324,0.007592201232910156
1782774148246381800,6.1583818359375,-0.39288464188575745,0.18834996223449707,0.12871456146240234
1782774148256391700,6.1683916015625,-0.42110711336135864,0.20236897468566895,0.22377586364746094
1782774148266401300,6.1784013671875,-0.29242461919784546,0.18360280990600586,0.1874542236328125
1782774148276380700,6.188380615234375,-0.18354278802871704,0.11703109741210938,0.031846046447753906
1782774148286390500,6.198390625,-0.010096490383148193,0.04727768898010254,-0.18102264404296875
1782774148296400400,6.208400390625,0.19632750749588013,0.022003650665283203,-0.2551422119140625
1782774148306379500,6.218379638671875,0.32861465215682983,0.02025628089904785,-0.23858165740966797
1782774148316389000,6.22838916015625,0.23860180377960205,0.09419727325439453,-0.1096954345703125
1782774148326398700,6.238398681640625,0.09197628498077393,0.16918635368347168,0.09088325500488281
1782774148336378000,6.248378173828125,0.002853095531463623,0.20546674728393555,0.13593292236328125
1782774148346388000,6.258387939453125,-0.02682197093963623,0.13464665412902832,0.051967620849609375
1782774148356397800,6.268397705078125,0.06566578149795532,0.06406474113464355,-0.10828399658203125
1782774148366377000,6.278376953125,0.1204792857170105,0.04766416549682617,-0.1893606185913086
1782774148376386800,6.28838671875,0.11637884378433228,0.003107309341430664,-0.1699085235595703
1782774148386396400,6.298396484375,0.10030335187911987,0.007363080978393555,-0.1337413787841797
1782774148396375800,6.308375732421875,0.11971592903137207,0.07005000114440918,-0.061682701110839844
1782774148406385400,6.318385498046875,0.14091187715530396,0.10696196556091309,0.12042427062988281
1782774148416395300,6.328395263671875,0.20890051126480103,0.047916412353515625,0.10136699676513672
1782774148426404900,6.33840478515625,0.23291915655136108,-0.06341552734375,-0.1950531005859375
1782774148436384300,6.34838427734375,0.2764431834220886,-0.11398935317993164,-0.4193153381347656
1782774148446394000,6.35839404296875,0.2773485779762268,-0.14200782775878906,-0.42119503021240234
1782774148456403700,6.36840380859375,0.13273906707763672,-0.10033822059631348,-0.2896728515625
1782774148466383000,6.378383056640625,-0.18556463718414307,0.02006840705871582,-0.02945232391357422
1782774148476393000,6.38839306640625,-0.38641926646232605,0.0579833984375,0.0963735580444336
1782774148486402600,6.398402587890625,-0.46570613980293274,0.06391525268554688,0.040488243103027344
1782774148496381700,6.408381591796875,-0.37481650710105896,-0.008446455001831055,-0.0940237045288086
1782774148506391600,6.4183916015625,-0.10668987035751343,-0.06772685050964355,-0.30724143981933594
1782774148516401200,6.428401123046875,0.125582754611969,-0.11978268623352051,-0.4318885803222656
1782774148526380500,6.438380615234375,0.19841068983078003,-0.08928060531616211,-0.3821067810058594
1782774148536390400,6.448390380859375,0.15208089351654053,-0.0015649795532226562,-0.14373302459716797
1782774148546400000,6.45839990234375,-0.08562314510345459,0.06399083137512207,0.03674888610839844
1782774148556379400,6.46837939453125,-0.196242094039917,0.137009859085083,0.13096141815185547
1782774148566389200,6.47838916015625,-0.20631051063537598,0.12988519668579102,0.18235111236572266
1782774148576398800,6.48839892578125,-0.22102642059326172,0.13352179527282715,0.1693735122680664
1782774148586378200,6.498378173828125,-0.16092413663864136,0.1024484634399414,0.12071704864501953
1782774148596387800,6.508387939453125,-0.17243802547454834,0.1010589599609375,0.11769771575927734
1782774148606397700,6.518397705078125,-0.1857873797416687,0.1373298168182373,0.1387310028076172
1782774148616376800,6.528376953125,-0.2842126488685608,0.1392972469329834,0.06427764892578125
1782774148626386700,6.53838671875,-0.30128946900367737,0.13532805442810059,0.07868480682373047
1782774148636396300,6.548396240234375,-0.14639174938201904,0.09487414360046387,0.011854171752929688
1782774148646375700,6.558375732421875,-0.0002326369285583496,0.06590962409973145,-0.03097820281982422
1782774148656385500,6.568385498046875,0.030207514762878418,0.061193227767944336,-0.01875591278076172
1782774148666395400,6.5783955078125,0.025728881359100342,0.04244828224182129,-0.011301040649414062
1782774148676405000,6.588405029296875,0.022059857845306396,0.047559499740600586,-0.06835365295410156
1782774148686384400,6.59838427734375,-0.08546173572540283,0.05489540100097656,-0.06305313110351562
1782774148696394000,6.60839404296875,-0.19475042819976807,-0.060158729553222656,-0.11519050598144531
1782774148706403800,6.61840380859375,-0.18418282270431519,-0.09711289405822754,-0.27024269104003906
1782774148716383000,6.628383056640625,-0.1574643850326538,-0.12931442260742188,-0.3296394348144531
1782774148726392800,6.638392822265625,-0.0336567759513855,-0.1478743553161621,-0.24570369720458984
1782774148736402400,6.64840234375,0.06105446815490723,-0.15488028526306152,-0.18837642669677734
1782774148746381800,6.6583818359375,0.26244038343429565,-0.12801456451416016,-0.12627124786376953
1782774148756391700,6.6683916015625,0.33807986974716187,-0.05247902870178223,0.03868389129638672
1782774148766401300,6.6784013671875,0.28474873304367065,-0.04585599899291992,0.13901996612548828
1782774148776380700,6.688380615234375,0.2313976287841797,-0.08143353462219238,0.06972503662109375
1782774148786390500,6.698390625,0.23371058702468872,-0.11863207817077637,-0.10217952728271484
1782774148796400000,6.708400146484375,0.2580401301383972,-0.19675779342651367,-0.24054527282714844
1782774148806379500,6.718379638671875,0.3314542770385742,-0.19937562942504883,-0.2881488800048828
1782774148816389000,6.72838916015625,0.31221652030944824,-0.18032336235046387,-0.21173095703125
1782774148826398700,6.738398681640625,0.20804363489151,-0.11354398727416992,-0.08307838439941406
1782774148836378000,6.748378173828125,-0.0347895622253418,-0.06037092208862305,0.050169944763183594
1782774148846388000,6.758387939453125,-0.17552781105041504,-0.01958942413330078,0.1379222869873047
1782774148856397800,6.768397705078125,-0.23428574204444885,-0.023409128189086914,0.12286186218261719
1782774148866377000,6.778376953125,-0.24151626229286194,-0.05008864402770996,0.043376922607421875
1782774148876386800,6.78838671875,-0.14645487070083618,-0.08007454872131348,-0.05978870391845703
1782774148886396400,6.798396484375,-0.05200958251953125,-0.11997485160827637,-0.11015701293945312
1782774148896375800,6.808375732421875,-0.020138561725616455,-0.04705500602722168,-0.08874320983886719
1782774148906385400,6.818385498046875,0.015614926815032959,0.0029904842376708984,-0.012447357177734375
1782774148916395300,6.828395263671875,-0.06461948156356812,0.04657268524169922,0.0683746337890625
1782774148926404900,6.83840478515625,-0.12598204612731934,0.06827974319458008,0.12277984619140625
1782774148936384300,6.84838427734375,-0.16907644271850586,0.08188581466674805,0.14855670928955078
1782774148946394000,6.85839404296875,-0.3201654553413391,0.03498029708862305,0.04282665252685547
1782774148956403700,6.86840380859375,-0.4493553042411804,0.013045549392700195,-0.1464061737060547
1782774148966323500,6.878323486328125,-0.42110475897789,0.001978635787963867,-0.2229900360107422
1782774148976454000,6.888453857421875,-0.44244450330734253,0.007910013198852539,-0.12985897064208984
1782774148986402600,6.898402587890625,-0.35181495547294617,-0.03314375877380371,-0.07776451110839844
1782774148996322000,6.908322021484375,-0.2558189332485199,-0.09784770011901855,-0.13829708099365234
1782774149006452700,6.91845263671875,-0.1061515212059021,-0.1937258243560791,-0.33278846740722656
1782774149016401200,6.928401123046875,0.1035568118095398,-0.1963813304901123,-0.4265289306640625
1782774149026380500,6.938380615234375,0.18303662538528442,-0.1860206127166748,-0.3289070129394531
1782774149036390400,6.948390380859375,0.11147880554199219,-0.11137008666992188,-0.08330440521240234
1782774149046400000,6.95839990234375,0.03426468372344971,-0.001538991928100586,0.0877523422241211
1782774149056379400,6.96837939453125,-0.10861527919769287,0.022072792053222656,0.12241935729980469
1782774149066389200,6.97838916015625,-0.11470603942871094,0.01934361457824707,0.0810089111328125
1782774149076339200,6.988339111328125,-0.07681787014007568,-0.010656118392944336,0.013422966003417969
1782774149086469600,6.9984697265625,-0.02459782361984253,-0.04116702079772949,-0.07558917999267578
1782774149096387800,7.008387939453125,0.1580827832221985,-0.0645132064819336,-0.09029483795166016
1782774149106397400,7.0183974609375,0.3945411443710327,-0.010410070419311523,0.014599800109863281
1782774149116376800,7.028376953125,0.4673696756362915,0.047338008880615234,0.14096546173095703
1782774149126386700,7.03838671875,0.4056885242462158,0.0424504280090332,0.14070987701416016
1782774149136337000,7.0483369140625,0.3296528458595276,0.055422306060791016,0.09766006469726562
1782774149146407700,7.05840771484375,0.22087037563323975,0.055470943450927734,0.06435680389404297
1782774149157416400,7.06941650390625,0.03680795431137085,0.019147872924804688,0.05501270294189453
1782774149176466200,7.088466064453125,-0.2707546353340149,-0.0014832019805908203,0.00514984130859375
1782774149186384400,7.09838427734375,-0.2282610833644867,-0.04083108901977539,-0.0735788345336914
1782774149196394000,7.10839404296875,-0.02982872724533081,-0.08782577514648438,-0.23841094970703125
1782774149206403800,7.11840380859375,0.20430970191955566,-0.08661937713623047,-0.36260223388671875
1782774149216383200,7.12838330078125,0.36090248823165894,-0.06526541709899902,-0.3217611312866211
1782774149226392800,7.138392822265625,0.37353283166885376,-0.03974628448486328,-0.1829853057861328
1782774149236402400,7.14840234375,0.2975888252258301,0.020502328872680664,0.003559112548828125
1782774149246381800,7.1583818359375,0.06010639667510986,0.0976564884185791,0.10619258880615234
1782774149256391700,7.1683916015625,-0.16950547695159912,0.07785248756408691,0.08439254760742188
1782774149266401300,7.1784013671875,-0.32280340790748596,0.0346677303314209,-0.013746261596679688
1782774149276320800,7.18832080078125,-0.3721452057361603,0.004771709442138672,-0.08536720275878906
1782774149286451500,7.198451416015625,-0.4141805171966553,-0.05901789665222168,-0.15691184997558594
1782774149296400100,7.208400146484375,-0.3464887738227844,-0.09140825271606445,-0.19736576080322266
1782774149306379300,7.218379150390625,-0.14841365814208984,-0.12309098243713379,-0.3049335479736328
1782774149316389000,7.22838916015625,0.12251228094100952,-0.1755819320678711,-0.3455390930175781
1782774149326398700,7.238398681640625,0.23589670658111572,-0.20332121849060059,-0.3791790008544922
1782774149336378000,7.248378173828125,0.3373018503189087,-0.1771681308746338,-0.3340921401977539
1782774149346388000,7.258387939453125,0.23729723691940308,-0.06791186332702637,-0.1481170654296875
1782774149356397800,7.268397705078125,0.09377777576446533,0.006714820861816406,0.06393241882324219
1782774149366317300,7.2783173828125,-0.0014601349830627441,0.04998779296875,0.11799144744873047
1782774149376447700,7.28844775390625,-0.06032150983810425,0.05353832244873047,0.0885467529296875
1782774149386396400,7.298396484375,-0.06332826614379883,0.03875374794006348,0.0019464492797851562
1782774149396375800,7.308375732421875,0.09747189283370972,0.03013777732849121,-0.022240638732910156
1782774149406385400,7.318385498046875,0.27481818199157715,0.007066965103149414,-0.03921031951904297
1782774149416395300,7.328395263671875,0.2998071312904358,0.00583958625793457,0.027655601501464844
1782774149426404900,7.33840478515625,0.2125040888786316,0.038738250732421875,0.07298755645751953
1782774149436384300,7.34838427734375,0.14533668756484985,0.0550084114074707,0.09444808959960938
1782774149446394000,7.35839404296875,-0.024825215339660645,0.09027910232543945,0.15186405181884766
1782774149456403700,7.36840380859375,-0.18943536281585693,0.09423446655273438,0.17335796356201172
1782774149466383000,7.378383056640625,-0.23684069514274597,0.07782149314880371,0.19257068634033203
1782774149476393000,7.38839306640625,-0.1508481502532959,0.02163982391357422,0.12580013275146484
1782774149486402600,7.398402587890625,-0.05693536996841431,0.00004863739013671875,0.011393547058105469
1782774149496381700,7.408381591796875,0.01024782657623291,-0.0480961799621582,-0.08856964111328125
1782774149506391600,7.4183916015625,-0.01368480920791626,-0.04086494445800781,-0.1287374496459961
1782774149516401200,7.428401123046875,-0.15534371137619019,-0.02091526985168457,-0.10200786590576172
1782774149526380500,7.438380615234375,-0.20433306694030762,0.0019254684448242188,-0.14955902099609375
1782774149536390400,7.448390380859375,-0.2199462354183197,0.024925947189331055,-0.1636199951171875
1782774149546400000,7.45839990234375,-0.2449491322040558,0.029004812240600586,-0.16577434539794922
1782774149556379400,7.46837939453125,-0.2071317434310913,0.014170408248901367,-0.09859466552734375
1782774149566389200,7.47838916015625,-0.12963759899139404,0.023240089416503906,-0.04587078094482422
1782774149576398800,7.48839892578125,-0.08999353647232056,0.03644108772277832,-0.026720046997070312
1782774149586378200,7.498378173828125,-0.10637480020523071,-0.0011837482452392578,-0.029092788696289062
1782774149596387800,7.508387939453125,-0.08797693252563477,-0.012967348098754883,-0.12703704833984375
1782774149606397700,7.518397705078125,-0.040447771549224854,-0.0009336471557617188,-0.1769256591796875
1782774149616376800,7.528376953125,0.09708034992218018,-0.02617168426513672,-0.17413806915283203
1782774149626386700,7.53838671875,0.16823476552963257,-0.011992216110229492,-0.12120628356933594
1782774149636396300,7.548396240234375,0.18434828519821167,0.005377292633056641,-0.07564067840576172
1782774149646375700,7.558375732421875,0.24141395092010498,0.003599405288696289,-0.04223442077636719
1782774149656385500,7.568385498046875,0.2357768416404724,0.008695125579833984,0.01983356475830078
1782774149666395400,7.5783955078125,0.14564824104309082,0.0017080307006835938,0.03888225555419922
1782774149676405000,7.588405029296875,0.06829029321670532,-0.0006668567657470703,0.024565696716308594
1782774149686384400,7.59838427734375,0.03299570083618164,0.03236269950866699,-0.020685195922851562
1782774149696394000,7.60839404296875,-0.012245118618011475,-0.023375272750854492,-0.0323486328125
1782774149706403800,7.61840380859375,-0.028387904167175293,-0.08169889450073242,-0.1230010986328125
1782774149716383000,7.628383056640625,0.08993160724639893,-0.06844782829284668,-0.1681346893310547
1782774149726392800,7.638392822265625,0.20576399564743042,-0.10719013214111328,-0.201446533203125
1782774149736402400,7.64840234375,0.2610141634941101,-0.1069498062133789,-0.16782188415527344
1782774149746381800,7.6583818359375,0.24569964408874512,-0.07455062866210938,-0.07928657531738281
1782774149756391700,7.6683916015625,0.1345844268798828,-0.027065753936767578,0.013875961303710938
1782774149766401300,7.6784013671875,-0.004517793655395508,0.005939006805419922,0.06152153015136719
1782774149776380700,7.688380615234375,-0.16638940572738647,-0.019254684448242188,0.023059844970703125
1782774149786390500,7.698390625,-0.28861820697784424,-0.04590868949890137,-0.06304931640625
1782774149796400000,7.708400146484375,-0.36660805344581604,-0.0561823844909668,-0.06056976318359375
1782774149806379500,7.718379638671875,-0.3397708535194397,-0.08768987655639648,-0.12533855438232422
1782774149816389000,7.72838916015625,-0.2580109238624573,-0.0595860481262207,-0.1112051010131836
1782774149826398700,7.738398681640625,-0.2299959361553192,-0.0763547420501709,-0.056606292724609375
1782774149836318500,7.748318359375,-0.19118601083755493,-0.048702239990234375,-0.026162147521972656
1782774149846449000,7.758448974609375,-0.14695990085601807,0.0012025833129882812,0.006642341613769531
1782774149856397800,7.768397705078125,-0.1375713348388672,-0.02714085578918457,0.05373382568359375
1782774149866377000,7.778376953125,-0.16875731945037842,0.03527522087097168,0.09368610382080078
1782774149876327000,7.788326904296875,-0.1109001636505127,0.04229569435119629,0.09537410736083984
1782774149886457600,7.79845751953125,-0.03820669651031494,0.01750636100769043,0.0014181137084960938
1782774149896375800,7.808375732421875,-0.04460078477859497,0.029883146286010742,-0.09705924987792969
1782774149906325800,7.81832568359375,-0.010959208011627197,0.00846409797668457,-0.13078022003173828
1782774149917560800,7.829560791015625,-0.00860297679901123,0.039992570877075195,-0.09991264343261719
1782774149936384300,7.84838427734375,0.09307223558425903,-0.02724003791809082,-0.10321426391601562
1782774149946393900,7.858393798828125,0.13621819019317627,0.03692054748535156,-0.03677654266357422
1782774149956344000,7.868343994140625,0.14310204982757568,0.044530391693115234,0.07991695404052734
1782774149966414800,7.878414794921875,0.12902384996414185,0.07158279418945312,0.21103858947753906
1782774149976454000,7.888453857421875,0.1565822958946228,0.08082818984985352,0.25614070892333984
1782774149986402600,7.898402587890625,0.09738951921463013,0.03324556350708008,0.17462444305419922
1782774149996381700,7.908381591796875,0.03736788034439087,-0.050135135650634766,-0.03816413879394531
1782774150006391600,7.9183916015625,-0.08192545175552368,-0.10099911689758301,-0.2052745819091797
1782774150016401200,7.928401123046875,-0.18507716059684753,-0.12273788452148438,-0.2575092315673828
1782774150026321000,7.93832080078125,-0.21443068981170654,-0.11474490165710449,-0.24529743194580078
1782774150036451300,7.948451416015625,-0.24639174342155457,-0.14607453346252441,-0.18071365356445312
1782774150046400000,7.95839990234375,-0.23979893326759338,-0.13792085647583008,-0.2002086639404297
1782774150056379400,7.96837939453125,-0.009272873401641846,-0.14826250076293945,-0.30596923828125
1782774150066389200,7.97838916015625,0.18587207794189453,-0.12482833862304688,-0.22268295288085938
1782774150076398800,7.98839892578125,0.18976914882659912,-0.10913610458374023,0.013400077819824219
1782774150086378200,7.998378173828125,0.1765308380126953,-0.08072495460510254,0.0625905990600586
1782774150096328200,8.008328125,0.12052959203720093,-0.07752823829650879,-0.017235755920410156
1782774150106458600,8.018458740234376,0.000033855438232421875,-0.06376528739929199,-0.06562995910644531
1782774150117456100,8.0294560546875,-0.13991522789001465,-0.10097742080688477,-0.13778972625732422
1782774150136396300,8.048396240234375,0.03363513946533203,-0.12858104705810547,-0.3561525344848633
1782774150146375700,8.058375732421876,0.13592350482940674,-0.08999300003051758,-0.1964559555053711
1782774150156385500,8.068385498046876,0.19424712657928467,0.0009965896606445312,0.03943347930908203
1782774150166395400,8.0783955078125,0.1361374855041504,0.04026007652282715,0.1602954864501953
1782774150176405000,8.088405029296876,-0.033360421657562256,0.03552579879760742,0.18328094482421875
1782774150186384400,8.09838427734375,-0.1616898477077484,0.06985831260681152,0.19941997528076172
1782774150196394000,8.10839404296875,-0.17899927496910095,0.01907038688659668,0.13678741455078125
1782774150206403800,8.11840380859375,-0.07131052017211914,-0.0425562858581543,-0.018970489501953125
1782774150216383000,8.128383056640626,0.10316812992095947,-0.04008913040161133,-0.10037040710449219
1782774150226392800,8.138392822265626,0.2538672089576721,-0.020328760147094727,-0.03585338592529297
1782774150236402400,8.14840234375,0.2916489243507385,0.019883155822753906,0.07628631591796875
1782774150246322200,8.158322265625,0.19486850500106812,0.06740069389343262,0.09026718139648438
1782774150256452600,8.16845263671875,-0.04330897331237793,0.03265261650085449,0.006287574768066406
1782774150266401300,8.1784013671875,-0.24384906888008118,-0.005912065505981445,-0.13479137420654297
1782774150276380700,8.188380615234376,-0.33472877740859985,-0.033490657806396484,-0.2756204605102539
1782774150286330600,8.19833056640625,-0.2802233099937439,-0.046679019927978516,-0.28488922119140625
1782774150296461300,8.20846142578125,-0.09707093238830566,-0.017939090728759766,-0.18920230865478516
1782774150306379500,8.218379638671875,0.10116493701934814,0.014786481857299805,-0.036457061767578125
1782774150316389000,8.22838916015625,0.16944819688796997,0.08684349060058594,0.07300949096679688
1782774150326398700,8.238398681640625,0.0424157977104187,0.10138726234436035,0.13964557647705078
1782774150336318500,8.248318359375,-0.09324115514755249,0.049765586853027344,0.03194236755371094
1782774150346449000,8.258448974609376,-0.1660609245300293,0.06101036071777344,-0.10174369812011719
1782774150356397800,8.268397705078126,-0.16382569074630737,-0.026699066162109375,-0.20179176330566406
1782774150366377000,8.278376953125,0.02138066291809082,-0.08324646949768066,-0.26616477966308594
1782774150376327000,8.288326904296875,0.17037701606750488,-0.04812145233154297,-0.24703598022460938
1782774150386457600,8.29845751953125,0.2496037483215332,-0.009287357330322266,-0.10367584228515625
1782774150396375800,8.308375732421876,0.2601613402366638,0.016012191772460938,-0.0058803558349609375
1782774150406385400,8.318385498046876,0.13233637809753418,0.06746459007263184,0.04180717468261719
1782774150416395300,8.328395263671876,-0.01145082712173462,0.05622982978820801,0.05857086181640625
1782774150426404900,8.33840478515625,-0.03346329927444458,0.03738045692443848,0.0036306381225585938
1782774150436384300,8.34838427734375,-0.061099469661712646,0.046649932861328125,-0.07522201538085938
1782774150446394000,8.35839404296875,-0.04601180553436279,0.03408241271972656,0.0038700103759765625
1782774150456403700,8.36840380859375,0.02010577917098999,-0.025722026824951172,-0.0034227371215820312
1782774150466383000,8.378383056640626,0.12394553422927856,-0.013577938079833984,-0.008309364318847656
1782774150476393000,8.38839306640625,0.17355799674987793,-0.013313055038452148,-0.03466033935546875
1782774150486402600,8.398402587890626,0.25880879163742065,-0.06792926788330078,-0.08241748809814453
1782774150496381700,8.408381591796875,0.30208325386047363,-0.05539274215698242,-0.05110359191894531
1782774150506391600,8.4183916015625,0.23130524158477783,-0.047052621841430664,0.03269386291503906
1782774150516401200,8.428401123046875,0.02571195363998413,-0.0002484321594238281,0.11873722076416016
1782774150526342000,8.438341796875,-0.15231764316558838,-0.04471278190612793,0.11138629913330078
1782774150536351700,8.448351806640625,-0.27818161249160767,0.002981424331665039,0.039696693420410156
1782774150546361300,8.458361328125,-0.36502575874328613,-0.007086753845214844,0.03762340545654297
1782774150556340700,8.4683408203125,-0.264929860830307,-0.10112667083740234,-0.0554046630859375
1782774150566350300,8.478350341796874,-0.1031804084777832,-0.11658549308776855,-0.2178945541381836
1782774150576360000,8.48835986328125,-0.0043277740478515625,-0.13681674003601074,-0.2584056854248047
1782774150586339300,8.49833935546875,0.10157710313796997,-0.13419651985168457,-0.08371829986572266
1782774150596349200,8.50834912109375,0.09210950136184692,-0.08239173889160156,0.014098167419433594
1782774150606358800,8.51835888671875,0.020333170890808105,-0.06859254837036133,-0.07712078094482422
1782774150616338200,8.528338134765624,0.020685017108917236,-0.02176070213317871,-0.12259578704833984
1782774150626348000,8.53834814453125,-0.04774320125579834,-0.05166459083557129,-0.09865474700927734
1782774150636357600,8.548357666015624,-0.19621580839157104,-0.03877139091491699,-0.14896392822265625
1782774150646337000,8.5583369140625,-0.207249253988266,-0.04539227485656738,-0.2208099365234375
1782774150656346600,8.5683466796875,-0.23311957716941833,-0.06421995162963867,-0.18021488189697266
1782774150666356500,8.5783564453125,-0.16426467895507812,-0.03184366226196289,-0.08485126495361328
1782774150676366000,8.588365966796875,0.011883318424224854,-0.012805938720703125,0.03425884246826172
1782774150686345500,8.598345458984374,0.23194998502731323,-0.000339508056640625,0.07912921905517578
1782774150696355300,8.608355224609374,0.22732818126678467,0.04780435562133789,0.18404769897460938
1782774150706365000,8.618364990234374,0.2396843433380127,0.014281988143920898,0.14553070068359375
1782774150716344300,8.62834423828125,0.33649516105651855,0.0660550594329834,0.049877166748046875
1782774150726354200,8.638354248046875,0.22199559211730957,0.04505586624145508,-0.009781837463378906
1782774150736363800,8.64836376953125,-0.0934247374534607,0.0975039005279541,0.13883686065673828
1782774150746343000,8.658343017578124,-0.27624213695526123,0.0638737678527832,0.13909912109375
1782774150756352800,8.668352783203124,-0.27038639783859253,0.017164945602416992,0.0655975341796875
1782774150766362400,8.6783623046875,-0.058813393115997314,0.012758255004882812,-0.024293899536132812
1782774150776341800,8.688341796875,0.11369478702545166,-0.0036323070526123047,-0.01595783233642578
1782774150786351600,8.6983515625,0.41460543870925903,-0.12047910690307617,-0.18233776092529297
1782774150796361200,8.708361328125,0.3980500102043152,0.0346987247467041,-0.19535160064697266
1782774150806340600,8.718340576171874,-0.04574930667877197,-0.20768296718597412,-0.4045686721801758
1782774150816350500,8.7283505859375,-0.27535250782966614,-0.12379121780395508,-0.3512563705444336
1782774150826360000,8.738360107421874,-0.5263969898223877,0.1787433624267578,0.20855140686035156
1782774150836339200,8.748339111328125,-0.729071855545044,0.09563899040222168,0.5140552520751953
1782774150846349000,8.75834912109375,-0.6400450468063354,0.0501551628112793,0.19778823852539062
1782774150856358700,8.768358642578125,-0.3315940499305725,0.0036957263946533203,-0.1080780029296875
1782774150866338000,8.778338134765624,-0.11771857738494873,-0.018630504608154297,-0.1288013458251953
1782774150876348000,8.788347900390624,0.09185177087783813,-0.005101919174194336,-0.07036018371582031
1782774150886357500,8.798357421875,0.21268415451049805,0.008002281188964844,0.011774063110351562
1782774150896337000,8.8083369140625,0.27006661891937256,0.002769947052001953,0.10100364685058594
1782774150906346800,8.8183466796875,0.08961480855941772,0.16347813606262207,0.11591625213623047
