time,seconds_elapsed,z,y,x
1782774512096396000,0.17839599609375,0.2522096633911133,-0.07468700408935547,0.1125430166721344
1782774512106406000,0.188406005859375,-0.007164478302001953,-0.10318851470947266,0.027377396821975708
1782774512116385000,0.198385009765625,-0.20865106582641602,-0.24054336547851562,-0.13431014120578766
1782774512126395000,0.208394775390625,-0.26535606384277344,-0.3269634246826172,-0.20205526053905487
1782774512136404500,0.218404541015625,-0.2762761116027832,-0.47910213470458984,-0.16377557814121246
1782774512146384000,0.2283837890625,-0.25453805923461914,-0.5230112075805664,-0.02002418041229248
1782774512156393500,0.2383935546875,-0.1996774673461914,-0.3583393096923828,0.18835094571113586
1782774512166403300,0.2484033203125,-0.08001518249511719,-0.28701210021972656,0.3658149242401123
1782774512176382500,0.258382568359375,-0.12420177459716797,-0.35509777069091797,0.24272659420967102
1782774512186392300,0.268392333984375,-0.12571382522583008,-0.46722888946533203,-0.00784340500831604
1782774512196402000,0.27840185546875,-0.03984689712524414,-0.6541070938110352,-0.2270534336566925
1782774512206411800,0.288411865234375,-0.023860454559326172,-0.8000259399414062,-0.17160488665103912
1782774512216391200,0.29839111328125,-0.06740045547485352,-0.7760238647460938,-0.14607039093971252
1782774512226401000,0.308401123046875,-0.20783066749572754,-0.6615066528320312,-0.02156621217727661
1782774512236410600,0.31841064453125,-0.42792439460754395,-0.542872428894043,0.21637395024299622
1782774512246389800,0.3283896484375,-0.5506260395050049,-0.5316429138183594,0.31423747539520264
1782774512256399600,0.338399658203125,-0.49092674255371094,-0.6119823455810547,0.3171091377735138
1782774512266409200,0.3484091796875,-0.4291064739227295,-0.7524652481079102,0.14340326189994812
1782774512276388600,0.358388671875,-0.36808252334594727,-0.8485536575317383,-0.030407428741455078
1782774512286398500,0.3683984375,-0.45461249351501465,-0.879399299621582,-0.09516528248786926
1782774512296408000,0.378407958984375,-0.53082275390625,-0.8520288467407227,-0.14831995964050293
1782774512306387500,0.388387451171875,-0.4516735076904297,-0.7252664566040039,-0.09718057513237
1782774512316397300,0.398397216796875,-0.3091416358947754,-0.3980731964111328,0.27804887294769287
1782774512326407000,0.408406982421875,-0.14328765869140625,-0.11496829986572266,0.494474321603775
1782774512336386300,0.41838623046875,-0.001461029052734375,0.13259124755859375,0.5307244062423706
1782774512346396000,0.42839599609375,0.04688143730163574,0.3229808807373047,0.4529576897621155
1782774512356405800,0.43840576171875,-0.1040797233581543,0.35141944885253906,0.2882763147354126
1782774512366385000,0.448385009765625,-0.3690052032470703,0.45213890075683594,0.14141404628753662
1782774512376394800,0.458394775390625,-0.5616672039031982,0.5740537643432617,-0.13910716772079468
1782774512386404400,0.468404296875,-0.438112735748291,0.5779619216918945,-0.33945026993751526
1782774512396383700,0.4783837890625,-0.08197665214538574,0.6959342956542969,-0.2865981161594391
1782774512406393600,0.4883935546875,0.32545924186706543,0.7121829986572266,-0.25025248527526855
1782774512416403500,0.498403564453125,0.6363189220428467,0.7140083312988281,-0.30585145950317383
1782774512426382600,0.508382568359375,0.8283851146697998,0.6638002395629883,-0.3913883566856384
1782774512436392400,0.518392333984375,0.940892219543457,0.5937442779541016,-0.44103384017944336
1782774512446402000,0.528402099609375,0.9095544815063477,0.5936470031738281,-0.31655097007751465
1782774512456412000,0.538411865234375,0.7165472507476807,0.4474000930786133,-0.3578246533870697
1782774512466391000,0.54839111328125,0.43485188484191895,0.3927898406982422,-0.368120938539505
1782774512476401000,0.55840087890625,0.21532058715820312,0.34885120391845703,-0.3718525767326355
1782774512486410500,0.568410400390625,0.09739136695861816,0.3475055694580078,-0.22130265831947327
1782774512496390000,0.578389892578125,0.040814876556396484,0.26539039611816406,-0.19632971286773682
1782774512506399700,0.588399658203125,0.17659997940063477,0.1958780288696289,-0.11751565337181091
1782774512516409300,0.598409423828125,0.27102088928222656,0.1645355224609375,0.005831241607666016
1782774512526388700,0.608388671875,0.28288745880126953,0.09096813201904297,-0.031040608882904053
1782774512536398600,0.618398681640625,0.2427811622619629,-0.03471851348876953,-0.2521316409111023
1782774512546408200,0.628408203125,0.1755390167236328,-0.1577587127685547,-0.24911050498485565
1782774512556387600,0.6383876953125,0.10426759719848633,-0.19248676300048828,-0.25235533714294434
1782774512566397200,0.648397216796875,0.11350536346435547,-0.16537761688232422,-0.17034590244293213
1782774512576406800,0.65840673828125,0.09089517593383789,-0.115692138671875,-0.0018874406814575195
1782774512586386200,0.66838623046875,-0.020221233367919922,-0.14451217651367188,0.07559502124786377
1782774512596396000,0.67839599609375,-0.12906885147094727,-0.18015193939208984,0.06660759449005127
1782774512606406000,0.688406005859375,-0.17440223693847656,-0.27489757537841797,-0.07983487844467163
1782774512616385000,0.698385009765625,-0.1334390640258789,-0.31939029693603516,-0.14299333095550537
1782774512626395000,0.708394775390625,-0.13282108306884766,-0.23465824127197266,0.09563553333282471
1782774512636404500,0.718404541015625,-0.19098997116088867,-0.17666053771972656,0.2506472170352936
1782774512646383900,0.7283837890625,-0.2290792465209961,-0.20763301849365234,0.2467356026172638
1782774512656393500,0.7383935546875,-0.3866536617279053,-0.23873233795166016,0.1979755461215973
1782774512666403300,0.7484033203125,-0.4639427661895752,-0.23107242584228516,0.09325888752937317
1782774512676382500,0.758382568359375,-0.30471348762512207,-0.15745830535888672,0.10399901866912842
1782774512686392300,0.768392333984375,-0.10600900650024414,-0.16117191314697266,0.13105666637420654
1782774512696402000,0.77840185546875,0.11174917221069336,-0.13979339599609375,0.14130103588104248
1782774512706411800,0.788411865234375,0.27756500244140625,-0.18947887420654297,0.1445438265800476
1782774512716391200,0.79839111328125,0.24905681610107422,-0.2893190383911133,0.03670433163642883
1782774512726401000,0.808401123046875,0.15713167190551758,-0.33235645294189453,-0.12376755475997925
1782774512736410600,0.81841064453125,0.09824466705322266,-0.34996700286865234,-0.3122989535331726
1782774512746389800,0.8283896484375,0.0792083740234375,-0.3059825897216797,-0.17665919661521912
1782774512756399600,0.838399658203125,0.026019573211669922,-0.19082260131835938,0.14178788661956787
1782774512766409200,0.8484091796875,-0.0754842758178711,-0.0860128402709961,0.3444140553474426
1782774512776388600,0.858388671875,-0.12579822540283203,-0.03425025939941406,0.3879338502883911
1782774512786398500,0.8683984375,-0.15998363494873047,-0.07794761657714844,0.37370559573173523
1782774512796408000,0.878407958984375,-0.17900705337524414,-0.19519901275634766,0.22711482644081116
1782774512806387500,0.888387451171875,-0.18314075469970703,-0.33329010009765625,0.00518268346786499
1782774512816397300,0.898397216796875,-0.13182783126831055,-0.3795766830444336,-0.1399080902338028
1782774512826407000,0.908406982421875,-0.0701756477355957,-0.3939990997314453,-0.15526217222213745
1782774512836386300,0.91838623046875,0.0333714485168457,-0.31203651428222656,0.03882524371147156
1782774512846396000,0.92839599609375,0.026590824127197266,-0.3280611038208008,0.0035589933395385742
1782774512856405800,0.93840576171875,0.053915977478027344,-0.36827754974365234,0.03733500838279724
1782774512866385000,0.948385009765625,0.048098087310791016,-0.36075687408447266,0.07529732584953308
1782774512876394800,0.958394775390625,0.02347421646118164,-0.30071067810058594,0.12017476558685303
1782774512886404400,0.968404296875,-0.014317035675048828,-0.23163890838623047,0.11227476596832275
1782774512896383700,0.9783837890625,-0.09129810333251953,-0.17284107208251953,0.09928387403488159
1782774512906393600,0.9883935546875,-0.21935319900512695,-0.20816421508789062,-0.011900573968887329
1782774512916403500,0.998403564453125,-0.3039669990539551,-0.26762866973876953,-0.06952449679374695
1782774512926382600,1.008382568359375,-0.25853586196899414,-0.27845001220703125,-0.13169291615486145
1782774512936392400,1.018392333984375,-0.18416595458984375,-0.18048858642578125,-0.017079204320907593
1782774512946402000,1.028402099609375,-0.024811267852783203,-0.07233142852783203,0.1395617425441742
1782774512956412000,1.038411865234375,0.0674123764038086,0.009631156921386719,0.3227344751358032
1782774512966391000,1.04839111328125,0.11544609069824219,-0.01435089111328125,0.2232111692428589
1782774512976401000,1.05840087890625,0.14778375625610352,-0.10599327087402344,-0.009952157735824585
1782774512986410500,1.068410400390625,0.11163091659545898,-0.18143844604492188,-0.10631051659584045
1782774512996390000,1.078389892578125,0.0001087188720703125,-0.2670927047729492,-0.2064196616411209
1782774513006399700,1.088399658203125,-0.09998655319213867,-0.3033323287963867,-0.21344612538814545
1782774513016409300,1.098409423828125,-0.24145936965942383,-0.18944835662841797,-0.005058884620666504
1782774513026388700,1.108388671875,-0.3434782028198242,-0.15021800994873047,0.07870206236839294
1782774513036398600,1.118398681640625,-0.2896432876586914,-0.13257408142089844,0.1321355402469635
1782774513046408200,1.128408203125,-0.1607666015625,-0.013630867004394531,0.23354974389076233
1782774513056387600,1.1383876953125,-0.04341697692871094,0.06311702728271484,0.2589055895805359
1782774513066397200,1.148397216796875,0.015809059143066406,0.06350421905517578,0.1969934105873108
1782774513076406800,1.15840673828125,0.0034384727478027344,-0.015278816223144531,0.10279014706611633
1782774513086386200,1.16838623046875,0.0025959014892578125,-0.12267017364501953,-0.11156901717185974
1782774513096396000,1.17839599609375,0.07962703704833984,-0.13382625579833984,-0.18067169189453125
1782774513106406000,1.188406005859375,0.15577030181884766,-0.0894765853881836,-0.08974149823188782
1782774513116385000,1.198385009765625,0.17287254333496094,-0.05743122100830078,0.016739755868911743
1782774513126395000,1.208394775390625,0.16760683059692383,-0.10509300231933594,0.08148527145385742
1782774513136404500,1.218404541015625,0.14501285552978516,-0.09132575988769531,0.17872479557991028
1782774513146384000,1.2283837890625,0.021453380584716797,-0.14073848724365234,0.14409703016281128
1782774513156393500,1.2383935546875,-0.1669764518737793,-0.24630069732666016,-0.02561163902282715
1782774513166403300,1.2484033203125,-0.27316713333129883,-0.2158336639404297,-0.007437974214553833
1782774513176382500,1.258382568359375,-0.2991008758544922,-0.1728649139404297,0.0014452338218688965
1782774513186392300,1.268392333984375,-0.3119816780090332,-0.17235755920410156,0.04604426026344299
1782774513196402000,1.27840185546875,-0.22066831588745117,-0.14973068237304688,0.07790675759315491
1782774513206411800,1.288411865234375,-0.12079572677612305,-0.11700248718261719,0.1686018407344818
1782774513216391200,1.29839111328125,-0.11261367797851562,-0.15336132049560547,0.14411842823028564
1782774513226401000,1.308401123046875,-0.12826871871948242,-0.24487781524658203,0.0033020377159118652
1782774513236410600,1.31841064453125,-0.13238859176635742,-0.2811622619628906,-0.052825361490249634
1782774513246389800,1.3283896484375,-0.05857419967651367,-0.31695079803466797,-0.10156601667404175
1782774513256399600,1.338399658203125,-0.028319835662841797,-0.3237619400024414,-0.06717142462730408
1782774513266409200,1.3484091796875,-0.02867746353149414,-0.28287220001220703,0.04248270392417908
1782774513276388600,1.358388671875,-0.002109050750732422,-0.3188209533691406,0.050350069999694824
1782774513286398500,1.3683984375,-0.040364742279052734,-0.36664295196533203,0.022021859884262085
1782774513296408000,1.378407958984375,-0.06215095520019531,-0.2994194030761719,0.020285099744796753
1782774513306387500,1.388387451171875,-0.03796052932739258,-0.22282695770263672,0.046828895807266235
1782774513316397300,1.398397216796875,-0.0633549690246582,-0.11777400970458984,0.14634916186332703
1782774513326407000,1.408406982421875,-0.07139348983764648,-0.0033807754516601562,0.201844722032547
1782774513336386300,1.41838623046875,-0.08353137969970703,0.03647422790527344,0.1758837103843689
1782774513346396000,1.42839599609375,-0.08135080337524414,0.06196784973144531,0.1479867696762085
1782774513356405800,1.43840576171875,-0.08276748657226562,0.07837200164794922,0.08107677102088928
1782774513366385000,1.448385009765625,0.05701494216918945,0.035943031311035156,-0.03092581033706665
1782774513376394800,1.458394775390625,0.2445521354675293,-0.07003402709960938,-0.09550401568412781
1782774513386404400,1.468404296875,0.37351036071777344,-0.10364627838134766,0.031236261129379272
1782774513396383700,1.4783837890625,0.3024468421936035,-0.16403770446777344,0.09664309024810791
1782774513406393600,1.4883935546875,0.17292547225952148,-0.2213459014892578,0.0957038402557373
1782774513416403500,1.498403564453125,-0.011455535888671875,-0.2953214645385742,0.10093531012535095
1782774513426382600,1.508382568359375,-0.22512054443359375,-0.2682523727416992,0.2457979917526245
1782774513436392400,1.518392333984375,-0.4857594966888428,-0.20199012756347656,0.2704288959503174
1782774513446402000,1.528402099609375,-0.5708715915679932,-0.140838623046875,0.2638753354549408
1782774513456412000,1.538411865234375,-0.5717482566833496,-0.16629791259765625,0.20122605562210083
1782774513466391000,1.54839111328125,-0.45961642265319824,-0.14675235748291016,0.1095537543296814
1782774513476401000,1.55840087890625,-0.20949316024780273,-0.21325111389160156,0.017229944467544556
1782774513486410500,1.568410400390625,-0.018421649932861328,-0.23006439208984375,-0.028626084327697754
1782774513496390000,1.578389892578125,0.1444101333618164,-0.29388427734375,-0.059837013483047485
1782774513506399700,1.588399658203125,0.266357421875,-0.29773807525634766,-0.048367857933044434
1782774513516409300,1.598409423828125,0.323885440826416,-0.2920713424682617,-0.03534591197967529
1782774513526388700,1.608388671875,0.32222509384155273,-0.32260990142822266,-0.09445559978485107
1782774513536398600,1.618398681640625,0.26182079315185547,-0.25310230255126953,-0.08424142003059387
1782774513546408200,1.628408203125,0.24079179763793945,-0.17924785614013672,0.08277451992034912
1782774513556387600,1.6383876953125,0.08535051345825195,-0.14700698852539062,0.10743999481201172
1782774513566397200,1.648397216796875,-0.07443046569824219,-0.1640329360961914,0.06132102012634277
1782774513576406800,1.65840673828125,-0.17749595642089844,-0.1315908432006836,-0.02712547779083252
1782774513586386200,1.66838623046875,-0.20892000198364258,-0.16852664947509766,-0.078960120677948
1782774513596396000,1.67839599609375,-0.2010025978088379,-0.18329143524169922,-0.07295030355453491
1782774513606406000,1.688406005859375,-0.13515567779541016,-0.20911407470703125,-0.07197275757789612
1782774513616385000,1.698385009765625,-0.03687286376953125,-0.17933368682861328,-0.04530343413352966
1782774513626395000,1.708394775390625,0.07323646545410156,-0.1590423583984375,-0.007041960954666138
1782774513636404500,1.718404541015625,0.10748958587646484,-0.17259597778320312,0.03297382593154907
1782774513646383900,1.7283837890625,-0.05258512496948242,-0.09852123260498047,0.1140856146812439
1782774513656393500,1.7383935546875,-0.2727394104003906,-0.06140708923339844,0.04500344395637512
1782774513666403300,1.7484033203125,-0.4704463481903076,-0.010362625122070312,0.12228083610534668
1782774513676382500,1.758382568359375,-0.5600001811981201,-0.014580726623535156,0.029653728008270264
1782774513686392300,1.768392333984375,-0.5256178379058838,-0.03770923614501953,-0.014622092247009277
1782774513696402000,1.77840185546875,-0.4002087116241455,-0.08368492126464844,-0.01570039987564087
1782774513706411800,1.788411865234375,-0.2539849281311035,-0.10187339782714844,-0.014116108417510986
1782774513716391200,1.79839111328125,-0.06545495986938477,-0.08983516693115234,-0.022168368101119995
1782774513726401000,1.808401123046875,0.01582956314086914,-0.0649271011352539,0.003207862377166748
1782774513736411000,1.818410888671875,0.1342301368713379,-0.10169601440429688,0.0812520682811737
1782774513746389800,1.8283896484375,0.16446733474731445,-0.11950302124023438,0.04676729440689087
1782774513756399600,1.838399658203125,0.15568304061889648,-0.09264087677001953,0.0322476327419281
1782774513766409200,1.8484091796875,0.10866498947143555,-0.07652473449707031,-0.001294642686843872
1782774513776388600,1.858388671875,0.10501813888549805,-0.037705421447753906,0.024518579244613647
1782774513786398500,1.8683984375,0.13490533828735352,-0.043091773986816406,0.068715900182724
1782774513796408000,1.878407958984375,0.1639852523803711,-0.058785438537597656,0.10052651166915894
1782774513806387500,1.888387451171875,0.1488194465637207,-0.0654916763305664,0.012651622295379639
1782774513816397300,1.898397216796875,0.025184154510498047,-0.10893058776855469,-0.01925942301750183
1782774513826407000,1.908406982421875,-0.12760353088378906,-0.18204975128173828,-0.11287298798561096
1782774513836386300,1.91838623046875,-0.23878955841064453,-0.19095230102539062,-0.07208973169326782
1782774513846396000,1.92839599609375,-0.23832941055297852,-0.1802501678466797,-0.03436696529388428
1782774513856405800,1.93840576171875,-0.26554012298583984,-0.20239734649658203,-0.009458601474761963
1782774513866385000,1.948385009765625,-0.2274169921875,-0.2548551559448242,-0.04470363259315491
1782774513876394800,1.958394775390625,-0.1650547981262207,-0.27757740020751953,-0.12601861357688904
1782774513886404400,1.968404296875,-0.048426151275634766,-0.22807693481445312,-0.08577150106430054
1782774513896383700,1.9783837890625,0.053528785705566406,-0.1664266586303711,-0.02234509587287903
1782774513906393600,1.9883935546875,0.15555667877197266,-0.030569076538085938,0.15549278259277344
1782774513916403500,1.998403564453125,0.1571025848388672,0.009476661682128906,0.1587451994419098
1782774513926382600,2.008382568359375,0.12057161331176758,-0.09670543670654297,0.03682553768157959
1782774513936392400,2.018392333984375,0.12710237503051758,-0.12391185760498047,-0.035991936922073364
1782774513946402000,2.028402099609375,0.17441511154174805,-0.17032527923583984,-0.041401028633117676
1782774513956412000,2.038411865234375,0.1361064910888672,-0.20262908935546875,-0.04941079020500183
1782774513966391000,2.04839111328125,-0.014943122863769531,-0.16889381408691406,-0.13190913200378418
1782774513976401000,2.05840087890625,-0.08238458633422852,-0.1720571517944336,-0.10752850770950317
1782774513986410500,2.068410400390625,-0.1012411117553711,-0.2520771026611328,-0.04898422956466675
1782774513996390000,2.078389892578125,-0.05331993103027344,-0.2577056884765625,-0.005811750888824463
1782774514006399700,2.088399658203125,-0.06082344055175781,-0.27510929107666016,0.039193153381347656
1782774514016409300,2.098409423828125,-0.1608591079711914,-0.22343826293945312,0.16025617718696594
1782774514026388700,2.108388671875,-0.1885542869567871,-0.20787525177001953,0.1825309693813324
1782774514036398600,2.118398681640625,-0.299945592880249,-0.24025249481201172,0.13575458526611328
1782774514046408200,2.128408203125,-0.3516719341278076,-0.2414541244506836,0.003888249397277832
1782774514056387600,2.1383876953125,-0.3500978946685791,-0.24187469482421875,-0.06499180197715759
1782774514066397200,2.148397216796875,-0.2936413288116455,-0.22197818756103516,-0.15757262706756592
1782774514076406800,2.15840673828125,-0.02427959442138672,-0.1458454132080078,-0.13276734948158264
1782774514086386200,2.16838623046875,0.12102937698364258,-0.09271621704101562,0.020164847373962402
1782774514096396000,2.17839599609375,0.15373659133911133,-0.09938240051269531,-0.028554916381835938
1782774514106406000,2.188406005859375,0.1329054832458496,-0.058868408203125,0.011495441198348999
1782774514116385000,2.198385009765625,-0.027137279510498047,-0.0671701431274414,-0.0225696861743927
1782774514126395000,2.208394775390625,-0.19743108749389648,-0.09064483642578125,-0.0727517306804657
1782774514136404500,2.218404541015625,-0.3048441410064697,-0.07372570037841797,-0.03626200556755066
1782774514146384000,2.2283837890625,-0.38895726203918457,-0.1211862564086914,-0.08772328495979309
1782774514156393500,2.2383935546875,-0.35674262046813965,-0.21614551544189453,-0.2143682986497879
1782774514166403300,2.2484033203125,-0.28257203102111816,-0.25792884826660156,-0.19951757788658142
1782774514176382500,2.258382568359375,-0.1884474754333496,-0.18880462646484375,-0.04693323373794556
1782774514186392300,2.268392333984375,-0.08117246627807617,-0.11428546905517578,0.03016403317451477
1782774514196402000,2.27840185546875,-0.005330085754394531,-0.09467315673828125,0.02305188775062561
1782774514206411800,2.288411865234375,-0.05585908889770508,-0.11600685119628906,-0.017424464225769043
1782774514216391200,2.29839111328125,-0.06267356872558594,-0.08975791931152344,-0.11483606696128845
1782774514226401000,2.308401123046875,-0.026333332061767578,-0.05637359619140625,-0.12802526354789734
1782774514236410600,2.31841064453125,0.05058622360229492,-0.03246784210205078,-0.0367773175239563
1782774514246389800,2.3283896484375,0.1774425506591797,-0.0011692047119140625,0.11321890354156494
1782774514256399600,2.338399658203125,0.2538466453552246,-0.010467529296875,0.16449177265167236
1782774514266409200,2.3484091796875,0.1584916114807129,-0.07277297973632812,0.0397472083568573
1782774514276388600,2.358388671875,0.03922557830810547,-0.14105796813964844,-0.1477123200893402
1782774514286398500,2.3683984375,-0.04777383804321289,-0.1500558853149414,-0.1712169051170349
1782774514296408000,2.378407958984375,-0.07190895080566406,-0.12095355987548828,-0.03093123435974121
1782774514306387500,2.388387451171875,-0.09320068359375,-0.05605316162109375,0.1675487458705902
1782774514316397300,2.398397216796875,-0.07639884948730469,0.011366844177246094,0.3008512258529663
1782774514326407000,2.408406982421875,-0.06289386749267578,0.014512062072753906,0.2817497253417969
1782774514336386300,2.41838623046875,-0.05050373077392578,-0.01787281036376953,0.1476636826992035
1782774514346336300,2.428336181640625,-0.05377006530761719,-0.08810710906982422,-0.015095502138137817
1782774514357345000,2.439344970703125,-0.02440929412841797,-0.1939249038696289,-0.1788375973701477
1782774514376394800,2.458394775390625,0.0907750129699707,-0.29973602294921875,-0.176547110080719
1782774514386404400,2.468404296875,0.14324283599853516,-0.30451488494873047,-0.10541558265686035
1782774514396383700,2.4783837890625,0.08937215805053711,-0.29787635803222656,0.033618390560150146
1782774514406334000,2.488333984375,0.09034156799316406,-0.2227153778076172,0.051757216453552246
1782774514416464400,2.49846435546875,0.003090381622314453,-0.20617198944091797,0.14977872371673584
1782774514426382600,2.508382568359375,-0.19378995895385742,-0.24114227294921875,0.1845708191394806
1782774514436392400,2.518392333984375,-0.45537567138671875,-0.2724113464355469,0.007560133934020996
1782774514446402000,2.528402099609375,-0.5928194522857666,-0.22217369079589844,-0.11767029762268066
1782774514456352000,2.53835205078125,-0.5887181758880615,-0.1638202667236328,-0.1397401988506317
1782774514466482700,2.548482666015625,-0.45113325119018555,-0.2046670913696289,-0.04274609684944153
1782774514477377800,2.559377685546875,-0.1762096881866455,-0.1359729766845703,0.15084290504455566
1782774514496390000,2.578389892578125,0.10817217826843262,-0.050594329833984375,0.25983497500419617
1782774514506399700,2.588399658203125,0.07598400115966797,-0.16021156311035156,0.05060642957687378
1782774514516409300,2.598409423828125,0.002565622329711914,-0.18216228485107422,-0.10642960667610168
1782774514526388700,2.608388671875,-0.08841824531555176,-0.18329715728759766,-0.198143869638443
1782774514536398600,2.618398681640625,-0.12566542625427246,-0.22798919677734375,-0.20614668726921082
1782774514546408200,2.628408203125,-0.09050107002258301,-0.22499942779541016,-0.12183043360710144
1782774514556327700,2.63832763671875,-0.10024666786193848,-0.19107341766357422,-0.012477666139602661
1782774514566398500,2.6483984375,-0.10904502868652344,-0.18143844604492188,0.11481127142906189
1782774514576468000,2.658468017578125,-0.24805521965026855,-0.09099864959716797,0.15993571281433105
1782774514586326500,2.668326416015625,-0.3645632266998291,-0.053661346435546875,0.11449700593948364
1782774514597286100,2.6792861328125,-0.3397846221923828,0.026741981506347656,0.11029443144798279
1782774514616385000,2.698385009765625,-0.17519903182983398,-0.04893016815185547,0.028076916933059692
1782774514626395000,2.708394775390625,0.017946958541870117,-0.11575698852539062,-0.060359835624694824
1782774514636344800,2.7183447265625,0.06978654861450195,-0.13369178771972656,-0.10234519839286804
1782774514646475500,2.7284755859375,0.14022612571716309,-0.20168304443359375,-0.2013077437877655
1782774514656333800,2.738333740234375,0.2085411548614502,-0.2625923156738281,-0.1856224536895752
1782774514666465500,2.748465576171875,0.21954584121704102,-0.22774982452392578,0.030219197273254395
1782774514677392400,2.759392333984375,0.13300013542175293,-0.219482421875,0.04682612419128418
1782774514696463000,2.778463134765625,-0.045812129974365234,-0.3182525634765625,-0.05277088284492493
1782774514706411800,2.788411865234375,-0.1676952838897705,-0.37218379974365234,-0.03114333748817444
1782774514716391200,2.79839111328125,-0.302929162979126,-0.35945892333984375,-0.0034776926040649414
1782774514726401000,2.808401123046875,-0.4284474849700928,-0.3084716796875,0.021478325128555298
1782774514736351000,2.81835107421875,-0.5910069942474365,-0.2976827621459961,-0.04477450251579285
1782774514746481700,2.828481689453125,-0.6000463962554932,-0.30992603302001953,-0.048748910427093506
1782774514756340000,2.838340087890625,-0.4887218475341797,-0.2868642807006836,0.012075632810592651
1782774514766470400,2.848470458984375,-0.2429795265197754,-0.1469583511352539,0.07315289974212646
1782774514776388600,2.858388671875,-0.1517198085784912,-0.019812583923339844,0.016835033893585205
1782774514786398500,2.8683984375,0.0032927989959716797,0.06463336944580078,0.03499385714530945
1782774514796408000,2.878407958984375,0.14946651458740234,0.01577281951904297,0.00004458427429199219
1782774514806387500,2.888387451171875,0.3874015808105469,0.0059490203857421875,0.09227699041366577
1782774514816397300,2.898397216796875,0.5103068351745605,-0.0445556640625,0.05171927809715271
1782774514826407000,2.908406982421875,0.4111297130584717,-0.010231971740722656,-0.03761926293373108
1782774514836386300,2.91838623046875,0.26111268997192383,-0.011303901672363281,-0.090841144323349
1782774514846396200,2.928396240234375,0.11302518844604492,-0.11960506439208984,-0.15452837944030762
1782774514856405800,2.93840576171875,-0.08180904388427734,-0.20790481567382812,-0.16148775815963745
1782774514866385000,2.948385009765625,-0.20975804328918457,-0.15351486206054688,-0.08555445075035095
1782774514876394800,2.958394775390625,-0.18651390075683594,-0.044152259826660156,0.02960216999053955
1782774514886404400,2.968404296875,-0.1950087547302246,-0.05897331237792969,0.1439182162284851
1782774514896383700,2.9783837890625,-0.20213723182678223,-0.17629051208496094,0.13861623406410217
1782774514906393600,2.9883935546875,-0.1369185447692871,-0.2162179946899414,0.03893366456031799
1782774514916403500,2.998403564453125,-0.004178047180175781,-0.22903919219970703,-0.13784244656562805
1782774514926382600,3.008382568359375,0.09167194366455078,-0.29412078857421875,-0.1654956191778183
1782774514936392400,3.018392333984375,0.17058897018432617,-0.32318115234375,-0.15546411275863647
1782774514946402000,3.028402099609375,0.22220611572265625,-0.2522621154785156,-0.05104133486747742
1782774514956412000,3.038411865234375,0.1732769012451172,-0.16555118560791016,0.14179158210754395
1782774514966391000,3.04839111328125,0.012613773345947266,-0.13048934936523438,0.1799345314502716
1782774514976401000,3.05840087890625,-0.14997386932373047,-0.19251632690429688,0.05369001626968384
1782774514986410500,3.068410400390625,-0.27335619926452637,-0.25499725341796875,-0.08811390399932861
1782774514996390000,3.078389892578125,-0.354137659072876,-0.22150135040283203,-0.10979172587394714
1782774515006399700,3.088399658203125,-0.37874436378479004,-0.19934368133544922,-0.09674882888793945
1782774515016409300,3.098409423828125,-0.2613718509674072,-0.13568496704101562,0.044399410486221313
1782774515026388700,3.108388671875,-0.06780648231506348,-0.041957855224609375,0.20542168617248535
1782774515036398600,3.118398681640625,0.04681134223937988,0.07677364349365234,0.31576481461524963
1782774515046408200,3.128408203125,0.18442010879516602,0.16480541229248047,0.29692450165748596
1782774515056387600,3.1383876953125,0.18347883224487305,0.056319236755371094,0.18589550256729126
1782774515066397200,3.148397216796875,0.2310633659362793,-0.05014324188232422,0.08148834109306335
1782774515076347100,3.15834716796875,0.23865652084350586,-0.061240196228027344,-0.0354996919631958
1782774515086477600,3.1684775390625,0.16646671295166016,-0.12097644805908203,-0.058508604764938354
1782774515096396000,3.17839599609375,0.044585227966308594,-0.1365184783935547,0.018178701400756836
1782774515106405600,3.188405517578125,0.02397298812866211,-0.15816307067871094,-0.05283457040786743
1782774515116385000,3.198385009765625,0.06005048751831055,-0.211578369140625,0.06617161631584167
1782774515126395000,3.208394775390625,-0.013470888137817383,-0.2627286911010742,0.18540844321250916
1782774515136404500,3.218404541015625,-0.3095574378967285,-0.2575263977050781,0.22835823893547058
1782774515146384000,3.2283837890625,-0.5018727779388428,-0.2623147964477539,0.1050247848033905
1782774515156393500,3.2383935546875,-0.6108975410461426,-0.2261943817138672,0.0015611648559570312
1782774515166403300,3.2484033203125,-0.5424432754516602,-0.306427001953125,-0.016283750534057617
1782774515176382500,3.258382568359375,-0.41757869720458984,-0.34677696228027344,0.019924432039260864
1782774515186392300,3.268392333984375,-0.28443193435668945,-0.29691028594970703,0.032055050134658813
1782774515196402200,3.278402099609375,-0.09002518653869629,-0.22403907775878906,-0.007821917533874512
1782774515206411800,3.288411865234375,0.056391000747680664,-0.26020050048828125,-0.07163891196250916
1782774515216391200,3.29839111328125,0.16887807846069336,-0.2961740493774414,-0.07801532745361328
1782774515226401000,3.308401123046875,0.21776938438415527,-0.2942924499511719,-0.055743515491485596
1782774515236410600,3.31841064453125,0.16305947303771973,-0.1878213882446289,-0.03852730989456177
1782774515246330000,3.328330078125,0.06073284149169922,-0.11840152740478516,-0.021939456462860107
1782774515256460800,3.338460693359375,-0.010038614273071289,-0.10045814514160156,0.02974221110343933
1782774515266409200,3.3484091796875,-0.1647052764892578,-0.09545612335205078,0.07357257604598999
1782774515276388600,3.358388671875,-0.35979366302490234,-0.05468273162841797,0.007735401391983032
1782774515286398500,3.3683984375,-0.43878960609436035,-0.018243789672851562,-0.0636218786239624
1782774515296348400,3.378348388671875,-0.4150521755218506,-0.08605480194091797,-0.047799378633499146
1782774515306479000,3.38847900390625,-0.3292534351348877,-0.14556407928466797,-0.03891274333000183
1782774515316397300,3.398397216796875,-0.1736128330230713,-0.03895759582519531,0.07936632633209229
1782774515326407000,3.408406982421875,-0.051258087158203125,-0.05106830596923828,0.1394639015197754
1782774515336386300,3.41838623046875,0.07681393623352051,-0.06022453308105469,0.11493343114852905
1782774515346396200,3.428396240234375,0.12128210067749023,-0.0958871841430664,-0.039713263511657715
1782774515356405800,3.43840576171875,0.014162063598632812,-0.16581058502197266,-0.15089929103851318
1782774515366325200,3.4483251953125,-0.07896947860717773,-0.19114208221435547,-0.16142582893371582
1782774515376455700,3.45845556640625,-0.06101846694946289,-0.06600379943847656,-0.07227203249931335
1782774515386404600,3.468404541015625,-0.07924365997314453,-0.03167152404785156,0.03742492198944092
1782774515396383700,3.4783837890625,-0.16740155220031738,-0.07614898681640625,-0.012838184833526611
1782774515406393600,3.4883935546875,-0.2151949405670166,-0.09660148620605469,-0.02367842197418213
1782774515416403500,3.498403564453125,-0.24230074882507324,-0.07841777801513672,-0.05039191246032715
1782774515426382600,3.508382568359375,-0.1820523738861084,-0.1243896484375,-0.12395599484443665
1782774515436392400,3.518392333984375,-0.05846428871154785,-0.18418598175048828,-0.16331923007965088
1782774515446402300,3.52840234375,0.05665469169616699,-0.20028400421142578,-0.09295141696929932
1782774515456412000,3.538411865234375,0.20685267448425293,-0.15612125396728516,-0.042185842990875244
1782774515466391000,3.54839111328125,0.3310666084289551,-0.15996170043945312,0.0008678436279296875
1782774515476341200,3.55834130859375,0.3366832733154297,-0.16189861297607422,0.02237623929977417
1782774515486471700,3.5684716796875,0.2887439727783203,-0.16933441162109375,-0.012956738471984863
1782774515496330200,3.578330322265625,0.12101173400878906,-0.14673137664794922,-0.07142719626426697
1782774515506460700,3.588460693359375,0.008516311645507812,-0.15407657623291016,-0.14309120178222656
1782774515516409300,3.598409423828125,-0.1540994644165039,-0.18888092041015625,-0.07633158564567566
1782774515526388700,3.608388671875,-0.33905768394470215,-0.21715068817138672,-0.11852583289146423
1782774515536398600,3.618398681640625,-0.3634617328643799,-0.17603492736816406,-0.06517234444618225
1782774515546408200,3.628408203125,-0.2491614818572998,-0.1744098663330078,0.037387967109680176
1782774515556387300,3.63838720703125,-0.13202524185180664,-0.17322731018066406,0.1182737946510315
1782774515566397200,3.648397216796875,-0.07806539535522461,-0.20038890838623047,-0.0038183927536010742
1782774515576406800,3.65840673828125,-0.08353137969970703,-0.21339130401611328,-0.07536110281944275
1782774515586326500,3.668326416015625,-0.023704051971435547,-0.2027273178100586,-0.15193825960159302
1782774515597350100,3.67935009765625,0.07967185974121094,-0.10604572296142578,-0.08062011003494263
1782774515616415500,3.69841552734375,0.1730813980102539,0.02451038360595703,0.21270018815994263
1782774515626425300,3.70842529296875,0.07064342498779297,-0.025943756103515625,0.16629618406295776
1782774515636404500,3.718404541015625,-0.08336591720581055,-0.12730121612548828,-0.014408767223358154
1782774515646383900,3.7283837890625,-0.24170327186584473,-0.19785022735595703,-0.19079485535621643
1782774515656393500,3.7383935546875,-0.32309794425964355,-0.2206707000732422,-0.27128010988235474
1782774515666403300,3.7484033203125,-0.31372618675231934,-0.1499156951904297,-0.03033369779586792
1782774515676322800,3.75832275390625,-0.2207038402557373,-0.08134269714355469,0.1841568946838379
1782774515686416600,3.768416748046875,-0.22077298164367676,-0.01763153076171875,0.2899927496910095
1782774515696432600,3.7784326171875,-0.24230694770812988,-0.10725212097167969,0.10965579748153687
1782774515706411800,3.788411865234375,-0.16478204727172852,-0.1867961883544922,-0.13713902235031128
1782774515716391200,3.79839111328125,-0.07055425643920898,-0.24857711791992188,-0.25538837909698486
1782774515726401000,3.808401123046875,0.05045270919799805,-0.32385826110839844,-0.2968650758266449
1782774515736351000,3.81835107421875,0.1609969139099121,-0.2909259796142578,-0.2030801773071289
1782774515746481700,3.828481689453125,0.18108510971069336,-0.19108295440673828,-0.046590656042099
1782774515756399600,3.838399658203125,0.1900954246520996,-0.11549949645996094,0.08692747354507446
1782774515766409200,3.8484091796875,0.16172122955322266,-0.09057331085205078,0.20067590475082397
1782774515776329000,3.858328857421875,0.10316610336303711,-0.16187477111816406,0.10194581747055054
1782774515786459400,3.86845947265625,0.0024585723876953125,-0.2719993591308594,-0.07414937019348145
1782774515797587700,3.879587646484375,-0.033782958984375,-0.30315399169921875,-0.26976001262664795
1782774515816397300,3.898397216796875,-0.09026575088500977,-0.3052654266357422,-0.2610211968421936
1782774515826407000,3.908406982421875,-0.05240488052368164,-0.21889209747314453,-0.08829066157341003
1782774515836386300,3.91838623046875,-0.030929088592529297,-0.1851949691772461,0.09105390310287476
1782774515846396200,3.928396240234375,-0.05991363525390625,-0.21361732482910156,0.14508754014968872
1782774515856405800,3.93840576171875,-0.05780315399169922,-0.20617198944091797,-0.022516489028930664
1782774515866385000,3.948385009765625,-0.16298341751098633,-0.2516756057739258,-0.19116955995559692
1782774515876335000,3.958335205078125,-0.1980881690979004,-0.2903299331665039,-0.2704697251319885
1782774515886465500,3.968465576171875,-0.16668033599853516,-0.22097492218017578,-0.1708478033542633
1782774515896383700,3.9783837890625,-0.10984468460083008,-0.11276721954345703,0.06293916702270508
1782774515906303500,3.988303466796875,-0.05570840835571289,-0.021071434020996094,0.27565813064575195
1782774515917277400,3.99927734375,-0.02931070327758789,0.019960403442382812,0.3461250066757202
1782774515936392400,4.018392333984375,-0.12175178527832031,-0.0648202896118164,0.050081074237823486
1782774515946402000,4.028402099609375,-0.28296637535095215,-0.11812114715576172,-0.035189926624298096
1782774515956412000,4.038411865234375,-0.37485623359680176,-0.13076210021972656,-0.13812056183815002
1782774515966391000,4.04839111328125,-0.17814397811889648,-0.04473686218261719,-0.030527353286743164
1782774515976341200,4.05834130859375,0.02034282684326172,-0.02193927764892578,0.14791882038116455
1782774515986407400,4.068407470703125,0.10397529602050781,-0.032668113708496094,0.22306549549102783
1782774515997406200,4.07940625,0.08331441879272461,-0.06782054901123047,0.16660594940185547
1782774516016409300,4.098409423828125,-0.12134981155395508,-0.21689414978027344,-0.11940759420394897
1782774516026388700,4.108388671875,-0.11526346206665039,-0.2127676010131836,-0.0726570188999176
1782774516036398600,4.118398681640625,-0.035599708557128906,-0.16277599334716797,0.08521223068237305
1782774516046408200,4.128408203125,-0.011080741882324219,-0.11269187927246094,0.2182033658027649
1782774516056387300,4.13838720703125,-0.05264759063720703,-0.15161991119384766,0.2386455535888672
1782774516066397200,4.148397216796875,-0.1510472297668457,-0.2603273391723633,0.13082706928253174
1782774516076406800,4.15840673828125,-0.18962574005126953,-0.3739280700683594,-0.09462249279022217
1782774516086386200,4.16838623046875,-0.24988532066345215,-0.43243408203125,-0.22377371788024902
1782774516096396000,4.17839599609375,-0.33377909660339355,-0.4311351776123047,-0.21793287992477417
1782774516106405600,4.188405517578125,-0.37608838081359863,-0.3414602279663086,-0.004522085189819336
1782774516116385000,4.198385009765625,-0.3629262447357178,-0.1967029571533203,0.21283304691314697
1782774516126395000,4.208394775390625,-0.352461576461792,-0.12113189697265625,0.3518472909927368
1782774516136345000,4.218344970703125,-0.295975923538208,-0.14296817779541016,0.2145214080810547
1782774516146475500,4.2284755859375,-0.18475723266601562,-0.11590290069580078,0.008682489395141602
1782774516156393500,4.2383935546875,-0.07100343704223633,-0.09758758544921875,-0.20613518357276917
1782774516166403300,4.2484033203125,0.08490180969238281,-0.059716224670410156,-0.2649718225002289
1782774516176382500,4.258382568359375,0.1763153076171875,-0.0050716400146484375,-0.15508559346199036
1782774516186392300,4.268392333984375,0.18704462051391602,0.02537059783935547,-0.14676359295845032
1782774516196402000,4.27840185546875,0.25127649307250977,0.11767005920410156,-0.12615704536437988
1782774516206411800,4.288411865234375,0.25681400299072266,0.16158390045166016,-0.014861762523651123
1782774516216391200,4.29839111328125,0.25235891342163086,0.22617721557617188,0.040992677211761475
1782774516226401000,4.308401123046875,0.1929030418395996,0.277679443359375,0.1018514633178711
1782774516236410600,4.31841064453125,0.08546066284179688,0.3017911911010742,0.0697064995765686
1782774516246389800,4.3283896484375,-0.04903697967529297,0.28917503356933594,0.04823523759841919
1782774516256399600,4.338399658203125,-0.18010401725769043,0.25209712982177734,0.10915106534957886
1782774516266409500,4.348409423828125,-0.2183704376220703,0.13621234893798828,0.04896920919418335
1782774516276329000,4.358328857421875,-0.230072021484375,-0.036273956298828125,-0.12190979719161987
1782774516286459400,4.36845947265625,-0.07746458053588867,-0.1643209457397461,-0.18302583694458008
1782774516296408000,4.378407958984375,0.05781912803649902,-0.24078941345214844,-0.11927086114883423
1782774516306387500,4.388387451171875,0.1423485279083252,-0.2810506820678711,0.005441844463348389
1782774516316397300,4.398397216796875,0.10195207595825195,-0.25984859466552734,0.11909323930740356
1782774516326407000,4.408406982421875,-0.024278640747070312,-0.29483795166015625,0.19752568006515503
1782774516336386300,4.41838623046875,-0.21280598640441895,-0.3548002243041992,0.08903098106384277
1782774516346396200,4.428396240234375,-0.19903922080993652,-0.38904666900634766,-0.1757783591747284
1782774516356405800,4.43840576171875,-0.24289703369140625,-0.3801450729370117,-0.17196747660636902
1782774516366385000,4.448385009765625,-0.2781987190246582,-0.4329681396484375,-0.06155094504356384
1782774516376394800,4.458394775390625,-0.21448421478271484,-0.34616565704345703,0.05710434913635254
1782774516386404400,4.468404296875,-0.0950479507446289,-0.26570796966552734,0.18176299333572388
1782774516396383700,4.4783837890625,-0.02246880531311035,-0.24684429168701172,0.24804657697677612
1782774516406393600,4.4883935546875,-0.12209773063659668,-0.3549785614013672,0.15444523096084595
1782774516416403500,4.498403564453125,-0.15934538841247559,-0.4058084487915039,-0.06197735667228699
1782774516426323000,4.508322998046875,-0.11803936958312988,-0.34635448455810547,-0.1913350522518158
1782774516436483800,4.51848388671875,-0.10371780395507812,-0.3248462677001953,-0.08975422382354736
1782774516446402300,4.52840234375,-0.10370230674743652,-0.3559236526489258,-0.08590877056121826
1782774516456412000,4.538411865234375,-0.06306862831115723,-0.2887430191040039,-0.006480097770690918
1782774516466391000,4.54839111328125,-0.056504249572753906,-0.18773937225341797,0.07428812980651855
1782774516476401000,4.55840087890625,-0.04069209098815918,-0.13446617126464844,0.08553361892700195
1782774516486410500,4.568410400390625,-0.04167532920837402,-0.08836936950683594,0.10652750730514526
1782774516496390000,4.578389892578125,-0.03772735595703125,-0.06867313385009766,0.0557408332824707
1782774516506399700,4.588399658203125,-0.10678601264953613,-0.0710744857788086,-0.08340659737586975
1782774516516409300,4.598409423828125,-0.07447004318237305,-0.057038307189941406,-0.1274491846561432
1782774516526388700,4.608388671875,-0.037575721740722656,0.005043983459472656,-0.048079073429107666
1782774516536398600,4.618398681640625,0.08693337440490723,0.1107034683227539,0.011287927627563477
1782774516546408200,4.628408203125,0.25856518745422363,0.1424694061279297,0.12112867832183838
1782774516556387300,4.63838720703125,0.4386787414550781,0.1388092041015625,0.3004080653190613
1782774516566397200,4.648397216796875,0.3842465877532959,0.039305686950683594,0.2504764795303345
1782774516576406800,4.65840673828125,0.1412334442138672,-0.09040451049804688,0.026157677173614502
1782774516586386200,4.66838623046875,-0.09172749519348145,-0.20717620849609375,-0.17169848084449768
1782774516596396000,4.67839599609375,-0.20621585845947266,-0.2574882507324219,-0.3061482310295105
1782774516606405600,4.688405517578125,-0.21121764183044434,-0.2332620620727539,-0.29023048281669617
1782774516616385000,4.698385009765625,-0.2124795913696289,-0.29226112365722656,-0.1299719214439392
1782774516626395000,4.708394775390625,-0.13397812843322754,-0.28104114532470703,-0.052229464054107666
1782774516636404500,4.718404541015625,0.029122114181518555,-0.21403980255126953,-0.06090623140335083
1782774516646324200,4.72832421875,0.10100150108337402,-0.19720840454101562,0.016573727130889893
1782774516656454700,4.73845458984375,0.03770899772644043,-0.2551555633544922,0.09865981340408325
1782774516666343700,4.74834375,-0.0761570930480957,-0.2925081253051758,-0.06533443927764893
1782774516676504600,4.758504638671875,-0.24060678482055664,-0.29973697662353516,-0.16563859581947327
1782774516686392300,4.768392333984375,-0.2815539836883545,-0.24532127380371094,-0.04574078321456909
1782774516696402000,4.77840185546875,-0.3437798023223877,-0.1909160614013672,-0.02080237865447998
1782774516706411800,4.788411865234375,-0.40796542167663574,-0.24918270111083984,-0.09221896529197693
1782774516716391200,4.79839111328125,-0.42681050300598145,-0.2475452423095703,-0.1752319633960724
1782774516726401000,4.808401123046875,-0.41312265396118164,-0.1808452606201172,-0.14789384603500366
1782774516736410600,4.81841064453125,-0.338392972946167,-0.044137001037597656,0.017585158348083496
1782774516746389800,4.8283896484375,-0.2341165542602539,0.05982685089111328,0.17921024560928345
1782774516756399600,4.838399658203125,-0.1691427230834961,0.12598705291748047,0.28710412979125977
1782774516766409500,4.848409423828125,-0.15243816375732422,0.10372352600097656,0.2538374662399292
1782774516776388600,4.858388671875,-0.04191732406616211,0.043822288513183594,0.03411787748336792
1782774516786398500,4.8683984375,0.1421346664428711,0.025737762451171875,-0.0698087215423584
1782774516796408000,4.878407958984375,0.22597599029541016,-0.0681915283203125,-0.12643221020698547
1782774516806387500,4.888387451171875,0.19091057777404785,-0.19597244262695312,-0.2454831898212433
1782774516816397300,4.898397216796875,0.11045289039611816,-0.2865104675292969,-0.31443098187446594
1782774516826407000,4.908406982421875,-0.01803278923034668,-0.2304830551147461,-0.21306800842285156
1782774516836386300,4.91838623046875,-0.11439800262451172,-0.1302633285522461,-0.06637454032897949
1782774516846396200,4.928396240234375,-0.23207640647888184,-0.08127021789550781,0.11585336923599243
1782774516856405800,4.93840576171875,-0.2814161777496338,-0.027957916259765625,0.2538296580314636
1782774516866385200,4.94838525390625,-0.27349853515625,0.09007835388183594,0.25090450048446655
1782774516876394800,4.958394775390625,-0.15657997131347656,0.14388084411621094,0.1799309253692627
1782774516886404600,4.968404541015625,-0.19852781295776367,0.056743621826171875,0.18639880418777466
1782774516896383700,4.9783837890625,-0.34137725830078125,-0.03511238098144531,0.08882719278335571
1782774516906393600,4.9883935546875,-0.3136787414550781,-0.08803462982177734,-0.09259271621704102
1782774516916403500,4.998403564453125,-0.06054401397705078,-0.06736087799072266,-0.0929364562034607
1782774516926382600,5.008382568359375,0.1239323616027832,-0.11921119689941406,-0.021389126777648926
1782774516936392400,5.018392333984375,0.18761444091796875,-0.21845245361328125,0.05921590328216553
1782774516946342400,5.02834228515625,0.19961190223693848,-0.20792579650878906,0.15340650081634521
1782774516956533800,5.03853369140625,0.11939167976379395,-0.14995479583740234,0.21332842111587524
1782774516966331400,5.048331298828125,-0.01898670196533203,-0.21245861053466797,0.08954858779907227
1782774516976462000,5.058462158203125,-0.0794675350189209,-0.3282337188720703,0.0001469254493713379
1782774516986410500,5.068410400390625,-0.0972440242767334,-0.3911905288696289,0.006847083568572998
1782774516996390000,5.078389892578125,-0.08916974067687988,-0.3438253402709961,-0.026921987533569336
1782774517006340000,5.088340087890625,-0.026360511779785156,-0.34177398681640625,0.003435194492340088
1782774517016470500,5.098470458984375,-0.10905289649963379,-0.39015865325927734,0.011117160320281982
1782774517026329000,5.1083291015625,-0.17106056213378906,-0.4176292419433594,-0.11548933386802673
1782774517036459500,5.11845947265625,-0.2062983512878418,-0.3446922302246094,-0.11332997679710388
1782774517046408200,5.128408203125,-0.18286561965942383,-0.2568387985229492,-0.09037953615188599
1782774517056387300,5.13838720703125,-0.094268798828125,-0.24956703186035156,-0.008008778095245361
1782774517066397200,5.148397216796875,0.0020818710327148438,-0.22951698303222656,0.09053605794906616
1782774517076406800,5.15840673828125,0.011464357376098633,-0.2402353286743164,0.0641898512840271
1782774517086386200,5.16838623046875,-0.002295255661010742,-0.17949485778808594,0.00476992130279541
1782774517096396000,5.17839599609375,0.0733482837677002,-0.08559513092041016,0.029336988925933838
1782774517106346000,5.188345947265625,0.06735777854919434,-0.08736705780029297,0.027660608291625977
1782774517117276200,5.199276123046875,0.03469252586364746,-0.13692760467529297,-0.018816888332366943
1782774517136404700,5.21840478515625,-0.12911629676818848,-0.20592689514160156,-0.1984909474849701
1782774517146384000,5.2283837890625,-0.17649507522583008,-0.15104103088378906,-0.0816727876663208
1782774517156393500,5.2383935546875,-0.13809847831726074,-0.13422107696533203,-0.06159180402755737
1782774517166403300,5.2484033203125,0.016944408416748047,-0.06441783905029297,0.032294392585754395
1782774517176382500,5.258382568359375,0.06304359436035156,-0.056326866149902344,0.1473333239555359
1782774517186392300,5.268392333984375,0.06539201736450195,-0.009696006774902344,0.10267800092697144
1782774517196402000,5.27840185546875,-0.0014109611511230469,0.04864692687988281,0.016999781131744385
1782774517206411800,5.288411865234375,-0.0005662441253662109,-0.0035104751586914062,-0.047881126403808594
1782774517216391200,5.29839111328125,0.021913766860961914,-0.017426490783691406,0.024114906787872314
1782774517226401000,5.308401123046875,0.03481650352478027,-0.04570198059082031,0.014655649662017822
1782774517236410600,5.31841064453125,-0.020977497100830078,-0.03123188018798828,-0.04448753595352173
1782774517246389800,5.3283896484375,-0.12299513816833496,-0.0965414047241211,-0.1840706765651703
1782774517256399600,5.338399658203125,-0.2006850242614746,-0.2674083709716797,-0.2702179551124573
1782774517266409500,5.348409423828125,-0.3003685474395752,-0.3255796432495117,-0.3128369152545929
1782774517276388600,5.358388671875,-0.3052382469177246,-0.28993892669677734,-0.24100962281227112
1782774517286398500,5.3683984375,-0.16765427589416504,-0.2081613540649414,-0.04205119609832764
1782774517296408000,5.378407958984375,-0.04001140594482422,-0.09489250183105469,0.2350252866744995
1782774517306387500,5.388387451171875,0.009290695190429688,-0.03210163116455078,0.4222068786621094
1782774517316397300,5.398397216796875,-0.11458039283752441,-0.0035724639892578125,0.3158363699913025
1782774517326407000,5.408406982421875,-0.23976492881774902,-0.011639595031738281,-0.004935622215270996
1782774517336386300,5.41838623046875,-0.20312047004699707,-0.1080474853515625,-0.25594693422317505
1782774517346396200,5.428396240234375,-0.06139397621154785,-0.17226123809814453,-0.39098918437957764
1782774517356405800,5.43840576171875,0.12803006172180176,-0.2089996337890625,-0.28964588046073914
1782774517366385200,5.44838525390625,0.29233765602111816,-0.1732654571533203,-0.07556933164596558
1782774517376394800,5.458394775390625,0.31476831436157227,-0.07587909698486328,0.1837725043296814
1782774517386404600,5.468404541015625,0.12327289581298828,-0.025537490844726562,0.3668181896209717
1782774517396383700,5.4783837890625,-0.15936970710754395,-0.06571483612060547,0.3145878314971924
1782774517406393600,5.4883935546875,-0.4386765956878662,-0.109771728515625,0.17729169130325317
1782774517416403500,5.498403564453125,-0.6569342613220215,-0.15439891815185547,0.05550384521484375
1782774517426382600,5.508382568359375,-0.6991150379180908,-0.24889469146728516,-0.11549431085586548
1782774517436392400,5.518392333984375,-0.5554542541503906,-0.3348417282104492,-0.1710042953491211
1782774517446402000,5.528402099609375,-0.25887084007263184,-0.2988882064819336,-0.09777531027793884
1782774517456412000,5.538411865234375,0.02803635597229004,-0.27994632720947266,0.022111952304840088
1782774517466391000,5.54839111328125,0.23553943634033203,-0.2860832214355469,0.08336764574050903
1782774517476401000,5.55840087890625,0.2812471389770508,-0.19684791564941406,0.07241225242614746
1782774517486410500,5.568410400390625,0.15814518928527832,-0.14263534545898438,-0.020113468170166016
1782774517496390000,5.578389892578125,-0.006399869918823242,-0.11409664154052734,-0.08378121256828308
1782774517506399700,5.588399658203125,-0.046681880950927734,-0.09605598449707031,-0.06355863809585571
1782774517516409300,5.598409423828125,-0.07977104187011719,-0.10674762725830078,-0.08891823887825012
1782774517526388700,5.608388671875,-0.14476895332336426,-0.1051950454711914,-0.18986427783966064
1782774517536338700,5.618338623046875,-0.11958885192871094,-0.12249279022216797,-0.2135860025882721
1782774517546469400,5.628469482421875,0.0024259090423583984,-0.0961151123046875,-0.11549213528633118
1782774517556387600,5.6383876953125,0.1731555461883545,-0.03549385070800781,0.007979393005371094
1782774517566397200,5.648397216796875,0.18568992614746094,-0.008269309997558594,0.0923851728439331
1782774517576347100,5.65834716796875,0.05652594566345215,0.013344764709472656,0.05458468198776245
1782774517586477600,5.6684775390625,-0.017765045166015625,-0.025890350341796875,-0.07086873054504395
1782774517596397300,5.678397216796875,-0.057965755462646484,-0.08939266204833984,-0.08004337549209595
1782774517606466800,5.688466796875,-0.1517653465270996,-0.200469970703125,-0.23157331347465515
1782774517616385000,5.698385009765625,-0.11252641677856445,-0.21065425872802734,-0.3358781933784485
1782774517626335200,5.708335205078125,-0.026667356491088867,-0.14607906341552734,-0.20561078190803528
1782774517636465700,5.718465576171875,0.06331777572631836,-0.08588600158691406,-0.06535464525222778
1782774517646383900,5.7283837890625,0.10307693481445312,-0.13097190856933594,0.003978908061981201
1782774517656393500,5.7383935546875,0.043038129806518555,-0.1619853973388672,0.017799019813537598
1782774517666343700,5.74834375,-0.09578919410705566,-0.15342235565185547,-0.025585591793060303
1782774517677202200,5.7592021484375,-0.16113948822021484,-0.15748977661132812,-0.002528548240661621
1782774517696463000,5.778463134765625,-0.09896540641784668,-0.18659687042236328,0.12776696681976318
1782774517706352000,5.78835205078125,-0.07251667976379395,-0.12775516510009766,0.08394479751586914
1782774517717159400,5.799159423828125,-0.07532310485839844,-0.13579750061035156,-0.047353506088256836
1782774517736410600,5.81841064453125,-0.06511950492858887,-0.2879953384399414,-0.12494999170303345
1782774517746389800,5.8283896484375,-0.10192036628723145,-0.36760520935058594,-0.15420785546302795
1782774517756399600,5.838399658203125,-0.16199898719787598,-0.41392040252685547,-0.20590949058532715
1782774517766349600,5.848349609375,-0.2118222713470459,-0.43648242950439453,-0.17057159543037415
1782774517776420600,5.858420654296875,-0.26375770568847656,-0.4734201431274414,-0.15605080127716064
1782774517786399700,5.868399658203125,-0.30598902702331543,-0.39774608612060547,-0.019130825996398926
1782774517797400300,5.879400390625,-0.30040884017944336,-0.1495046615600586,0.23281097412109375
1782774517816397300,5.898397216796875,-0.07619500160217285,0.06569194793701172,0.44185125827789307
1782774517826347300,5.90834716796875,0.038767337799072266,0.025528907775878906,0.2828271985054016
1782774517836477700,5.918477783203125,0.14999890327453613,-0.07896137237548828,0.029291808605194092
1782774517846396200,5.928396240234375,0.14864826202392578,-0.19798851013183594,-0.18788784742355347
1782774517856405800,5.93840576171875,0.13137483596801758,-0.2408123016357422,-0.3132059574127197
1782774517866385000,5.948385009765625,0.11746621131896973,-0.15228652954101562,-0.24091166257858276
1782774517876394800,5.958394775390625,0.045305490493774414,-0.10734748840332031,0.022718191146850586
1782774517886404400,5.968404296875,-0.03994488716125488,-0.08197593688964844,0.15542274713516235
1782774517896383700,5.9783837890625,-0.10330843925476074,-0.023233413696289062,0.20207947492599487
1782774517906393600,5.9883935546875,-0.1888589859008789,0.009359359741210938,0.18289339542388916
1782774517916403500,5.998403564453125,-0.2338087558746338,0.015567779541015625,0.07404649257659912
1782774517926323000,6.008322998046875,-0.18602991104125977,-0.013963699340820312,0.050352275371551514
1782774517936483800,6.01848388671875,-0.06580996513366699,0.0003204345703125,0.12992733716964722
1782774517946402000,6.028402099609375,0.00010371208190917969,-0.03744220733642578,0.04269969463348389
1782774517956412000,6.038411865234375,0.03912997245788574,-0.0655050277709961,-0.06700867414474487
1782774517966331400,6.048331298828125,0.1072242259979248,-0.12489700317382812,-0.07763200998306274
1782774517976461800,6.0584619140625,0.0701596736907959,-0.19870662689208984,-0.055126845836639404
1782774517986410500,6.068410400390625,-0.08345723152160645,-0.24888134002685547,-0.07107651233673096
1782774517996330200,6.078330322265625,-0.13519692420959473,-0.24695205688476562,-0.038915395736694336
1782774518006401000,6.088401123046875,-0.22221660614013672,-0.2787504196166992,-0.014695048332214355
1782774518016470500,6.098470458984375,-0.2588784694671631,-0.33931636810302734,-0.03349798917770386
1782774518026388700,6.108388671875,-0.23568105697631836,-0.2945394515991211,0.0027460455894470215
1782774518036338700,6.118338623046875,-0.2077498435974121,-0.2305145263671875,0.03323519229888916
1782774518046469400,6.128469482421875,-0.21294617652893066,-0.15462017059326172,0.1011662483215332
1782774518056387600,6.1383876953125,-0.184617280960083,-0.15533065795898438,0.06838798522949219
1782774518066397200,6.148397216796875,-0.1473388671875,-0.18214035034179688,0.03356558084487915
1782774518076406800,6.15840673828125,-0.12306666374206543,-0.18464183807373047,-0.033909499645233154
1782774518086386200,6.16838623046875,-0.11218047142028809,-0.1746530532836914,-0.1171644926071167
1782774518096396000,6.17839599609375,-0.04941439628601074,-0.13322162628173828,-0.130801260471344
1782774518106406000,6.188406005859375,0.07204127311706543,-0.08648300170898438,-0.051536500453948975
1782774518116385000,6.198385009765625,0.21200227737426758,-0.07775592803955078,0.04178732633590698
1782774518126395000,6.208394775390625,0.2018740177154541,-0.07414817810058594,0.07074344158172607
1782774518136404500,6.218404541015625,0.0574796199798584,-0.09787178039550781,-0.062059879302978516
1782774518146384000,6.2283837890625,-0.000957489013671875,-0.16321754455566406,-0.10362732410430908
1782774518156393500,6.2383935546875,-0.09210538864135742,-0.1761798858642578,-0.028542697429656982
1782774518166343700,6.24834375,-0.17361807823181152,-0.1867818832397461,-0.05866968631744385
1782774518176474000,6.25847412109375,-0.16273999214172363,-0.1754598617553711,-0.08111369609832764
1782774518186332700,6.268332763671875,-0.11755013465881348,-0.07248783111572266,0.011300504207611084
1782774518197335800,6.279335693359375,0.005553722381591797,-0.06721973419189453,0.039062440395355225
1782774518216391200,6.29839111328125,0.08456158638000488,-0.12782669067382812,-0.04690033197402954
1782774518226401000,6.308401123046875,0.0852959156036377,-0.1585836410522461,-0.25052499771118164
1782774518236410600,6.31841064453125,0.03658008575439453,-0.20410728454589844,-0.2881763279438019
1782774518246389800,6.3283896484375,-0.018495559692382812,-0.22599315643310547,-0.20424997806549072
1782774518256399600,6.338399658203125,0.03642582893371582,-0.23097801208496094,-0.145440012216568
1782774518266409500,6.348409423828125,0.06685996055603027,-0.1709747314453125,0.11756885051727295
1782774518276388600,6.358388671875,-0.00031304359436035156,-0.04412841796875,0.23879653215408325
1782774518286398500,6.3683984375,-0.11603426933288574,-0.09999752044677734,0.05166816711425781
1782774518296408000,6.378407958984375,-0.23753786087036133,-0.2331390380859375,-0.0841294527053833
1782774518306387500,6.388387451171875,-0.2757549285888672,-0.2775125503540039,-0.14041998982429504
1782774518316397300,6.398397216796875,-0.28920745849609375,-0.27334022521972656,-0.21829292178153992
1782774518326407000,6.408406982421875,-0.22751593589782715,-0.29726505279541016,-0.20309922099113464
1782774518336386300,6.41838623046875,-0.11464309692382812,-0.2606191635131836,-0.07676279544830322
1782774518346396200,6.428396240234375,0.11191797256469727,-0.12035751342773438,0.1622474193572998
1782774518356405800,6.43840576171875,0.2307124137878418,-0.06381034851074219,0.2398175597190857
1782774518366385200,6.44838525390625,0.10212016105651855,-0.127685546875,0.15754550695419312
1782774518376394800,6.458394775390625,-0.061667442321777344,-0.11636734008789062,0.0004642009735107422
1782774518386404600,6.468404541015625,-0.18966293334960938,-0.14438438415527344,-0.24883928894996643
1782774518396383700,6.4783837890625,-0.16182398796081543,-0.26587677001953125,-0.1962108314037323
1782774518406393600,6.4883935546875,-0.13756012916564941,-0.3221435546875,-0.11378610134124756
1782774518416403500,6.498403564453125,-0.15178751945495605,-0.21065330505371094,-0.01590365171432495
1782774518426382600,6.508382568359375,-0.1271376609802246,0.008421897888183594,0.13580548763275146
1782774518436392400,6.518392333984375,-0.1617259979248047,0.07648181915283203,0.2456967830657959
1782774518446402000,6.528402099609375,-0.20816493034362793,0.01758575439453125,0.18580937385559082
1782774518456412000,6.538411865234375,-0.16956496238708496,-0.033786773681640625,0.06341779232025146
1782774518466391000,6.54839111328125,-0.1190636157989502,-0.13695144653320312,-0.06164449453353882
1782774518476401000,6.55840087890625,-0.06850433349609375,-0.23206710815429688,-0.19953510165214539
1782774518486410500,6.568410400390625,-0.06856966018676758,-0.29592037200927734,-0.2822050452232361
1782774518496330200,6.578330322265625,-0.020383596420288086,-0.28324031829833984,-0.22947824001312256
1782774518506460700,6.588460693359375,0.11439895629882812,-0.14365005493164062,-0.007186293601989746
1782774518516409300,6.598409423828125,0.12996268272399902,-0.013730049133300781,0.2684592008590698
1782774518526388700,6.608388671875,0.022963762283325195,0.07709217071533203,0.3403729796409607
1782774518536398600,6.618398681640625,-0.04839897155761719,0.12868404388427734,0.28846198320388794
1782774518546408200,6.628408203125,-0.14298129081726074,0.08652114868164062,0.19711041450500488
1782774518556387600,6.6383876953125,-0.15914249420166016,-0.02978515625,0.03167068958282471
1782774518566397200,6.648397216796875,-0.18432354927062988,-0.1287069320678711,-0.1723318099975586
1782774518576406800,6.65840673828125,-0.1635456085205078,-0.1861886978149414,-0.26528066396713257
1782774518586386200,6.66838623046875,-0.09154391288757324,-0.14006805419921875,-0.14350074529647827
1782774518596396000,6.67839599609375,0.020561695098876953,-0.14863204956054688,0.026540815830230713
1782774518606405600,6.688405517578125,0.015900135040283203,-0.19805240631103516,0.1810922622680664
1782774518616385000,6.698385009765625,0.015203714370727539,-0.22656822204589844,0.13916254043579102
1782774518626395000,6.708394775390625,-0.10081267356872559,-0.26312732696533203,0.004352748394012451
1782774518636404500,6.718404541015625,-0.23199152946472168,-0.2357501983642578,-0.017217814922332764
1782774518646383900,6.7283837890625,-0.2527010440826416,-0.20370101928710938,-0.019994914531707764
1782774518656393500,6.7383935546875,-0.24052977561950684,-0.24556350708007812,-0.042590200901031494
1782774518666403300,6.7484033203125,-0.17221760749816895,-0.2557344436645508,-0.05589187145233154
1782774518676382500,6.758382568359375,-0.10520339012145996,-0.169586181640625,-0.028688251972198486
1782774518686392300,6.768392333984375,-0.07530546188354492,-0.09490394592285156,-0.06866860389709473
1782774518696402200,6.778402099609375,0.05938529968261719,-0.015195846557617188,-0.05128580331802368
1782774518706411800,6.788411865234375,0.2481236457824707,-0.04514884948730469,0.0802035927772522
1782774518716391200,6.79839111328125,0.250030517578125,-0.10857677459716797,-0.020645618438720703
1782774518726401000,6.808401123046875,0.20281338691711426,-0.13667869567871094,-0.17962846159934998
1782774518736410600,6.81841064453125,0.12836575508117676,-0.13910675048828125,-0.19194936752319336
1782774518746390000,6.82839013671875,0.017554521560668945,-0.08959770202636719,-0.10245785117149353
1782774518756399600,6.838399658203125,-0.055292606353759766,-0.03603935241699219,0.07860589027404785
1782774518766409500,6.848409423828125,-0.10584878921508789,-0.05212879180908203,0.2174960970878601
1782774518776388600,6.858388671875,-0.12088990211486816,-0.020209312438964844,0.18234962224960327
1782774518786398500,6.8683984375,-0.16071605682373047,-0.04551887512207031,0.06527996063232422
1782774518796408000,6.878407958984375,-0.13699889183044434,-0.15189075469970703,-0.08347439765930176
1782774518806387500,6.888387451171875,-0.07339644432067871,-0.1669940948486328,-0.09496167302131653
1782774518816397300,6.898397216796875,0.023581981658935547,-0.08861541748046875,0.012496471405029297
1782774518826407000,6.908406982421875,0.059175968170166016,-0.04163932800292969,0.10432326793670654
1782774518836386300,6.91838623046875,-0.030324697494506836,-0.05282306671142578,0.13562029600143433
1782774518846396200,6.928396240234375,-0.09872198104858398,-0.08398818969726562,-0.009816527366638184
1782774518856405800,6.93840576171875,-0.29719114303588867,-0.1350078582763672,0.01547694206237793
1782774518866385200,6.94838525390625,-0.4449024200439453,-0.15987777709960938,-0.06702035665512085
1782774518876394800,6.958394775390625,-0.4965250492095947,-0.20876407623291016,-0.0736808180809021
1782774518886404400,6.968404296875,-0.5027313232421875,-0.33176422119140625,-0.028798282146453857
1782774518896383700,6.9783837890625,-0.516416072845459,-0.3371763229370117,0.11194324493408203
1782774518906393600,6.9883935546875,-0.33507561683654785,-0.18631744384765625,0.22691833972930908
1782774518916403500,6.998403564453125,-0.18433785438537598,-0.13753986358642578,0.34501999616622925
1782774518926382600,7.008382568359375,-0.10970377922058105,-0.19819355010986328,0.3037506341934204
1782774518936392400,7.018392333984375,-0.09865236282348633,-0.2824220657348633,0.049757182598114014
1782774518946402300,7.02840234375,-0.06971287727355957,-0.27294254302978516,-0.1415621042251587
1782774518956412000,7.038411865234375,-0.022565364837646484,-0.27507686614990234,-0.2726503014564514
1782774518966391000,7.04839111328125,0.10075736045837402,-0.2985191345214844,-0.26345503330230713
1782774518976401000,7.05840087890625,0.19994592666625977,-0.2571134567260742,-0.14132040739059448
1782774518986410500,7.068410400390625,0.21775603294372559,-0.1892852783203125,0.015249431133270264
1782774518996390000,7.078389892578125,0.1864302158355713,-0.09790611267089844,0.14438211917877197
1782774519006399700,7.088399658203125,0.04901289939880371,-0.08136177062988281,0.26321321725845337
1782774519016409300,7.098409423828125,-0.12518596649169922,-0.14209842681884766,0.15777713060379028
1782774519026388700,7.108388671875,-0.18256354331970215,-0.15966033935546875,0.0805356502532959
1782774519036398600,7.118398681640625,-0.10590815544128418,-0.21221637725830078,-0.024420320987701416
1782774519046348500,7.1283486328125,-0.0031867027282714844,-0.3308115005493164,-0.1449483335018158
1782774519056479000,7.13847900390625,0.06166672706604004,-0.3672313690185547,-0.17658394575119019
1782774519066397200,7.148397216796875,0.10417461395263672,-0.3290853500366211,-0.21572241187095642
1782774519076406800,7.15840673828125,0.09652900695800781,-0.3436269760131836,-0.19783100485801697
1782774519086386200,7.16838623046875,0.10126256942749023,-0.3079996109008789,-0.17120105028152466
1782774519096396000,7.17839599609375,0.1282482147216797,-0.20074462890625,-0.01651054620742798
1782774519106406000,7.188406005859375,0.06507992744445801,-0.08174896240234375,0.16537445783615112
1782774519116385000,7.198385009765625,-0.02036571502685547,-0.0543975830078125,0.12206602096557617
1782774519126395000,7.208394775390625,-0.04919838905334473,-0.1546010971069336,0.13431650400161743
1782774519136404500,7.218404541015625,-0.14486336708068848,-0.19267940521240234,0.1639188528060913
1782774519146384000,7.2283837890625,-0.18104982376098633,-0.2618694305419922,-0.09173929691314697
1782774519156393500,7.2383935546875,-0.18221306800842285,-0.35718345642089844,-0.2805728614330292
1782774519166403300,7.2484033203125,-0.23450136184692383,-0.35884666442871094,-0.35349753499031067
1782774519176382500,7.258382568359375,-0.23412561416625977,-0.3676633834838867,-0.3645312488079071
1782774519186392300,7.268392333984375,-0.2379288673400879,-0.33112430572509766,-0.2575174570083618
1782774519196402000,7.27840185546875,-0.21033120155334473,-0.22029590606689453,-0.06211543083190918
1782774519206411800,7.288411865234375,-0.15144944190979004,-0.09022712707519531,0.0928577184677124
1782774519216391200,7.29839111328125,-0.13511967658996582,0.04445648193359375,0.1418326497077942
1782774519226401000,7.308401123046875,-0.18267369270324707,0.11890220642089844,0.08171570301055908
1782774519236410600,7.31841064453125,-0.07199716567993164,0.12129497528076172,-0.05303066968917847
1782774519246390000,7.32839013671875,0.011102914810180664,0.08574867248535156,-0.11401647329330444
1782774519256399600,7.338399658203125,0.0470883846282959,0.012408256530761719,-0.19682052731513977
1782774519266409500,7.348409423828125,0.10413432121276855,0.056471824645996094,-0.22060853242874146
1782774519276388900,7.358388916015625,0.04769730567932129,0.08802986145019531,-0.11588037014007568
1782774519286398500,7.3683984375,-0.056344032287597656,0.06833839416503906,-0.017676353454589844
1782774519296408000,7.378407958984375,-0.11764407157897949,0.01677417755126953,0.08170920610427856
1782774519306387500,7.388387451171875,-0.18334412574768066,0.029687881469726562,0.09261620044708252
1782774519316397300,7.398397216796875,-0.28266167640686035,0.023370742797851562,0.023798584938049316
1782774519326407000,7.408406982421875,-0.23880934715270996,-0.02115345001220703,-0.014940977096557617
1782774519336386300,7.41838623046875,-0.20325589179992676,-0.09875011444091797,0.020704329013824463
1782774519346396200,7.428396240234375,-0.0528564453125,-0.1801433563232422,0.008703231811523438
1782774519356405800,7.43840576171875,0.09086012840270996,-0.1722402572631836,-0.043127238750457764
1782774519366385000,7.448385009765625,0.20519566535949707,-0.1545276641845703,-0.003454744815826416
1782774519376394800,7.458394775390625,0.14899802207946777,-0.14472675323486328,0.059775590896606445
1782774519386404400,7.468404296875,0.04814910888671875,-0.19605350494384766,-0.04525655508041382
1782774519396383700,7.4783837890625,0.0092315673828125,-0.27454566955566406,-0.07390815019607544
1782774519406393600,7.4883935546875,-0.05154109001159668,-0.2547178268432617,0.009524345397949219
1782774519416403500,7.498403564453125,-0.027501344680786133,-0.21759319305419922,0.023953497409820557
1782774519426382600,7.508382568359375,-0.04745173454284668,-0.2615203857421875,0.007409989833831787
1782774519436392400,7.518392333984375,-0.08696889877319336,-0.33635997772216797,0.004627645015716553
1782774519446402300,7.52840234375,-0.06445789337158203,-0.3105125427246094,0.05871814489364624
1782774519456412000,7.538411865234375,-0.06386661529541016,-0.24375629425048828,0.10478788614273071
1782774519466331400,7.548331298828125,-0.05882859230041504,-0.19838905334472656,0.1338595747947693
1782774519476585500,7.55858544921875,-0.05167102813720703,-0.22952651977539062,0.10306674242019653
1782774519486471700,7.5684716796875,-0.03523731231689453,-0.22464656829833984,0.05819559097290039
1782774519496390000,7.578389892578125,-0.04359102249145508,-0.22905635833740234,-0.06248122453689575
1782774519506399700,7.588399658203125,0.011160612106323242,-0.26402950286865234,-0.18457341194152832
1782774519516409300,7.598409423828125,0.08333277702331543,-0.2719535827636719,-0.17986440658569336
1782774519526388700,7.608388671875,0.22835922241210938,-0.2601137161254883,-0.12082672119140625
1782774519536398600,7.618398681640625,0.3487818241119385,-0.1808481216430664,0.07061302661895752
1782774519546408200,7.628408203125,0.2170264720916748,-0.13564205169677734,0.1765994429588318
1782774519556387600,7.6383876953125,-0.01565098762512207,-0.06589889526367188,0.16987627744674683
1782774519566397200,7.648397216796875,-0.26803088188171387,-0.045833587646484375,0.13522976636886597
1782774519576406800,7.65840673828125,-0.447160005569458,-0.062300682067871094,0.09401905536651611
1782774519586386200,7.66838623046875,-0.40595316886901855,-0.07071208953857422,0.03721940517425537
1782774519596396000,7.67839599609375,-0.14715075492858887,-0.05560111999511719,-0.015788376331329346
1782774519606405600,7.688405517578125,0.17129921913146973,-0.03614616394042969,0.07147085666656494
1782774519616385000,7.698385009765625,0.312471866607666,-0.09224796295166016,0.15601027011871338
1782774519626335200,7.708335205078125,0.2315673828125,-0.1725625991821289,-0.0077822208404541016
1782774519636465700,7.718465576171875,0.08008742332458496,-0.23677539825439453,-0.2099991738796234
1782774519646383900,7.7283837890625,0.7601394653320312,-0.4597654342651367,-0.1575656533241272
1782774519656393500,7.7383935546875,0.383800745010376,-0.74786376953125,-0.8400471210479736
1782774519666403300,7.7484033203125,0.3364269733428955,-0.24971675872802734,-1.0966029167175293
1782774519676382500,7.758382568359375,-0.11269378662109375,-0.04281330108642578,-0.24074679613113403
1782774519686392300,7.768392333984375,-0.4528186321258545,0.06170940399169922,0.917358934879303
1782774519696402000,7.77840185546875,-0.8505444526672363,0.21369171142578125,1.1582788228988647
1782774519706411800,7.788411865234375,-1.025885820388794,0.28924560546875,0.6829565167427063
1782774519716391200,7.79839111328125,-1.1138503551483154,0.16276264190673828,0.1917968988418579
1782774519726401000,7.808401123046875,-1.0303528308868408,-0.006869316101074219,0.12130707502365112
1782774519736410600,7.81841064453125,-0.8416595458984375,0.0029993057250976562,0.24645787477493286
1782774519746390000,7.82839013671875,-0.6683254241943359,0.007592201232910156,0.32053250074386597
1782774519756399600,7.838399658203125,-0.39658379554748535,-0.1372241973876953,0.1647881269454956
1782774519766409500,7.848409423828125,-0.13007235527038574,-0.15343761444091797,-0.015779614448547363
1782774519776388900,7.858388916015625,0.08707308769226074,-0.2861785888671875,-0.10998722910881042
1782774519786398500,7.8683984375,0.3715853691101074,-0.5466060638427734,-0.03654509782791138
