time,seconds_elapsed,z,y,x
1782774751706302500,0.187302490234375,-1.2287120819091797,-0.1418132781982422,-0.003904104232788086
1782774751716817400,0.1978173828125,-1.430046796798706,-0.1046743392944336,-0.2938495874404907
1782774751726827300,0.2078271484375,-1.410468339920044,-0.058803558349609375,-0.660477340221405
1782774751736836900,0.2178369140625,-1.3196394443511963,0.03332042694091797,-0.6499101519584656
1782774751746816300,0.227816162109375,-1.1623632907867432,0.08803081512451172,-0.5154758095741272
1782774751756826000,0.237826171875,-1.0345687866210938,0.23449039459228516,-0.2925608158111572
1782774751766836000,0.2478359375,-1.0189824104309082,0.32282447814941406,-0.40056681632995605
1782774751776815000,0.257815185546875,-0.9998002052307129,0.3800678253173828,-0.43855953216552734
1782774751786825000,0.267824951171875,-0.9545168876647949,0.3819608688354492,-0.5203914046287537
1782774751796834800,0.277834716796875,-0.7754263877868652,0.4052734375,-0.43603599071502686
1782774751806814000,0.28781396484375,-0.16999530792236328,0.6293659210205078,0.09208714962005615
1782774751816823600,0.297823486328125,0.2166738510131836,0.8509969711303711,0.6017789840698242
1782774751826833400,0.30783349609375,0.3249850273132324,0.8555669784545898,0.46627044677734375
1782774751836812500,0.3178125,0.21574068069458008,0.6779823303222656,0.011195778846740723
1782774751846822400,0.327822509765625,0.14536142349243164,0.49021053314208984,-0.5032986402511597
1782774751856832000,0.33783203125,0.37281322479248047,0.34218788146972656,-0.7089027762413025
1782774751866811400,0.347811279296875,0.4956240653991699,0.23251056671142578,-0.6964802742004395
1782774751876821200,0.3578212890625,0.604891300201416,0.18124008178710938,-0.5094996690750122
1782774751886831000,0.3678310546875,0.6094908714294434,0.2689666748046875,-0.08152949810028076
1782774751896810200,0.377810302734375,0.46625661849975586,0.3531789779663086,0.18260407447814941
1782774751906820000,0.387820068359375,0.24596214294433594,0.33189964294433594,0.24074995517730713
1782774751916829700,0.39782958984375,-0.07533597946166992,0.2193002700805664,0.3144829273223877
1782774751926809000,0.40780908203125,-0.3609919548034668,0.1553792953491211,0.16316556930541992
1782774751936818700,0.417818603515625,-0.45545148849487305,0.12711811065673828,0.06289911270141602
1782774751946828500,0.42782861328125,-0.5715689659118652,0.021111488342285156,-0.0023887157440185547
1782774751956838100,0.437838134765625,-0.5790872573852539,-0.0764455795288086,-0.09035849571228027
1782774751966817500,0.447817626953125,-0.4868764877319336,-0.1269216537475586,-0.17606067657470703
1782774751976827400,0.457827392578125,-0.42760276794433594,-0.10862445831298828,-0.08520758152008057
1782774751986837000,0.4678369140625,-0.27691078186035156,-0.14431285858154297,-0.051131248474121094
1782774751996816400,0.47781640625,-0.04125547409057617,-0.15995121002197266,0.009266257286071777
1782774752006826200,0.487826171875,0.24723434448242188,-0.1746368408203125,0.09231936931610107
1782774752016835800,0.4978359375,0.333035945892334,-0.1581592559814453,0.15488159656524658
1782774752026815200,0.507815185546875,0.23502492904663086,-0.18364238739013672,0.05416667461395264
1782774752036824800,0.517824951171875,0.18184566497802734,-0.21378517150878906,-0.07331061363220215
1782774752046834700,0.527834716796875,0.18642950057983398,-0.2031087875366211,-0.09226393699645996
1782774752056813800,0.537813720703125,0.21868896484375,-0.22881603240966797,0.018449902534484863
1782774752066823700,0.54782373046875,0.18969392776489258,-0.2667989730834961,0.06988608837127686
1782774752076833500,0.55783349609375,0.22780752182006836,-0.26883697509765625,0.03462982177734375
1782774752086812700,0.567812744140625,0.18179607391357422,-0.29949092864990234,0.026258468627929688
1782774752096822500,0.577822509765625,0.18568658828735352,-0.30362987518310547,0.02057015895843506
1782774752106832100,0.58783203125,0.16559839248657227,-0.2909078598022461,0.10053539276123047
1782774752116811300,0.597811279296875,0.05796480178833008,-0.27613162994384766,0.21463048458099365
1782774752126821000,0.607821044921875,-0.012395381927490234,-0.18538761138916016,0.22958886623382568
1782774752136830700,0.617830810546875,0.012479782104492188,-0.14947128295898438,0.24027037620544434
1782774752146810000,0.62781005859375,0.03780841827392578,-0.1916065216064453,0.12283992767333984
1782774752156820000,0.637820068359375,0.029798030853271484,-0.36203670501708984,-0.002102375030517578
1782774752166829800,0.647829833984375,0.07006502151489258,-0.4237022399902344,-0.06854450702667236
1782774752176809000,0.65780908203125,0.20863580703735352,-0.4000816345214844,-0.018860697746276855
1782774752186818800,0.66781884765625,0.2652773857116699,-0.3782024383544922,0.05007624626159668
1782774752196828700,0.67782861328125,0.36443567276000977,-0.32914161682128906,0.22810781002044678
1782774752206838300,0.68783837890625,0.25423383712768555,-0.3020477294921875,0.34633302688598633
1782774752216817700,0.697817626953125,0.11052322387695312,-0.37939453125,0.21630454063415527
1782774752226827300,0.7078271484375,-0.02787303924560547,-0.46350765228271484,0.11691951751708984
1782774752236836900,0.7178369140625,-0.2206416130065918,-0.5352625846862793,0.07633256912231445
1782774752246816300,0.727816162109375,-0.33655643463134766,-0.40509557723999023,0.11020040512084961
1782774752256826000,0.737826171875,-0.3529515266418457,-0.26595115661621094,0.24559390544891357
1782774752266835700,0.747835693359375,-0.3696136474609375,-0.26532459259033203,0.2647773027420044
1782774752276815000,0.757815185546875,-0.3248410224914551,-0.23780059814453125,0.2834296226501465
1782774752286825000,0.767824951171875,-0.31940746307373047,-0.22865009307861328,0.2722131013870239
1782774752296834600,0.77783447265625,-0.2699098587036133,-0.2401895523071289,0.22262728214263916
1782774752306814000,0.78781396484375,-0.16745662689208984,-0.2290172576904297,0.1712806224822998
1782774752316823600,0.797823486328125,-0.02112865447998047,-0.18090438842773438,0.21051716804504395
1782774752326833200,0.807833251953125,0.16187191009521484,-0.1699810028076172,0.28478968143463135
1782774752336812500,0.8178125,0.24619770050048828,-0.1468963623046875,0.182792067527771
1782774752346822400,0.827822509765625,0.18306207656860352,-0.19419479370117188,0.049826741218566895
1782774752356832300,0.837832275390625,0.012333869934082031,-0.25794029235839844,-0.20384728908538818
1782774752366811400,0.847811279296875,-0.09343385696411133,-0.2661266326904297,-0.3143928647041321
1782774752376821200,0.8578212890625,-0.20005464553833008,-0.22487735748291016,-0.25787925720214844
1782774752386831000,0.8678310546875,-0.22045040130615234,-0.14748382568359375,-0.10248398780822754
1782774752396810200,0.877810302734375,-0.15587854385375977,-0.0403900146484375,0.05373859405517578
1782774752406819800,0.88781982421875,-0.049759864807128906,-0.01378631591796875,0.10475170612335205
1782774752416829700,0.89782958984375,-0.02626514434814453,-0.09437370300292969,0.03252828121185303
1782774752426809000,0.90780908203125,-0.0035295486450195312,-0.1939105987548828,-0.13854026794433594
1782774752436818700,0.917818603515625,-0.09091615676879883,-0.26739978790283203,-0.32685035467147827
1782774752446828500,0.92782861328125,-0.07734394073486328,-0.29100608825683594,-0.40156877040863037
1782774752456838100,0.937838134765625,0.016162872314453125,-0.21913528442382812,-0.20273327827453613
1782774752466817500,0.947817626953125,0.12988662719726562,-0.0971975326538086,0.05071687698364258
1782774752476827400,0.957827392578125,0.05931901931762695,-0.048370361328125,0.1064678430557251
1782774752486837000,0.9678369140625,-0.12098121643066406,-0.07325935363769531,-0.10940384864807129
1782774752496816400,0.97781640625,-0.34293651580810547,-0.2168407440185547,-0.37697041034698486
1782774752506826200,0.987826171875,-0.4334096908569336,-0.2531166076660156,-0.5378294587135315
1782774752516835800,0.9978359375,-0.41671323776245117,-0.20772743225097656,-0.4514992833137512
1782774752526815200,1.007815185546875,-0.3072810173034668,-0.02972412109375,-0.10068273544311523
1782774752536824800,1.017824951171875,-0.20106792449951172,0.09913444519042969,0.12132668495178223
1782774752546834400,1.02783447265625,-0.15079975128173828,0.12581348419189453,0.18846559524536133
1782774752556813800,1.037813720703125,-0.06598091125488281,0.12207889556884766,0.12468957901000977
1782774752566823700,1.04782373046875,-0.12307262420654297,0.11123466491699219,0.05592668056488037
1782774752576833300,1.057833251953125,-0.2415933609008789,0.06131744384765625,-0.1259363889694214
1782774752586812700,1.067812744140625,-0.19635009765625,0.10397624969482422,-0.20574712753295898
1782774752596822500,1.077822509765625,-0.1278829574584961,0.10878944396972656,-0.12054634094238281
1782774752606832400,1.087832275390625,-0.1195068359375,0.1153116226196289,-0.04810202121734619
1782774752616811500,1.0978115234375,0.012903213500976562,0.17874622344970703,0.052336692810058594
1782774752626821000,1.107821044921875,0.12358856201171875,0.12164306640625,0.037865638732910156
1782774752636831000,1.1178310546875,0.23038625717163086,0.012742996215820312,-0.024158954620361328
1782774752646810000,1.12781005859375,0.2925381660461426,-0.03668403625488281,0.003999948501586914
1782774752656820000,1.137820068359375,0.31925058364868164,-0.1021108627319336,-0.042789459228515625
1782774752666829800,1.147829833984375,0.3349118232727051,-0.13129806518554688,0.042394280433654785
1782774752676809000,1.15780908203125,0.16949033737182617,-0.16960906982421875,0.09363853931427002
1782774752686818800,1.16781884765625,0.0234375,-0.1785879135131836,0.050436973571777344
1782774752696828400,1.177828369140625,-0.054276466369628906,-0.1549673080444336,0.0368504524230957
1782774752706838300,1.18783837890625,-0.055521488189697266,-0.17675018310546875,0.03766608238220215
1782774752716817400,1.1978173828125,-0.020970821380615234,-0.15279006958007812,0.14257562160491943
1782774752726827300,1.2078271484375,-0.07684898376464844,-0.17920589447021484,0.2027573585510254
1782774752736837000,1.217837158203125,-0.1083369255065918,-0.2274799346923828,0.14830529689788818
1782774752746816300,1.227816162109375,-0.13517141342163086,-0.3069143295288086,0.10187399387359619
1782774752756826000,1.237826171875,-0.18094491958618164,-0.35045337677001953,0.08579611778259277
1782774752766835700,1.247835693359375,-0.2408304214477539,-0.35579538345336914,0.028746485710144043
1782774752776815000,1.257815185546875,-0.35341978073120117,-0.33974790573120117,-0.019863486289978027
1782774752786825000,1.267824951171875,-0.35212087631225586,-0.3158712387084961,-0.018303632736206055
1782774752796834800,1.277834716796875,-0.2735171318054199,-0.2884683609008789,0.008886575698852539
1782774752806813700,1.287813720703125,-0.19921541213989258,-0.3866734504699707,-0.015099883079528809
1782774752816823600,1.297823486328125,-0.22221136093139648,-0.4551839828491211,-0.03935527801513672
1782774752826833200,1.307833251953125,-0.22228527069091797,-0.4177117347717285,-0.11162328720092773
1782774752836812500,1.3178125,-0.1368265151977539,-0.36551380157470703,-0.1692650318145752
1782774752846822400,1.327822509765625,-0.10944366455078125,-0.3247203826904297,-0.03191530704498291
1782774752856832000,1.33783203125,-0.0704350471496582,-0.2522706985473633,0.19179308414459229
1782774752866811400,1.347811279296875,-0.09351587295532227,-0.19163894653320312,0.3108408451080322
1782774752876821200,1.3578212890625,-0.16402864456176758,-0.1552104949951172,0.2526731491088867
1782774752886831000,1.3678310546875,-0.21530580520629883,-0.19803905487060547,0.09533774852752686
1782774752896810200,1.377810302734375,-0.078857421875,-0.23545074462890625,-0.014838337898254395
1782774752906820000,1.387820068359375,0.022698402404785156,-0.2336139678955078,0.13288438320159912
1782774752916829700,1.39782958984375,0.27312612533569336,-0.24473190307617188,0.14278149604797363
1782774752926809000,1.40780908203125,0.3591184616088867,-0.13742637634277344,0.2669795751571655
1782774752936818700,1.417818603515625,0.3085460662841797,-0.12101459503173828,0.2355039119720459
1782774752946828300,1.427828369140625,0.1978740692138672,-0.15890979766845703,0.06735777854919434
1782774752956838100,1.437838134765625,-0.002613544464111328,-0.20418167114257812,-0.05261194705963135
1782774752966817500,1.447817626953125,-0.2157459259033203,-0.15883350372314453,-0.13526499271392822
1782774752976827400,1.457827392578125,-0.38352489471435547,-0.15563106536865234,-0.15771889686584473
1782774752986837000,1.4678369140625,-0.31066036224365234,-0.1636972427368164,-0.20876264572143555
1782774752996816400,1.47781640625,-0.1068115234375,-0.17940330505371094,-0.11873209476470947
1782774753006826200,1.487826171875,0.00798940658569336,-0.2170124053955078,0.02454531192779541
1782774753016836000,1.497836181640625,0.12621021270751953,-0.18190288543701172,0.023898720741271973
1782774753026815000,1.50781494140625,0.14115619659423828,-0.1385822296142578,0.023833870887756348
1782774753036824800,1.517824951171875,0.04432058334350586,-0.15458011627197266,0.037531256675720215
1782774753046834400,1.52783447265625,-0.09192752838134766,-0.19921207427978516,-0.08994746208190918
1782774753056813800,1.537813720703125,-0.32851457595825195,-0.1975717544555664,-0.09056675434112549
1782774753066823700,1.54782373046875,-0.5007309913635254,-0.1862802505493164,-0.2126302719116211
1782774753076833500,1.55783349609375,-0.43634986877441406,-0.19492626190185547,-0.2427668571472168
1782774753086812700,1.567812744140625,-0.19974708557128906,-0.2484445571899414,-0.22231614589691162
1782774753096822500,1.577822509765625,0.057157039642333984,-0.19194984436035156,-0.15886807441711426
1782774753106832100,1.58783203125,0.13698816299438477,-0.14969730377197266,-0.055916666984558105
1782774753116811300,1.597811279296875,0.1019287109375,-0.11616802215576172,-0.060434699058532715
1782774753126821000,1.607821044921875,-0.018733501434326172,-0.06786346435546875,-0.09519338607788086
1782774753136831000,1.6178310546875,-0.15912199020385742,-0.07098865509033203,-0.16334033012390137
1782774753146810000,1.62781005859375,-0.26272106170654297,-0.13936614990234375,-0.25737178325653076
1782774753156820000,1.637820068359375,-0.2897796630859375,-0.12633419036865234,-0.26494932174682617
1782774753166829800,1.647829833984375,-0.267453670501709,-0.09826850891113281,-0.14878809452056885
1782774753176809000,1.65780908203125,-0.15584039688110352,0.007717132568359375,-0.0008482933044433594
1782774753186818800,1.66781884765625,-0.06271123886108398,0.05511188507080078,0.20085656642913818
1782774753196828700,1.67782861328125,-0.020685672760009766,0.10065841674804688,0.29461002349853516
1782774753206838300,1.68783837890625,-0.09085416793823242,0.019008636474609375,0.20707833766937256
1782774753216817700,1.697817626953125,-0.2913527488708496,-0.09490585327148438,-0.03644251823425293
1782774753226827300,1.7078271484375,-0.42790746688842773,-0.1838092803955078,-0.25898659229278564
1782774753236836900,1.7178369140625,-0.44884777069091797,-0.1580972671508789,-0.14719021320343018
1782774753246816300,1.727816162109375,-0.3437385559082031,-0.09553813934326172,0.03365302085876465
1782774753256826000,1.737826171875,-0.19482135772705078,0.001911163330078125,0.12373840808868408
1782774753266835700,1.747835693359375,-0.09279870986938477,0.05256843566894531,0.21716463565826416
1782774753276815000,1.757815185546875,0.054708003997802734,-0.010290145874023438,0.16042065620422363
1782774753286825000,1.767824951171875,0.23126792907714844,-0.02913379669189453,0.0799027681350708
1782774753296834600,1.77783447265625,0.3524203300476074,-0.07438182830810547,-0.020189523696899414
1782774753306814000,1.78781396484375,0.3680849075317383,-0.19055747985839844,-0.12924861907958984
1782774753316823600,1.797823486328125,0.33667469024658203,-0.26824283599853516,-0.21302461624145508
1782774753326833200,1.807833251953125,0.2513852119445801,-0.23083972930908203,-0.1293550729751587
1782774753336812500,1.8178125,0.059230804443359375,-0.2527809143066406,-0.027670979499816895
1782774753346822400,1.827822509765625,-0.13482379913330078,-0.2476511001586914,0.0777895450592041
1782774753356832300,1.837832275390625,-0.2905125617980957,-0.21771907806396484,0.042073607444763184
1782774753366811400,1.847811279296875,-0.4066743850708008,-0.18143272399902344,0.08111941814422607
1782774753376821200,1.8578212890625,-0.5139827728271484,-0.24522018432617188,0.019519925117492676
1782774753386831000,1.8678310546875,-0.4465799331665039,-0.3242816925048828,-0.16618216037750244
1782774753396810200,1.877810302734375,-0.11969709396362305,-0.3123435974121094,-0.19626545906066895
1782774753406820000,1.887820068359375,0.059558868408203125,-0.32888174057006836,-0.050429463386535645
1782774753416829700,1.89782958984375,0.24591636657714844,-0.3030257225036621,-0.006201744079589844
1782774753426809000,1.90780908203125,0.3834667205810547,-0.18558692932128906,0.09768331050872803
1782774753436818700,1.917818603515625,0.4112410545349121,-0.17840003967285156,0.052451491355895996
1782774753446828500,1.92782861328125,0.28249311447143555,-0.19623374938964844,-0.0013543367385864258
1782774753456838100,1.937838134765625,0.15346050262451172,-0.1606922149658203,-0.11962997913360596
1782774753466817500,1.947817626953125,0.08014965057373047,-0.20943069458007812,-0.18470525741577148
1782774753476827400,1.957827392578125,0.010413646697998047,-0.2203531265258789,-0.03834390640258789
1782774753486837000,1.9678369140625,-0.05265045166015625,-0.16504478454589844,0.11514389514923096
1782774753496816400,1.97781640625,-0.0951681137084961,-0.14163970947265625,0.11964666843414307
1782774753506826200,1.987826171875,-0.1250457763671875,-0.1426219940185547,0.1268097162246704
1782774753516835800,1.9978359375,-0.16658592224121094,-0.1462879180908203,0.09635448455810547
1782774753526815200,2.007815185546875,-0.24645471572875977,-0.20519256591796875,-0.01899898052215576
1782774753536824800,2.017824951171875,-0.32478904724121094,-0.19675254821777344,-0.09450888633728027
1782774753546834400,2.02783447265625,-0.2539811134338379,-0.1369009017944336,-0.1275087594985962
1782774753556813800,2.037813720703125,-0.2319803237915039,-0.08336830139160156,0.12002372741699219
1782774753566823700,2.04782373046875,-0.1909337043762207,-0.010380744934082031,0.2008063793182373
1782774753576833300,2.057833251953125,-0.053089141845703125,-0.0491943359375,0.12191736698150635
1782774753586812700,2.067812744140625,0.0656290054321289,-0.1252117156982422,0.05256521701812744
1782774753596822500,2.077822509765625,0.1917262077331543,-0.19295406341552734,-0.0054656267166137695
1782774753606832400,2.087832275390625,0.1878046989440918,-0.2580747604370117,-0.15538108348846436
1782774753616811500,2.0978115234375,0.11102962493896484,-0.24037456512451172,-0.1702723503112793
1782774753626821000,2.107821044921875,0.01283121109008789,-0.1929168701171875,-0.09542286396026611
1782774753636831000,2.1178310546875,-0.09233474731445312,-0.1708383560180664,-0.04804587364196777
1782774753646810000,2.12781005859375,-0.11509323120117188,-0.14212894439697266,0.0013027191162109375
1782774753656820000,2.137820068359375,-0.12168312072753906,-0.11304187774658203,0.11519598960876465
1782774753666829800,2.147829833984375,-0.21326112747192383,-0.15999126434326172,0.03144574165344238
1782774753676809000,2.15780908203125,-0.1699385643005371,-0.19678401947021484,-0.12631464004516602
1782774753686818800,2.16781884765625,-0.03033447265625,-0.17511940002441406,-0.0770648717880249
1782774753696828400,2.177828369140625,0.05766439437866211,-0.23153209686279297,-0.06927299499511719
1782774753706838300,2.18783837890625,0.13108491897583008,-0.25179195404052734,-0.01912522315979004
1782774753716817400,2.1978173828125,0.12420988082885742,-0.21519851684570312,0.08322787284851074
1782774753726827300,2.2078271484375,0.11908245086669922,-0.1604623794555664,0.07979011535644531
1782774753736837000,2.217837158203125,0.025547027587890625,-0.21024322509765625,0.021199345588684082
1782774753746816300,2.227816162109375,-0.12495565414428711,-0.28101348876953125,-0.0656660795211792
1782774753756826000,2.237826171875,-0.27790021896362305,-0.30063819885253906,-0.11115074157714844
1782774753766835700,2.247835693359375,-0.41858386993408203,-0.3252239227294922,-0.15657711029052734
1782774753776815000,2.257815185546875,-0.40052175521850586,-0.2793750762939453,-0.17307400703430176
1782774753786825000,2.267824951171875,-0.2510080337524414,-0.18866252899169922,0.012782573699951172
1782774753796834800,2.277834716796875,-0.16109418869018555,-0.17298126220703125,0.12483727931976318
1782774753806813700,2.287813720703125,-0.10576677322387695,-0.1564950942993164,0.12804949283599854
1782774753816823600,2.297823486328125,-0.08441591262817383,-0.14684009552001953,0.13552725315093994
1782774753826833200,2.307833251953125,-0.10369873046875,-0.12293434143066406,0.15790879726409912
1782774753836812500,2.3178125,-0.12279987335205078,-0.09437084197998047,0.1325371265411377
1782774753846822400,2.327822509765625,-0.20160198211669922,-0.14487457275390625,0.09974896907806396
1782774753856832000,2.33783203125,-0.17056941986083984,-0.21452713012695312,-0.02757132053375244
1782774753866811400,2.347811279296875,-0.10748910903930664,-0.2426891326904297,-0.11578023433685303
1782774753876821200,2.3578212890625,-0.08263492584228516,-0.18803787231445312,-0.03397929668426514
1782774753886830800,2.367830810546875,-0.017506122589111328,-0.1546182632446289,-0.005249142646789551
1782774753896810200,2.377810302734375,0.0029168128967285156,-0.15503978729248047,0.06067836284637451
1782774753906820000,2.387820068359375,0.05807304382324219,-0.11049747467041016,0.20166504383087158
1782774753916829700,2.39782958984375,0.030972003936767578,-0.06907081604003906,0.2764153480529785
1782774753926809000,2.40780908203125,-0.16374874114990234,-0.08417415618896484,0.20522499084472656
1782774753936818700,2.417818603515625,-0.3468484878540039,-0.11500072479248047,0.10610246658325195
1782774753946828300,2.427828369140625,-0.36235523223876953,-0.12915802001953125,0.007649540901184082
1782774753956838100,2.437838134765625,-0.20479059219360352,-0.1327495574951172,0.024503588676452637
1782774753966817500,2.447817626953125,-0.13761425018310547,-0.1352548599243164,0.0869295597076416
1782774753976827400,2.457827392578125,-0.04847860336303711,-0.19424819946289062,-0.0859377384185791
1782774753986837200,2.467837158203125,0.01332712173461914,-0.19771099090576172,-0.13805842399597168
1782774753996816400,2.47781640625,-0.04392671585083008,-0.22302532196044922,-0.13577783107757568
1782774754006826200,2.487826171875,-0.1639704704284668,-0.19424724578857422,-0.10112452507019043
1782774754016835800,2.4978359375,-0.28922176361083984,-0.13529300689697266,-0.025247812271118164
1782774754026815000,2.50781494140625,-0.36994075775146484,-0.11290359497070312,0.022652387619018555
1782774754036824800,2.517824951171875,-0.4214973449707031,-0.040472984313964844,0.015312910079956055
1782774754046834400,2.52783447265625,-0.33090877532958984,-0.05333137512207031,0.015308141708374023
1782774754056813800,2.537813720703125,-0.08331060409545898,0.007578849792480469,0.0569227933883667
1782774754066823700,2.54782373046875,0.10620737075805664,0.0009317398071289062,0.12225842475891113
1782774754076833300,2.557833251953125,0.23253726959228516,-0.03397083282470703,-0.010402798652648926
1782774754086812700,2.567812744140625,0.2957291603088379,-0.057969093322753906,-0.06774508953094482
1782774754096822500,2.577822509765625,0.3155083656311035,-0.13595867156982422,-0.13194966316223145
1782774754106832400,2.587832275390625,0.1647205352783203,-0.16479778289794922,-0.1289680004119873
1782774754116811300,2.597811279296875,-0.0453333854675293,-0.1786956787109375,-0.14760136604309082
1782774754126821000,2.607821044921875,-0.21640539169311523,-0.1488666534423828,-0.0664815902709961
1782774754136830700,2.617830810546875,-0.41397523880004883,-0.11539745330810547,0.09216511249542236
1782774754146810000,2.62781005859375,-0.4439573287963867,-0.05547523498535156,0.11838686466217041
1782774754156820000,2.637820068359375,-0.37690019607543945,0.009868621826171875,0.1115415096282959
1782774754166829800,2.647829833984375,-0.1323528289794922,0.018964767456054688,0.10267424583435059
1782774754176809000,2.65780908203125,-0.02148723602294922,-0.06412506103515625,0.16104280948638916
1782774754186818800,2.66781884765625,-0.00930643081665039,-0.1063232421875,0.009631633758544922
1782774754196828700,2.67782861328125,0.015369892120361328,-0.14901256561279297,-0.07588481903076172
1782774754206838300,2.68783837890625,0.00008821487426757812,-0.14433670043945312,-0.038765549659729004
1782774754216817400,2.6978173828125,-0.007241249084472656,-0.15196895599365234,0.06687688827514648
1782774754226827300,2.7078271484375,-0.08546018600463867,-0.138427734375,0.12090635299682617
1782774754236836900,2.7178369140625,-0.22706079483032227,-0.15916824340820312,0.10796749591827393
1782774754246816300,2.727816162109375,-0.2460641860961914,-0.13234233856201172,0.11198604106903076
1782774754256826000,2.737826171875,-0.25383806228637695,-0.1696605682373047,0.15158939361572266
1782774754266835700,2.747835693359375,-0.2650885581970215,-0.22787189483642578,0.12415921688079834
1782774754276815000,2.757815185546875,-0.27454090118408203,-0.2714204788208008,-0.005774021148681641
1782774754286825000,2.767824951171875,-0.2677922248840332,-0.29799652099609375,-0.11086499691009521
1782774754296834600,2.77783447265625,-0.26708316802978516,-0.31916046142578125,-0.17676305770874023
1782774754306754300,2.78775439453125,-0.1844024658203125,-0.3632631301879883,-0.3186553716659546
1782774754316884500,2.797884521484375,0.00914764404296875,-0.30095386505126953,-0.23365074396133423
1782774754326773500,2.8077734375,0.06592321395874023,-0.26701831817626953,-0.08049166202545166
1782774754336844500,2.817844482421875,0.018461227416992188,-0.2288818359375,-0.045150041580200195
1782774754346883300,2.82788330078125,-0.10346746444702148,-0.14408493041992188,-0.03417253494262695
1782774754356832300,2.837832275390625,-0.16153526306152344,-0.108123779296875,-0.07349622249603271
1782774754366811400,2.847811279296875,-0.19780921936035156,-0.15129661560058594,-0.07465624809265137
1782774754376821200,2.8578212890625,-0.26789283752441406,-0.17988300323486328,-0.12642443180084229
1782774754386831000,2.8678310546875,-0.29547691345214844,-0.17946434020996094,-0.19674992561340332
1782774754396810200,2.877810302734375,-0.20898008346557617,-0.08991241455078125,-0.14291393756866455
1782774754406820000,2.887820068359375,-0.06631946563720703,-0.0808401107788086,-0.020759224891662598
1782774754416829700,2.89782958984375,0.18485021591186523,-0.08992671966552734,0.03174936771392822
1782774754426809000,2.90780908203125,0.2075815200805664,-0.12729454040527344,-0.04643881320953369
1782774754436818700,2.917818603515625,0.3520679473876953,-0.17450904846191406,-0.2696889042854309
1782774754446828500,2.92782861328125,0.38454723358154297,-0.2127361297607422,-0.31374025344848633
1782774754456838100,2.937838134765625,0.29767704010009766,-0.19972705841064453,-0.1915987730026245
1782774754466817500,2.947817626953125,0.12956476211547852,-0.12955570220947266,-0.09030592441558838
1782774754476827400,2.957827392578125,-0.10030174255371094,-0.05022907257080078,0.039978742599487305
1782774754486747000,2.967746826171875,-0.3888278007507324,-0.04461097717285156,0.07305443286895752
1782774754496908000,2.977907958984375,-0.578615665435791,0.006220817565917969,0.08920955657958984
1782774754506766300,2.987766357421875,-0.5861515998840332,0.034366607666015625,0.13655412197113037
1782774754516896800,2.997896728515625,-0.6058225631713867,-0.019712448120117188,0.11884760856628418
1782774754526755300,3.00775537109375,-0.5011920928955078,-0.11545658111572266,0.034774184226989746
1782774754536886000,3.017885986328125,-0.39340829849243164,-0.17560863494873047,-0.033034682273864746
1782774754546834400,3.02783447265625,-0.16481637954711914,-0.22300148010253906,-0.21094286441802979
1782774754556754200,3.037754150390625,0.003983020782470703,-0.2846536636352539,-0.2770112156867981
1782774754566825000,3.047824951171875,0.10666513442993164,-0.3141212463378906,-0.2487228512763977
1782774754576894500,3.05789453125,0.117889404296875,-0.2510385513305664,-0.1889476776123047
1782774754586812700,3.067812744140625,0.1808943748474121,-0.12452030181884766,-0.13587415218353271
1782774754596822500,3.077822509765625,0.2614316940307617,-0.008482933044433594,-0.017157316207885742
1782774754606832400,3.087832275390625,0.20662593841552734,0.028533935546875,0.04189157485961914
1782774754616811500,3.0978115234375,0.022513389587402344,0.060599327087402344,-0.00366818904876709
1782774754626821000,3.107821044921875,-0.13531064987182617,0.05644798278808594,-0.028229594230651855
1782774754636831000,3.1178310546875,-0.22626638412475586,0.015195846557617188,0.006257891654968262
1782774754646810000,3.12781005859375,-0.30107975006103516,-0.007944107055664062,0.014484405517578125
1782774754656820000,3.137820068359375,-0.30692481994628906,-0.09241294860839844,-0.11593270301818848
1782774754666829800,3.147829833984375,-0.10854339599609375,-0.08374691009521484,-0.10343015193939209
1782774754676809000,3.15780908203125,0.10665321350097656,-0.044396400451660156,-0.02782881259918213
1782774754686818800,3.16781884765625,0.1849989891052246,-0.1036520004272461,-0.0001653432846069336
1782774754696828700,3.17782861328125,0.07866668701171875,-0.17119979858398438,-0.05939602851867676
1782774754706778600,3.187778564453125,-0.13443517684936523,-0.22868633270263672,-0.15729498863220215
1782774754716909000,3.197908935546875,-0.14112377166748047,-0.2710113525390625,-0.10744011402130127
1782774754726827300,3.2078271484375,-0.19073772430419922,-0.28689098358154297,-0.05673527717590332
1782774754736836900,3.2178369140625,-0.2480177879333496,-0.3096199035644531,-0.12372899055480957
1782774754746816300,3.227816162109375,-0.2439284324645996,-0.3150959014892578,-0.12113988399505615
1782774754756826000,3.237826171875,-0.13545656204223633,-0.15464210510253906,0.09327101707458496
1782774754766835700,3.247835693359375,-0.04380655288696289,-0.04425334930419922,0.26570403575897217
1782774754776815000,3.257815185546875,-0.08299970626831055,-0.046929359436035156,0.21106958389282227
1782774754786825000,3.267824951171875,-0.06696891784667969,-0.02832794189453125,0.16015362739562988
1782774754796834600,3.27783447265625,-0.049755096435546875,-0.09784507751464844,0.06787383556365967
1782774754806814000,3.28781396484375,-0.03168821334838867,-0.2361593246459961,-0.03208804130554199
1782774754816823600,3.297823486328125,-0.0525355339050293,-0.2329244613647461,-0.05978047847747803
1782774754826833400,3.30783349609375,-0.03686094284057617,-0.20840835571289062,-0.028248310089111328
1782774754836812500,3.3178125,0.023027420043945312,-0.15567302703857422,0.07410013675689697
1782774754846822400,3.327822509765625,0.050637245178222656,-0.1608905792236328,0.13169705867767334
1782774754856832300,3.337832275390625,0.005496501922607422,-0.1644611358642578,0.1334611177444458
1782774754866811400,3.347811279296875,-0.11981868743896484,-0.1376333236694336,0.13771867752075195
1782774754876821200,3.3578212890625,-0.2396841049194336,-0.04420661926269531,0.156782865524292
1782774754886831000,3.3678310546875,-0.35245370864868164,-0.03212165832519531,0.17339611053466797
1782774754896810200,3.377810302734375,-0.29386329650878906,-0.07927703857421875,0.1563587188720703
1782774754906820000,3.387820068359375,-0.13395071029663086,-0.09917831420898438,0.09399712085723877
1782774754916829700,3.39782958984375,-0.1237640380859375,-0.1470355987548828,0.10323822498321533
1782774754926809000,3.40780908203125,-0.0874471664428711,-0.07273578643798828,0.06509983539581299
1782774754936818700,3.417818603515625,-0.11069059371948242,0.01575756072998047,0.11554861068725586
1782774754946828300,3.427828369140625,-0.1452794075012207,0.02742481231689453,0.16492855548858643
1782774754956838100,3.437838134765625,-0.1296100616455078,0.017609596252441406,0.21394681930541992
1782774754966817500,3.447817626953125,-0.1081690788269043,0.013284683227539062,0.2015136480331421
1782774754976827400,3.457827392578125,-0.12980890274047852,-0.0402984619140625,0.062310099601745605
1782774754986837200,3.467837158203125,-0.11519861221313477,-0.04762554168701172,-0.049947142601013184
1782774754996816400,3.47781640625,-0.044446468353271484,-0.06154918670654297,-0.06993412971496582
1782774755006826200,3.487826171875,0.02376413345336914,-0.13751983642578125,-0.06437420845031738
1782774755016835800,3.4978359375,0.0616765022277832,-0.16833877563476562,-0.04540860652923584
1782774755026815200,3.507815185546875,0.11046886444091797,-0.18062973022460938,0.01572597026824951
1782774755036824800,3.517824951171875,0.10486459732055664,-0.17657852172851562,0.04596114158630371
1782774755046834400,3.52783447265625,-0.010204792022705078,-0.22570133209228516,-0.018747448921203613
1782774755056813800,3.537813720703125,-0.195953369140625,-0.31156063079833984,-0.14458608627319336
1782774755066764000,3.547763916015625,-0.35415220260620117,-0.3359031677246094,-0.16009140014648438
1782774755077630700,3.558630615234375,-0.4019026756286621,-0.32435035705566406,-0.2510092854499817
1782774755096822500,3.577822509765625,-0.2763967514038086,-0.3316631317138672,-0.07427287101745605
1782774755106832100,3.58783203125,-0.10271310806274414,-0.2154865264892578,0.02949357032775879
1782774755116811500,3.5978115234375,-0.030387401580810547,-0.20753002166748047,0.02287578582763672
1782774755126821000,3.607821044921875,-0.14138507843017578,-0.2827157974243164,-0.16456329822540283
1782774755136771300,3.617771240234375,-0.16992521286010742,-0.3454446792602539,-0.4119364023208618
1782774755146842000,3.627842041015625,-0.26219797134399414,-0.3859386444091797,-0.5596286058425903
1782774755157827800,3.638827880859375,-0.17922258377075195,-0.2936716079711914,-0.491205632686615
1782774755176809000,3.65780908203125,0.09287786483764648,-0.048636436462402344,0.03704726696014404
1782774755186818800,3.66781884765625,0.3754110336303711,0.11847496032714844,0.2697620391845703
1782774755196828700,3.67782861328125,0.6140322685241699,0.19759178161621094,0.4042325019836426
1782774755206778600,3.687778564453125,0.6575417518615723,0.1894207000732422,0.3838447332382202
1782774755216909000,3.697908935546875,0.6167426109313965,0.07178783416748047,0.17644131183624268
1782774755226767600,3.707767578125,0.5023131370544434,-0.05793571472167969,-0.19577491283416748
1782774755236838400,3.71783837890625,0.28920984268188477,-0.2051401138305664,-0.4613545536994934
1782774755246908000,3.727907958984375,0.14204645156860352,-0.2710103988647461,-0.521918773651123
1782774755256826000,3.737826171875,0.040909767150878906,-0.22356319427490234,-0.30788135528564453
1782774755266835700,3.747835693359375,0.041910648345947266,-0.07263660430908203,0.03593909740447998
1782774755276815000,3.757815185546875,-0.008221149444580078,0.028350830078125,0.3531094789505005
1782774755286825000,3.767824951171875,-0.07674884796142578,0.012467384338378906,0.38310813903808594
1782774755296834600,3.77783447265625,-0.29823780059814453,-0.1202535629272461,0.22372853755950928
1782774755306814000,3.78781396484375,-0.5803422927856445,-0.18972015380859375,0.03627467155456543
1782774755316823600,3.797823486328125,-0.7545404434204102,-0.26407527923583984,-0.1498931646347046
1782774755326833400,3.80783349609375,-0.8205142021179199,-0.2750692367553711,-0.16324031352996826
1782774755336753000,3.8177529296875,-0.736717700958252,-0.2848672866821289,-0.12571227550506592
1782774755346823700,3.82782373046875,-0.5520353317260742,-0.2868690490722656,-0.041481733322143555
1782774755357750800,3.838750732421875,-0.28694963455200195,-0.23420143127441406,0.05650007724761963
1782774755376821200,3.8578212890625,-0.0006256103515625,-0.19632816314697266,0.2598618268966675
1782774755386758000,3.8677578125,0.022446155548095703,-0.10367202758789062,0.31986069679260254
1782774755397297400,3.87829736328125,0.009907722473144531,-0.10099315643310547,0.29065966606140137
1782774755416891000,3.897890869140625,-0.18775081634521484,-0.27729129791259766,-0.08937203884124756
1782774755426749200,3.907749267578125,-0.21219825744628906,-0.3114337921142578,-0.1934828758239746
1782774755436850400,3.917850341796875,-0.11182641983032227,-0.20783042907714844,-0.09215700626373291
1782774755446860300,3.9278603515625,0.1537485122680664,-0.1289234161376953,0.09125614166259766
1782774755456899300,3.9378994140625,0.29297447204589844,-0.1586446762084961,0.26689469814300537
1782774755466817500,3.947817626953125,0.2740306854248047,-0.1281728744506836,0.287564754486084
1782774755476827400,3.957827392578125,0.1205601692199707,-0.1445636749267578,0.12556374073028564
1782774755486777300,3.96777734375,-0.09215545654296875,-0.23731517791748047,-0.08398890495300293
1782774755496908000,3.977907958984375,-0.2376260757446289,-0.3413963317871094,-0.21527016162872314
1782774755506826200,3.987826171875,-0.2577638626098633,-0.3549976348876953,-0.22908318042755127
1782774755516835800,3.9978359375,-0.1746664047241211,-0.32413196563720703,-0.20317232608795166
1782774755526815200,4.007815185546875,0.036930084228515625,-0.24578857421875,-0.06334245204925537
1782774755536824800,4.017824951171875,0.1593766212463379,-0.21109676361083984,0.022969841957092285
1782774755546834400,4.02783447265625,0.21557140350341797,-0.18498897552490234,0.041838884353637695
1782774755556813800,4.037813720703125,0.1911177635192871,-0.1569662094116211,0.06820559501647949
1782774755566823700,4.04782373046875,0.04290056228637695,-0.1368846893310547,0.0869603157043457
1782774755576833300,4.057833251953125,-0.08251428604125977,-0.1500539779663086,0.022013545036315918
1782774755586812700,4.067812744140625,-0.21860933303833008,-0.18806743621826172,-0.09927880764007568
1782774755597683700,4.07868359375,-0.321988582611084,-0.21387958526611328,-0.20209407806396484
1782774755616811500,4.0978115234375,-0.2444772720336914,-0.39553070068359375,-0.4378122091293335
1782774755626821000,4.107821044921875,-0.2013401985168457,-0.3409433364868164,-0.33880341053009033
1782774755636831000,4.1178310546875,0.056369781494140625,-0.18258094787597656,-0.17970311641693115
1782774755646810000,4.12781005859375,0.4034552574157715,-0.07076835632324219,0.16324543952941895
1782774755656760300,4.13776025390625,0.6125087738037109,-0.005715370178222656,0.42563366889953613
1782774755666890800,4.147890869140625,0.5471606254577637,-0.02275371551513672,0.3060159683227539
1782774755676809000,4.15780908203125,0.4583749771118164,-0.1090841293334961,-0.034560441970825195
1782774755686818800,4.16781884765625,0.39250802993774414,-0.2493419647216797,-0.3095787763595581
1782774755696828400,4.177828369140625,0.2226724624633789,-0.33333396911621094,-0.4955316185951233
1782774755706585000,4.187585205078125,0.06729698181152344,-0.33980369567871094,-0.4895043969154358
1782774755716817400,4.1978173828125,0.05266237258911133,-0.2489480972290039,-0.33672231435775757
1782774755726827300,4.2078271484375,-0.0018024444580078125,-0.13889408111572266,0.00831139087677002
1782774755736836900,4.2178369140625,-0.02404499053955078,-0.049083709716796875,0.3062387704849243
1782774755746816300,4.227816162109375,-0.07594919204711914,0.03779411315917969,0.4802665710449219
1782774755756826000,4.237826171875,-0.187347412109375,-0.007395744323730469,0.3686879873275757
1782774755766836000,4.2478359375,-0.2895331382751465,-0.11504459381103516,0.20297253131866455
1782774755776815000,4.257815185546875,-0.37088489532470703,-0.18438053131103516,0.08113968372344971
1782774755786825000,4.267824951171875,-0.22214555740356445,-0.2766447067260742,-0.08693408966064453
1782774755796834600,4.27783447265625,0.2424168586730957,-0.14953899383544922,-0.022877812385559082
1782774755806813700,4.287813720703125,0.5084466934204102,-0.039931297302246094,0.2201828956604004
1782774755816823600,4.297823486328125,0.5735964775085449,-0.02927684783935547,0.2407233715057373
1782774755826833400,4.30783349609375,0.32598114013671875,-0.1855602264404297,0.06296086311340332
1782774755836812500,4.3178125,-0.17326927185058594,-0.3506612777709961,-0.19077813625335693
1782774755846822400,4.327822509765625,-0.6765904426574707,-0.4592876434326172,-0.29706674814224243
1782774755856832300,4.337832275390625,-0.9889929294586182,-0.6928420066833496,0.10775268077850342
1782774755866811400,4.347811279296875,-0.9449498653411865,0.01079559326171875,-1.427391529083252
1782774755876821200,4.3578212890625,-1.0863966941833496,-0.14791202545166016,-0.4971674680709839
1782774755886831000,4.3678310546875,-1.1314301490783691,-0.3157472610473633,0.6046773195266724
1782774755896810200,4.377810302734375,-0.8358795642852783,-0.17738914489746094,0.4153618812561035
1782774755906820000,4.387820068359375,-0.6386337280273438,-0.03351879119873047,0.08020782470703125
1782774755916829700,4.39782958984375,-0.6008825302124023,-0.12787628173828125,-0.09340310096740723
1782774755926809000,4.40780908203125,-0.39872169494628906,-0.206787109375,-0.24817049503326416
1782774755936818700,4.417818603515625,-0.03145170211791992,-0.1778411865234375,-0.25649118423461914
1782774755946828500,4.42782861328125,0.24848461151123047,-0.07120990753173828,0.01727008819580078
1782774755956838100,4.437838134765625,0.5303478240966797,0.0014333724975585938,0.2470262050628662
1782774755966817500,4.447817626953125,0.6563482284545898,-0.011882781982421875,0.2624509334564209
1782774755976827400,4.457827392578125,0.5871696472167969,-0.04283428192138672,0.12575018405914307
1782774755986837000,4.4678369140625,0.3189811706542969,-0.021577835083007812,-0.015746116638183594
1782774755996816400,4.47781640625,0.05806779861450195,-0.06055164337158203,-0.17029833793640137
1782774756006826200,4.487826171875,-0.05240297317504883,-0.04553413391113281,-0.18822598457336426
1782774756016835800,4.4978359375,-0.04324483871459961,-0.06148242950439453,-0.14224910736083984
1782774756026815200,4.507815185546875,-0.08703994750976562,-0.04362010955810547,-0.034981369972229004
1782774756036824800,4.517824951171875,-0.24312496185302734,-0.13834381103515625,-0.004738807678222656
1782774756046834400,4.52783447265625,-0.3398599624633789,-0.13228607177734375,-0.06035459041595459
1782774756056754200,4.537754150390625,-0.28575611114501953,-0.07368087768554688,-0.0025309324264526367
1782774756066825000,4.547824951171875,-0.15362787246704102,-0.011866569519042969,0.16334223747253418
1782774756077857300,4.558857177734375,0.007771492004394531,-0.015593528747558594,0.22014963626861572
1782774756096822500,4.577822509765625,0.14445829391479492,-0.1396951675415039,-0.16489553451538086
1782774756106772500,4.5877724609375,0.20842504501342773,-0.1642932891845703,-0.2383972406387329
1782774756116903200,4.597903076171875,0.27759599685668945,-0.048073768615722656,-0.17294907569885254
1782774756126821000,4.607821044921875,0.2344188690185547,0.050696372985839844,0.06028759479522705
1782774756136831000,4.6178310546875,-0.0006480216979980469,0.04705619812011719,0.07382988929748535
1782774756146750500,4.62775048828125,-0.24530458450317383,-0.01065826416015625,0.00789499282836914
1782774756157742800,4.638742919921875,-0.5519123077392578,-0.06255817413330078,-0.026955366134643555
1782774756176809000,4.65780908203125,-0.481381893157959,0.0025339126586914062,0.027234315872192383
1782774756186818800,4.66781884765625,-0.40069055557250977,0.01886463165283203,0.1110069751739502
1782774756196828400,4.677828369140625,-0.38291072845458984,-0.04967498779296875,0.05066061019897461
1782774756206838300,4.68783837890625,-0.34626245498657227,-0.20807933807373047,-0.14413046836853027
1782774756216817700,4.697817626953125,-0.33945560455322266,-0.29654407501220703,-0.17798852920532227
1782774756226827300,4.7078271484375,-0.7805302143096924,-0.21008777618408203,1.0135774612426758
1782774756236836900,4.7178369140625,0.22341156005859375,-0.42287540435791016,-0.4935677647590637
1782774756246816300,4.727816162109375,-0.2053055763244629,-0.13721561431884766,-0.4562665820121765
1782774756256826000,4.737826171875,-0.4979376792907715,-0.26680469512939453,0.11037135124206543
1782774756266776000,4.747776123046875,-0.22531795501708984,-0.34514904022216797,-0.08085060119628906
1782774756277820000,4.75881982421875,-0.14891338348388672,-0.2785196304321289,-0.2995777130126953
1782774756296834600,4.77783447265625,0.14115238189697266,-0.11700248718261719,0.12819385528564453
1782774756306814000,4.78781396484375,0.29349756240844727,-0.14350128173828125,0.10695624351501465
1782774756316823600,4.797823486328125,0.24935531616210938,-0.2562255859375,0.01487123966217041
1782774756326833400,4.80783349609375,0.09947776794433594,-0.29607200622558594,-0.12257611751556396
1782774756336753000,4.8177529296875,-0.019281864166259766,-0.23430156707763672,-0.20876842737197876
1782774756346883300,4.82788330078125,-0.13306856155395508,-0.1353435516357422,-0.06903517246246338
1782774756356832300,4.837832275390625,-0.2493295669555664,-0.1306447982788086,0.01810896396636963
1782774756366811400,4.847811279296875,-0.27146482467651367,-0.13087940216064453,0.009989500045776367
1782774756376761600,4.85776171875,-0.3252110481262207,-0.1738910675048828,-0.058498382568359375
1782774756386892000,4.86789208984375,-0.37099170684814453,-0.25923919677734375,-0.24857789278030396
1782774756396810200,4.877810302734375,-0.3135800361633301,-0.27666187286376953,-0.4249463677406311
1782774756406820000,4.887820068359375,-0.16049575805664062,-0.27135562896728516,-0.4210108518600464
1782774756416829700,4.89782958984375,0.09494829177856445,-0.1970376968383789,-0.178908109664917
1782774756426749200,4.907749267578125,0.2741203308105469,-0.09375286102294922,0.047873854637145996
1782774756436850400,4.917850341796875,0.34609460830688477,0.032235145568847656,0.21988356113433838
1782774756446829800,4.927829833984375,0.16472196578979492,0.11496353149414062,0.3621954917907715
1782774756456899300,4.9378994140625,-0.1232309341430664,0.12509727478027344,0.1344679594039917
1782774756466817500,4.947817626953125,-0.26139163970947266,0.070892333984375,-0.046185851097106934
1782774756476827400,4.957827392578125,-0.38275718688964844,-0.09111976623535156,-0.20229387283325195
1782774756486837000,4.9678369140625,-0.32930803298950195,-0.17794322967529297,-0.32769548892974854
1782774756496816400,4.97781640625,-0.10799121856689453,-0.11172008514404297,-0.20346057415008545
1782774756506826200,4.987826171875,-0.038150787353515625,-0.022291183471679688,0.046658992767333984
1782774756516835800,4.9978359375,-0.10720682144165039,-0.042931556701660156,0.10726094245910645
1782774756526815200,5.007815185546875,-0.2677736282348633,-0.13881301879882812,-0.037330031394958496
1782774756536765200,5.01776513671875,-0.378781795501709,-0.12789630889892578,-0.10207653045654297
1782774756546895600,5.0278955078125,-0.4601325988769531,-0.13661575317382812,-0.13786786794662476
1782774756556754200,5.037754150390625,-0.4605998992919922,-0.11397933959960938,-0.16381031274795532
1782774756566884600,5.047884521484375,-0.27425670623779297,-0.0829610824584961,-0.07264697551727295
1782774756576833300,5.057833251953125,-0.17215919494628906,-0.01681995391845703,0.13910162448883057
1782774756586753000,5.0677529296875,-0.15528631210327148,-0.009863853454589844,0.061493635177612305
1782774756597758700,5.0787587890625,-0.11757946014404297,-0.07222366333007812,-0.09310758113861084
1782774756616811300,5.097811279296875,-0.06975650787353516,-0.17148590087890625,-0.27521777153015137
1782774756626821000,5.107821044921875,-0.017418861389160156,-0.15639495849609375,-0.24830740690231323
1782774756636831000,5.1178310546875,0.07097816467285156,-0.13408851623535156,-0.19830632209777832
1782774756646810000,5.12781005859375,0.07577133178710938,-0.20521068572998047,-0.26835763454437256
1782774756656820000,5.137820068359375,0.026140689849853516,-0.2696113586425781,-0.37787675857543945
1782774756666829800,5.147829833984375,0.01083230972290039,-0.28179359436035156,-0.33610349893569946
1782774756676749300,5.157749267578125,-0.05351591110229492,-0.21061325073242188,-0.2264682650566101
1782774756686910200,5.16791015625,-0.08266448974609375,-0.11123847961425781,-0.05481445789337158
1782774756696828400,5.177828369140625,-0.0935053825378418,0.02837085723876953,0.11656558513641357
1782774756706838300,5.18783837890625,-0.14233016967773438,0.017061233520507812,0.10775268077850342
1782774756716817400,5.1978173828125,-0.22260284423828125,0.027342796325683594,0.12390446662902832
1782774756726827300,5.2078271484375,-0.30622100830078125,-0.07944488525390625,-0.05667984485626221
1782774756736836900,5.2178369140625,-0.32124948501586914,-0.09986495971679688,-0.18007153272628784
1782774756746816300,5.227816162109375,-0.29697179794311523,-0.21550655364990234,-0.22794479131698608
1782774756756826000,5.237826171875,-0.19130373001098633,-0.2533445358276367,-0.17753583192825317
1782774756766835700,5.247835693359375,0.033457279205322266,-0.16978836059570312,0.014965057373046875
1782774756776815000,5.257815185546875,0.14824438095092773,-0.10169696807861328,0.18201124668121338
1782774756786825000,5.267824951171875,0.1482243537902832,-0.14380359649658203,0.10735958814620972
1782774756796834600,5.27783447265625,0.07524871826171875,-0.2680988311767578,-0.05926257371902466
1782774756806813700,5.287813720703125,0.022658348083496094,-0.3620281219482422,-0.29881739616394043
1782774756816823600,5.297823486328125,0.01592874526977539,-0.3773164749145508,-0.39543813467025757
1782774756826833400,5.30783349609375,0.14722871780395508,-0.2580862045288086,-0.21207654476165771
1782774756836812500,5.3178125,0.2823314666748047,-0.10211658477783203,0.028223037719726562
1782774756846822400,5.327822509765625,0.40078020095825195,-0.06574058532714844,0.21678578853607178
1782774756856832300,5.337832275390625,0.28357553482055664,-0.1234273910522461,0.21616864204406738
1782774756866811400,5.347811279296875,0.04754924774169922,-0.20209598541259766,0.00881505012512207
1782774756876821200,5.3578212890625,-0.1584186553955078,-0.2086029052734375,-0.14428502321243286
1782774756886831000,5.3678310546875,-0.2786836624145508,-0.2136240005493164,-0.15421819686889648
1782774756896810200,5.377810302734375,-0.3059415817260742,-0.2662515640258789,-0.09789645671844482
1782774756906820000,5.387820068359375,-0.3276243209838867,-0.2725057601928711,-0.04701268672943115
1782774756916829700,5.39782958984375,-0.32729053497314453,-0.2682056427001953,-0.04166442155838013
1782774756926809000,5.40780908203125,-0.35224390029907227,-0.3111095428466797,-0.12968409061431885
1782774756936818700,5.417818603515625,-0.33423566818237305,-0.3299541473388672,-0.18462461233139038
1782774756946828500,5.42782861328125,-0.24885320663452148,-0.2338733673095703,-0.07838934659957886
1782774756956838100,5.437838134765625,-0.1606893539428711,-0.1353321075439453,0.06371164321899414
1782774756966817500,5.447817626953125,-0.10972785949707031,-0.08031272888183594,0.1064225435256958
1782774756976827400,5.457827392578125,-0.16733407974243164,-0.0836038589477539,-0.032253921031951904
1782774756986837000,5.4678369140625,-0.1767435073852539,-0.15669918060302734,-0.2719017267227173
1782774756996816400,5.47781640625,-0.052724361419677734,-0.14813709259033203,-0.23312681913375854
1782774757006826200,5.487826171875,0.03980398178100586,-0.03862285614013672,-0.02393418550491333
1782774757016835800,5.4978359375,-0.09122467041015625,0.048828125,0.13518768548965454
1782774757026815200,5.507815185546875,-0.2585325241088867,0.04193401336669922,0.11669915914535522
1782774757036824800,5.517824951171875,-0.25333642959594727,0.1402416229248047,0.2259005308151245
1782774757046834400,5.52783447265625,-0.1547698974609375,0.14148902893066406,0.20679551362991333
1782774757056813800,5.537813720703125,-0.068878173828125,0.03626728057861328,0.04662919044494629
1782774757066823700,5.54782373046875,-0.018367290496826172,-0.09219551086425781,-0.109011709690094
1782774757076833300,5.557833251953125,0.1129140853881836,-0.158203125,-0.19416582584381104
1782774757086812700,5.567812744140625,0.1490931510925293,-0.14301681518554688,-0.12724089622497559
1782774757096822500,5.577822509765625,0.14130592346191406,-0.1260538101196289,-0.09038972854614258
1782774757106832400,5.587832275390625,0.16135215759277344,-0.10977554321289062,-0.10206949710845947
1782774757116811500,5.5978115234375,0.11096572875976562,-0.11330032348632812,0.02226853370666504
1782774757126821000,5.607821044921875,-0.0291290283203125,-0.13893699645996094,0.0884699821472168
1782774757136831000,5.6178310546875,-0.15837764739990234,-0.09581470489501953,-0.0006077885627746582
1782774757146810000,5.62781005859375,-0.25539445877075195,-0.07486438751220703,0.04509294033050537
1782774757156820000,5.637820068359375,-0.29992055892944336,-0.14237499237060547,0.01388847827911377
1782774757166829800,5.647829833984375,-0.24767351150512695,-0.1349964141845703,-0.026618242263793945
1782774757176809000,5.65780908203125,-0.17367839813232422,-0.22236251831054688,-0.13350045680999756
1782774757186818800,5.66781884765625,-0.058872222900390625,-0.23679447174072266,-0.1586737036705017
1782774757196828700,5.67782861328125,0.10034608840942383,-0.15726661682128906,-0.04065662622451782
1782774757206838300,5.68783837890625,0.15198850631713867,-0.09920501708984375,0.1045718789100647
1782774757216817400,5.6978173828125,0.044703006744384766,-0.07532787322998047,0.13180357217788696
1782774757226827300,5.7078271484375,-0.0675511360168457,-0.038234710693359375,0.07807660102844238
1782774757236837000,5.717837158203125,-0.19973182678222656,-0.12653827667236328,-0.05143481492996216
1782774757246816300,5.727816162109375,-0.3389163017272949,-0.24853038787841797,-0.17058700323104858
1782774757256826000,5.737826171875,-0.334197998046875,-0.34801673889160156,-0.39168649911880493
1782774757266836000,5.7478359375,-0.1927189826965332,-0.3914003372192383,-0.4211456775665283
1782774757276815000,5.757815185546875,-0.0792074203491211,-0.3738374710083008,-0.20184242725372314
1782774757286825000,5.767824951171875,0.029804706573486328,-0.3082103729248047,-0.08128237724304199
1782774757296834600,5.77783447265625,0.0847320556640625,-0.29079532623291016,-0.038796305656433105
1782774757306814000,5.78781396484375,0.08131170272827148,-0.2309255599975586,0.1511768102645874
1782774757316823600,5.797823486328125,-0.011891365051269531,-0.1764669418334961,0.17866575717926025
1782774757326833400,5.80783349609375,0.02767801284790039,-0.0747833251953125,0.18567025661468506
1782774757336812500,5.8178125,0.01545095443725586,-0.09567070007324219,0.2361304759979248
1782774757346822400,5.827822509765625,-0.06800317764282227,-0.17435836791992188,0.24393153190612793
1782774757356832000,5.83783203125,-0.2436208724975586,-0.18201065063476562,0.07631129026412964
1782774757366811400,5.847811279296875,-0.44774389266967773,-0.2354907989501953,-0.05810004472732544
1782774757376761600,5.85776171875,-0.4600987434387207,-0.24970149993896484,-0.14606595039367676
1782774757386892000,5.86789208984375,-0.27779245376586914,-0.19966602325439453,-0.08079063892364502
1782774757396750600,5.87775048828125,-0.06637430191040039,-0.1713123321533203,0.03158324956893921
1782774757406881000,5.887881103515625,0.0967864990234375,-0.11520004272460938,0.13628244400024414
1782774757416830000,5.897829833984375,0.28063249588012695,-0.06103038787841797,0.15942621231079102
1782774757426749200,5.907749267578125,0.4861874580383301,-0.0020456314086914062,0.2918480634689331
1782774757436850400,5.917850341796875,0.45090484619140625,-0.029664039611816406,0.24409884214401245
1782774757446889500,5.927889404296875,0.2228679656982422,-0.09994888305664062,0.08317118883132935
1782774757456838100,5.937838134765625,0.006059169769287109,-0.07916831970214844,-0.13497179746627808
1782774757466817500,5.947817626953125,-0.09818029403686523,-0.1794757843017578,-0.25827276706695557
1782774757476827400,5.957827392578125,-0.19190168380737305,-0.20832157135009766,-0.1669599413871765
1782774757486837000,5.9678369140625,-0.23842763900756836,-0.1696300506591797,-0.09380263090133667
1782774757496816400,5.97781640625,-0.20503950119018555,-0.12057304382324219,-0.0402301549911499
1782774757506826200,5.987826171875,-0.13970661163330078,-0.02278900146484375,0.09416985511779785
1782774757516835800,5.9978359375,-0.05380582809448242,0.008543968200683594,0.21091169118881226
1782774757526815200,6.007815185546875,-0.08056259155273438,-0.05816841125488281,0.17395412921905518
1782774757536824800,6.017824951171875,-0.15919733047485352,-0.12778854370117188,-0.0007927417755126953
1782774757546834400,6.02783447265625,-0.17977190017700195,-0.1691150665283203,-0.1287931203842163
1782774757556813800,6.037813720703125,-0.2552347183227539,-0.21293926239013672,-0.18244212865829468
1782774757566823700,6.04782373046875,-0.25853919982910156,-0.1898355484008789,-0.26290690898895264
1782774757576833300,6.057833251953125,-0.29720449447631836,-0.10457420349121094,-0.11276090145111084
1782774757586812700,6.067812744140625,-0.28241729736328125,-0.0002346038818359375,0.04418307542800903
1782774757596822500,6.077822509765625,-0.1546635627746582,0.12098026275634766,0.26284587383270264
1782774757606832400,6.087832275390625,-0.11039924621582031,0.11070728302001953,0.48329269886016846
1782774757616811300,6.097811279296875,-0.06339645385742188,0.12200450897216797,0.5704878568649292
1782774757626821000,6.107821044921875,-0.06426572799682617,0.11165142059326172,0.5078318119049072
1782774757636831000,6.1178310546875,-0.10386896133422852,-0.009102821350097656,0.19558179378509521
1782774757646750500,6.12775048828125,-0.19144630432128906,-0.19505596160888672,-0.12587183713912964
1782774757656881000,6.137880859375,-0.34454965591430664,-0.3149747848510742,-0.23435264825820923
1782774757666770200,6.147770263671875,-0.35335302352905273,-0.41124629974365234,-0.28794848918914795
1782774757677053000,6.158052978515625,-0.2988004684448242,-0.4443941116333008,-0.29092514514923096
1782774757686733300,6.1677333984375,-0.18392133712768555,-0.3734550476074219,-0.14953088760375977
1782774757696889600,6.1778896484375,-0.030026912689208984,-0.21776390075683594,0.08890938758850098
1782774757706838300,6.18783837890625,-0.010502338409423828,-0.13850975036621094,0.231309175491333
1782774757716817400,6.1978173828125,0.04554176330566406,-0.0812692642211914,0.16926908493041992
1782774757726827300,6.2078271484375,0.06931400299072266,-0.04635047912597656,0.08228886127471924
1782774757736836900,6.2178369140625,-0.05845928192138672,-0.18481922149658203,-0.18507063388824463
1782774757746816300,6.227816162109375,-0.10860252380371094,-0.240142822265625,-0.3768617510795593
1782774757756826000,6.237826171875,-0.0825800895690918,-0.1946859359741211,-0.3459908366203308
1782774757766835700,6.247835693359375,-0.04105377197265625,-0.17483139038085938,-0.22040051221847534
1782774757776815000,6.257815185546875,-0.04831266403198242,-0.1927642822265625,-0.16969585418701172
1782774757786825000,6.267824951171875,-0.07554244995117188,-0.20786380767822266,-0.08585208654403687
1782774757796834600,6.27783447265625,-0.04865694046020508,-0.17221546173095703,-0.052364349365234375
1782774757806814000,6.28781396484375,-0.008253097534179688,-0.17930984497070312,-0.11172205209732056
1782774757816823600,6.297823486328125,-0.03778696060180664,-0.18861961364746094,-0.12503963708877563
1782774757826833400,6.30783349609375,0.05832672119140625,-0.19023799896240234,-0.13993537425994873
1782774757836812800,6.317812744140625,0.15747308731079102,-0.10730743408203125,-0.13716518878936768
1782774757846822400,6.327822509765625,0.22445392608642578,-0.11487960815429688,-0.11018866300582886
1782774757856832300,6.337832275390625,0.23409748077392578,-0.21344852447509766,-0.10028856992721558
1782774757866811400,6.347811279296875,0.14679861068725586,-0.24558734893798828,-0.10463041067123413
1782774757876821200,6.3578212890625,0.03867149353027344,-0.26384544372558594,-0.22031933069229126
1782774757886830800,6.367830810546875,-0.0071659088134765625,-0.21761035919189453,-0.23667728900909424
1782774757896810200,6.377810302734375,0.01635265350341797,-0.16886425018310547,-0.17947733402252197
1782774757906820000,6.387820068359375,-0.023749351501464844,-0.18988895416259766,-0.08058232069015503
1782774757916830000,6.397829833984375,-0.08416366577148438,-0.1419229507446289,-0.021426379680633545
1782774757926809000,6.40780908203125,-0.1032400131225586,-0.10622596740722656,-0.055767834186553955
1782774757936818700,6.417818603515625,-0.12019157409667969,-0.06324386596679688,-0.041952431201934814
1782774757946828500,6.42782861328125,-0.04238748550415039,-0.07004737854003906,-0.004163563251495361
1782774757956838100,6.437838134765625,-0.022733211517333984,-0.023832321166992188,0.055084943771362305
1782774757966817500,6.447817626953125,-0.024399280548095703,-0.0615081787109375,0.09505277872085571
1782774757976827400,6.457827392578125,-0.10637044906616211,-0.0686197280883789,0.11605256795883179
1782774757986837000,6.4678369140625,-0.2517681121826172,-0.07633399963378906,0.08203834295272827
1782774757996816400,6.47781640625,-0.24556207656860352,-0.1155710220336914,0.0027602314949035645
1782774758006766300,6.487766357421875,-0.18216228485107422,-0.11643505096435547,0.04616314172744751
1782774758016897000,6.49789697265625,-0.13401508331298828,-0.12166500091552734,0.0609402060508728
1782774758026755300,6.50775537109375,-0.10338163375854492,-0.0930929183959961,-0.0024780631065368652
1782774758036826000,6.517826171875,-0.09644269943237305,-0.11494731903076172,0.013350129127502441
1782774758046895600,6.5278955078125,-0.13584518432617188,-0.13985252380371094,0.07140451669692993
1782774758056813800,6.537813720703125,-0.24733638763427734,-0.18484210968017578,0.00873100757598877
1782774758066764000,6.547763916015625,-0.38550806045532227,-0.15654373168945312,-0.028200387954711914
1782774758077840600,6.558840576171875,-0.41647911071777344,-0.11466217041015625,0.0941811203956604
1782774758096822500,6.577822509765625,-0.36707496643066406,-0.09327507019042969,0.21459180116653442
1782774758106832400,6.587832275390625,-0.26612091064453125,-0.10886287689208984,0.11522537469863892
1782774758116811500,6.5978115234375,-0.17041015625,-0.14719390869140625,-0.01599210500717163
1782774758126821000,6.607821044921875,-0.05977964401245117,-0.22301387786865234,-0.0866628885269165
1782774758136771300,6.617771240234375,-0.006648063659667969,-0.19335460662841797,0.011593759059906006
1782774758146901800,6.62790185546875,0.03562736511230469,-0.17364025115966797,0.05799931287765503
1782774758156820000,6.637820068359375,-0.0116729736328125,-0.19756031036376953,0.16056084632873535
1782774758166829800,6.647829833984375,-0.045604705810546875,-0.20051193237304688,0.1951887011528015
1782774758176809000,6.65780908203125,-0.04315662384033203,-0.21093177795410156,0.14897209405899048
1782774758186818800,6.66781884765625,-0.15096044540405273,-0.2310018539428711,0.08000779151916504
1782774758196828700,6.67782861328125,-0.21300363540649414,-0.1267557144165039,0.08572614192962646
1782774758206838300,6.68783837890625,-0.19577646255493164,-0.10402488708496094,0.06022745370864868
1782774758216817400,6.6978173828125,-0.20501995086669922,-0.15779876708984375,0.07980263233184814
1782774758226827300,6.7078271484375,-0.18413162231445312,-0.1872386932373047,0.03316605091094971
1782774758236836900,6.7178369140625,-0.15528583526611328,-0.1945056915283203,-0.06953209638595581
1782774758246816300,6.727816162109375,-0.15382766723632812,-0.2636070251464844,-0.1642059087753296
1782774758256826000,6.737826171875,-0.1477069854736328,-0.32305335998535156,-0.12974703311920166
1782774758266835700,6.747835693359375,-0.1299266815185547,-0.29366493225097656,-0.13687372207641602
1782774758276815000,6.757815185546875,-0.12954044342041016,-0.2544116973876953,-0.13902783393859863
1782774758286825000,6.767824951171875,-0.11346960067749023,-0.2362518310546875,-0.15496259927749634
1782774758296775000,6.77777490234375,0.002007007598876953,-0.2032012939453125,-0.15859270095825195
1782774758306905600,6.787905517578125,0.09535646438598633,-0.2009716033935547,-0.12889552116394043
1782774758316823600,6.797823486328125,0.12198019027709961,-0.1916799545288086,-0.08510130643844604
1782774758326833400,6.80783349609375,0.1376056671142578,-0.11344337463378906,-0.08185160160064697
1782774758336812800,6.817812744140625,0.19695043563842773,-0.04509735107421875,-0.013843774795532227
1782774758346822400,6.827822509765625,0.27838706970214844,-0.012948036193847656,0.02560323476791382
1782774758356772400,6.8377724609375,0.14300870895385742,-0.046051979064941406,-0.05380725860595703
1782774758366903000,6.847903076171875,-0.014786243438720703,-0.12567138671875,-0.2862640619277954
1782774758376761600,6.85776171875,-0.10508584976196289,-0.2393331527709961,-0.5015976428985596
1782774758386892000,6.86789208984375,-0.09549808502197266,-0.2929210662841797,-0.45491504669189453
1782774758396810200,6.877810302734375,-0.06477642059326172,-0.2933835983276367,-0.29316985607147217
1782774758406760200,6.88776025390625,-0.04592466354370117,-0.17375564575195312,-0.027671873569488525
1782774758416891000,6.897890869140625,-0.11013174057006836,-0.09956741333007812,0.18371862173080444
1782774758426809000,6.90780908203125,-0.10911703109741211,-0.023166656494140625,0.21702778339385986
1782774758436818700,6.917818603515625,-0.11265420913696289,0.04822826385498047,0.2512800097465515
1782774758446769000,6.927768798828125,-0.18305540084838867,0.03802967071533203,0.126101553440094
1782774758456839700,6.937839599609375,-0.2674446105957031,-0.10421562194824219,-0.10750770568847656
1782774758466849300,6.947849365234375,-0.14227581024169922,-0.14077377319335938,-0.2314314842224121
1782774758477843500,6.958843505859375,0.09939336776733398,-0.11352825164794922,-0.12302374839782715
1782774758496756500,6.977756591796875,0.316802978515625,-0.12236595153808594,0.0448225736618042
1782774758506887200,6.98788720703125,0.23984527587890625,-0.11056232452392578,0.1384751796722412
1782774758516836000,6.997836181640625,0.04836559295654297,-0.09644222259521484,0.18361103534698486
1782774758526815000,7.00781494140625,-0.11050653457641602,-0.09380054473876953,0.16417235136032104
1782774758536824800,7.017824951171875,-0.29807424545288086,-0.1498432159423828,0.11159402132034302
1782774758546834400,7.02783447265625,-0.40161609649658203,-0.18694591522216797,-0.06686770915985107
1782774758556813800,7.037813720703125,-0.5351202487945557,-0.2498760223388672,-0.19408684968948364
1782774758566823700,7.04782373046875,-0.48885035514831543,-0.2926034927368164,-0.24929696321487427
1782774758576833300,7.057833251953125,-0.3259854316711426,-0.27865123748779297,-0.17856097221374512
1782774758586812700,7.067812744140625,-0.058748722076416016,-0.14553451538085938,0.0912441611289978
1782774758596822500,7.077822509765625,0.2357339859008789,0.012486457824707031,0.40426570177078247
1782774758606832000,7.08783203125,0.26384449005126953,-0.021780014038085938,0.35703760385513306
1782774758616811300,7.097811279296875,0.054322242736816406,-0.11804580688476562,0.16003912687301636
1782774758626821000,7.107821044921875,-0.2895650863647461,-0.20476245880126953,-0.14486557245254517
1782774758636831000,7.1178310546875,-0.4402785301208496,-0.23490333557128906,-0.2716779112815857
1782774758646810000,7.12781005859375,-0.47923827171325684,-0.25019264221191406,-0.22471171617507935
1782774758656820000,7.137820068359375,-0.43407297134399414,-0.2763252258300781,-0.15499389171600342
1782774758666829800,7.147829833984375,-0.32456111907958984,-0.2004718780517578,-0.02186495065689087
1782774758676809000,7.15780908203125,-0.1768784523010254,-0.14962291717529297,0.09349018335342407
1782774758686818800,7.16781884765625,-0.13796758651733398,-0.17724990844726562,0.14625269174575806
1782774758696828700,7.17782861328125,-0.16131162643432617,-0.20731258392333984,0.05580419301986694
1782774758706838300,7.18783837890625,-0.1746978759765625,-0.1442718505859375,0.011701703071594238
1782774758716817400,7.1978173828125,-0.07598495483398438,-0.0714578628540039,0.04430299997329712
1782774758726827300,7.2078271484375,-0.0037603378295898438,-0.010469436645507812,0.10974568128585815
1782774758736836900,7.2178369140625,-0.031672000885009766,-0.07897377014160156,0.09860843420028687
1782774758746816300,7.227816162109375,-0.009137630462646484,-0.1261148452758789,0.04296398162841797
1782774758756826000,7.237826171875,0.08727693557739258,-0.18035316467285156,0.004843950271606445
1782774758766835700,7.247835693359375,0.1692829132080078,-0.1938495635986328,0.05275368690490723
1782774758776815000,7.257815185546875,0.11748552322387695,-0.25290966033935547,-0.04117989540100098
1782774758786825000,7.267824951171875,0.0842747688293457,-0.28175830841064453,-0.07020121812820435
1782774758796834600,7.27783447265625,0.05712080001831055,-0.2799835205078125,0.024153947830200195
1782774758806814000,7.28781396484375,-0.18077659606933594,-0.2839775085449219,0.05479896068572998
1782774758816823600,7.297823486328125,-0.3497753143310547,-0.22899818420410156,0.044566571712493896
1782774758826833400,7.30783349609375,-0.34238290786743164,-0.19042491912841797,0.03939831256866455
1782774758836753000,7.3177529296875,-0.3135566711425781,-0.29906368255615234,0.08679771423339844
1782774758846883300,7.32788330078125,-0.24462413787841797,-0.3129262924194336,0.022081077098846436
1782774758856832000,7.33783203125,-0.14669561386108398,-0.17492294311523438,0.0603145956993103
1782774758866811400,7.347811279296875,-0.12799549102783203,-0.14203357696533203,0.13811516761779785
1782774758876821200,7.3578212890625,-0.08492326736450195,-0.18106746673583984,0.08080321550369263
1782774758886830800,7.367830810546875,-0.0563197135925293,-0.25121212005615234,-0.050334155559539795
1782774758896810200,7.377810302734375,-0.03548097610473633,-0.28765296936035156,-0.21169167757034302
1782774758906820000,7.387820068359375,0.06635856628417969,-0.2616767883300781,-0.19079601764678955
1782774758916830000,7.397829833984375,0.12701845169067383,-0.2927837371826172,-0.09937238693237305
1782774758926809000,7.40780908203125,0.11920833587646484,-0.21642589569091797,0.05015897750854492
1782774758936818700,7.417818603515625,0.01973581314086914,-0.1455860137939453,0.13896381855010986
1782774758946828300,7.427828369140625,-0.03781557083129883,-0.03954124450683594,0.1570015549659729
1782774758956838100,7.437838134765625,-0.16025686264038086,-0.0915975570678711,0.03802770376205444
1782774758966817500,7.447817626953125,-0.22843456268310547,-0.1578359603881836,-0.17242515087127686
1782774758976827400,7.457827392578125,-0.2070012092590332,-0.17325687408447266,-0.3290688395500183
1782774758986837000,7.4678369140625,-0.14661598205566406,-0.1399250030517578,-0.2990724444389343
1782774758996816400,7.47781640625,0.034279823303222656,-0.09126949310302734,-0.17009633779525757
1782774759006705400,7.487705322265625,0.16617298126220703,-0.027477264404296875,0.055129408836364746
1782774759016927500,7.497927490234375,0.245361328125,0.053206443786621094,0.21718722581863403
1782774759026815000,7.50781494140625,0.25302600860595703,0.10968875885009766,0.26059889793395996
1782774759036765200,7.51776513671875,0.2232532501220703,0.0960845947265625,0.2940458059310913
1782774759046895600,7.5278955078125,0.15117502212524414,0.007605552673339844,0.09524524211883545
1782774759056813800,7.537813720703125,0.025168895721435547,-0.16071605682373047,-0.13232994079589844
1782774759066764000,7.547763916015625,-0.11597728729248047,-0.26056671142578125,-0.17172980308532715
1782774759076895700,7.557895751953125,-0.17280912399291992,-0.21701622009277344,-0.2614307999610901
1782774759086844700,7.5678447265625,-0.18204069137573242,-0.2020111083984375,-0.21504837274551392
1782774759096883500,7.577883544921875,-0.13639163970947266,-0.1675395965576172,-0.0077817440032958984
1782774759106832100,7.58783203125,-0.17214250564575195,-0.11134815216064453,0.19078272581100464
1782774759116811300,7.597811279296875,-0.19567012786865234,-0.062460899353027344,0.1570810079574585
1782774759126821000,7.607821044921875,-0.12616825103759766,-0.09490489959716797,0.08117520809173584
1782774759136830700,7.617830810546875,-0.047659873962402344,-0.13199806213378906,0.016108989715576172
1782774759146810000,7.62781005859375,-0.08144140243530273,-0.14771747589111328,0.011416256427764893
1782774759156820000,7.637820068359375,-0.11950397491455078,-0.1374349594116211,-0.05480390787124634
1782774759166770200,7.647770263671875,-0.18840265274047852,-0.13213348388671875,-0.14928919076919556
1782774759176900600,7.657900634765625,-0.14495849609375,-0.15067481994628906,-0.12409955263137817
1782774759186818800,7.66781884765625,-0.09053897857666016,-0.1303243637084961,0.0032578110694885254
1782774759198120000,7.679119873046875,-0.06933212280273438,-0.0644826889038086,0.07898092269897461
1782774759216817400,7.6978173828125,-0.121826171875,0.0011310577392578125,0.20469409227371216
1782774759226827300,7.7078271484375,-0.16656827926635742,0.053409576416015625,0.19768214225769043
1782774759236836900,7.7178369140625,-0.0796971321105957,-0.03086376190185547,0.08878690004348755
1782774759246816300,7.727816162109375,-0.06271505355834961,-0.11979961395263672,0.026295721530914307
1782774759256826000,7.737826171875,-0.14895248413085938,-0.19913482666015625,-0.13813549280166626
1782774759266835700,7.747835693359375,-0.10422611236572266,-0.2160053253173828,-0.24379777908325195
1782774759276815000,7.757815185546875,0.13574457168579102,-0.18916034698486328,-0.12272578477859497
1782774759286765300,7.767765380859375,0.19386959075927734,-0.21718978881835938,0.07509201765060425
1782774759296836000,7.777836181640625,0.08105754852294922,-0.2003307342529297,0.13054043054580688
1782774759306905600,7.787905517578125,-0.17273759841918945,-0.15132617950439453,0.0235784649848938
1782774759316823600,7.797823486328125,-0.3408651351928711,-0.10329437255859375,0.046236276626586914
1782774759326833400,7.80783349609375,-0.3273754119873047,-0.13405704498291016,0.08530157804489136
1782774759336812500,7.8178125,-0.1602797508239746,-0.1709585189819336,0.05457925796508789
1782774759346822400,7.827822509765625,0.0020418167114257812,-0.19473934173583984,0.08405512571334839
1782774759356832300,7.837832275390625,0.10506820678710938,-0.22008514404296875,0.03528165817260742
1782774759366811400,7.847811279296875,0.19266319274902344,-0.3217430114746094,-0.09755420684814453
1782774759376821200,7.8578212890625,0.19542264938354492,-0.4229707717895508,-0.13616305589675903
1782774759386830800,7.867830810546875,0.0689234733581543,-0.3471040725708008,-0.12385904788970947
1782774759396810200,7.877810302734375,-0.33185529708862305,-0.3101358413696289,-0.3383678197860718
1782774759406820000,7.887820068359375,0.19930267333984375,-0.38953495025634766,-0.2252354621887207
1782774759416830000,7.897829833984375,-0.16449737548828125,-0.2286691665649414,-0.5275731086730957
1782774759426809000,7.90780908203125,-0.7414987087249756,-0.24192237854003906,0.1938064694404602
1782774759436818700,7.917818603515625,-0.7357661724090576,-0.06645965576171875,0.688225269317627
1782774759446828300,7.927828369140625,-0.6811439990997314,0.04033660888671875,0.459106981754303
1782774759456838100,7.937838134765625,-0.6250574588775635,0.014879226684570312,0.05744504928588867
1782774759466817500,7.947817626953125,-0.4798426628112793,-0.1578817367553711,0.10516023635864258
1782774759476827400,7.957827392578125,-0.035736083984375,-0.21668148040771484,0.01914513111114502
1782774759486837000,7.9678369140625,0.2124772071838379,-0.2837076187133789,0.014635682106018066
1782774759496816400,7.97781640625,0.27663373947143555,-0.19354915618896484,-0.06563806533813477
1782774759506826200,7.987826171875,0.6265316009521484,-0.12621688842773438,-0.07194411754608154
