time,seconds_elapsed,z,y,x
1782774483466386400,0.164386474609375,0.2794914245605469,-0.27396678924560547,-0.06133568286895752
1782774483476396300,0.174396240234375,0.25045108795166016,-0.35654735565185547,-0.21929895877838135
1782774483486406000,0.184406005859375,0.34403038024902344,-0.34119415283203125,-0.1165083646774292
1782774483496385300,0.19438525390625,0.35868215560913086,-0.20102500915527344,0.02461099624633789
1782774483506395100,0.20439501953125,0.20399141311645508,-0.07641029357910156,0.08663225173950195
1782774483516404700,0.21440478515625,-0.018384456634521484,-0.035452842712402344,0.07469546794891357
1782774483526384000,0.224384033203125,-0.3100900650024414,-0.034050941467285156,-0.025393366813659668
1782774483536393700,0.234393798828125,-0.4841442108154297,-0.14869308471679688,-0.23704314231872559
1782774483546403300,0.2444033203125,-0.596360445022583,-0.3211250305175781,-0.37881916761398315
1782774483556382700,0.2543828125,-0.6307709217071533,-0.29469871520996094,-0.3352060914039612
1782774483566392600,0.264392578125,-0.6531007289886475,-0.11810779571533203,-0.05081164836883545
1782774483576402200,0.274402099609375,-0.4435887336730957,-0.044457435607910156,0.07879483699798584
1782774483586381600,0.284381591796875,-0.16785812377929688,0.011492729187011719,0.24939703941345215
1782774483596391400,0.294391357421875,-0.14429426193237305,0.018678665161132812,0.4102764129638672
1782774483606401300,0.3044013671875,-0.24501991271972656,-0.02156543731689453,0.2907625436782837
1782774483616380400,0.31438037109375,-0.3166971206665039,-0.056227684020996094,-0.018426179885864258
1782774483626390000,0.32439013671875,-0.29255104064941406,-0.033280372619628906,-0.2670844793319702
1782774483636399900,0.33439990234375,-0.2905268669128418,-0.05451011657714844,-0.3385273218154907
1782774483646379000,0.34437890625,-0.23710966110229492,-0.07633686065673828,-0.37480705976486206
1782774483656388900,0.354388916015625,-0.08357667922973633,-0.009913444519042969,-0.30927175283432007
1782774483666398700,0.364398681640625,0.03449201583862305,0.0873260498046875,-0.07756590843200684
1782774483676377900,0.3743779296875,0.09764719009399414,0.09721088409423828,0.08421266078948975
1782774483686387700,0.3843876953125,0.10870981216430664,0.10148811340332031,0.22171735763549805
1782774483696397300,0.394397216796875,-0.005982875823974609,0.06209564208984375,0.19907677173614502
1782774483706407200,0.4044072265625,-0.17047548294067383,0.029153823852539062,-0.013874053955078125
1782774483716386300,0.41438623046875,-0.3048734664916992,0.0048999786376953125,-0.1867297887802124
1782774483726396200,0.424396240234375,-0.399979829788208,-0.04630088806152344,-0.2627065181732178
1782774483736406000,0.434406005859375,-0.3659546375274658,-0.06389904022216797,-0.22379541397094727
1782774483746385200,0.44438525390625,-0.2552070617675781,-0.03951454162597656,-0.037909865379333496
1782774483756395000,0.45439501953125,-0.13829374313354492,-0.0996246337890625,0.03952908515930176
1782774483766404600,0.464404541015625,-0.10051727294921875,-0.16590309143066406,-0.03261303901672363
1782774483776384000,0.474384033203125,-0.03481626510620117,-0.1864776611328125,-0.1753603219985962
1782774483786393900,0.484393798828125,-0.009006500244140625,-0.2480487823486328,-0.1774379014968872
1782774483796403500,0.494403564453125,0.046761512756347656,-0.22371768951416016,-0.0810689926147461
1782774483806382800,0.5043828125,-0.012956619262695312,-0.08981513977050781,0.08971977233886719
1782774483816392400,0.514392333984375,-0.0570831298828125,-0.10483932495117188,0.11619746685028076
1782774483826402300,0.52440234375,-0.06512212753295898,-0.14390850067138672,0.09015011787414551
1782774483836381700,0.534381591796875,-0.12815332412719727,-0.16391754150390625,0.09805679321289062
1782774483846391300,0.544391357421875,-0.15045738220214844,-0.2198619842529297,0.08449292182922363
1782774483856401200,0.554401123046875,-0.02211475372314453,-0.21589374542236328,0.025680184364318848
1782774483866380300,0.56438037109375,0.0360560417175293,-0.09176254272460938,0.10254287719726562
1782774483876390100,0.57439013671875,0.019269466400146484,-0.05828285217285156,0.11251556873321533
1782774483886400000,0.58439990234375,-0.00970602035522461,-0.09904670715332031,0.0013086795806884766
1782774483896379100,0.594379150390625,-0.0834355354309082,-0.17374610900878906,-0.03993630409240723
1782774483906389000,0.604388916015625,-0.12508201599121094,-0.2128582000732422,-0.007877111434936523
1782774483916398800,0.61439892578125,-0.2115464210510254,-0.2234354019165039,0.025689005851745605
1782774483926378000,0.6243779296875,-0.2001957893371582,-0.2242136001586914,-0.008219599723815918
1782774483936387600,0.6343876953125,-0.0683598518371582,-0.14763641357421875,0.08009994029998779
1782774483946397200,0.644397216796875,-0.014487743377685547,-0.09418296813964844,0.21492135524749756
1782774483956407000,0.654406982421875,-0.0606999397277832,-0.050403594970703125,0.24348890781402588
1782774483966386400,0.664386474609375,-0.02918863296508789,-0.09344196319580078,0.10285484790802002
1782774483976396300,0.674396240234375,0.037625789642333984,-0.23465347290039062,-0.07628142833709717
1782774483986406000,0.684406005859375,0.08443546295166016,-0.32916927337646484,-0.0830768346786499
1782774483996385300,0.69438525390625,0.011061668395996094,-0.3373394012451172,-0.10374844074249268
1782774484006395100,0.70439501953125,-0.09125423431396484,-0.3008089065551758,-0.06149137020111084
1782774484016404700,0.71440478515625,-0.1952810287475586,-0.2556953430175781,0.0899277925491333
1782774484026384100,0.724384033203125,-0.3398597240447998,-0.29755592346191406,0.1856456995010376
1782774484036393700,0.734393798828125,-0.37120556831359863,-0.27251243591308594,0.2296541929244995
1782774484046403300,0.7444033203125,-0.30340147018432617,-0.2826957702636719,0.1921142339706421
1782774484056382700,0.7543828125,-0.28107261657714844,-0.24403858184814453,0.14138281345367432
1782774484066392600,0.764392578125,-0.1436138153076172,-0.14946937561035156,0.08239424228668213
1782774484076402200,0.774402099609375,-0.03179502487182617,-0.14753437042236328,0.0980367660522461
1782774484086381600,0.784381591796875,0.03529024124145508,-0.21448516845703125,-0.03552055358886719
1782774484096391400,0.794391357421875,0.08036327362060547,-0.22389507293701172,-0.07945692539215088
1782774484106401000,0.804401123046875,0.06583547592163086,-0.22872066497802734,-0.16825461387634277
1782774484116380200,0.814380126953125,0.04054069519042969,-0.27965831756591797,-0.3428182601928711
1782774484126390000,0.82439013671875,0.018731117248535156,-0.22092819213867188,-0.2663238048553467
1782774484136399600,0.834399658203125,-0.05203533172607422,-0.13621234893798828,-0.09604501724243164
1782774484146379000,0.84437890625,-0.15433931350708008,-0.1504535675048828,-0.14223039150238037
1782774484156388900,0.854388916015625,-0.2527031898498535,-0.10324668884277344,-0.12324857711791992
1782774484166398700,0.864398681640625,-0.23684310913085938,0.04244518280029297,-0.0036563873291015625
1782774484176377900,0.8743779296875,-0.2197113037109375,0.10712718963623047,-0.07461810111999512
1782774484186387700,0.8843876953125,-0.18109607696533203,0.13562488555908203,-0.1218792200088501
1782774484196397600,0.8943974609375,-0.13541650772094727,0.09694099426269531,-0.19883131980895996
1782774484206407200,0.9044072265625,-0.049518585205078125,0.08230972290039062,-0.227042555809021
1782774484216386300,0.91438623046875,0.07079410552978516,0.06339454650878906,-0.24181807041168213
1782774484226396200,0.924396240234375,0.20114850997924805,0.07405567169189453,-0.196274995803833
1782774484236405800,0.93440576171875,0.2633829116821289,0.08043575286865234,-0.16264581680297852
1782774484246385200,0.94438525390625,0.3735203742980957,0.07011985778808594,-0.08161664009094238
1782774484256395000,0.95439501953125,0.3716011047363281,-0.009676933288574219,0.046074509620666504
1782774484266404600,0.964404541015625,0.3058047294616699,-0.08741569519042969,0.09935867786407471
1782774484276384000,0.974384033203125,0.2293415069580078,-0.1347675323486328,0.02904343605041504
1782774484286393900,0.984393798828125,0.108612060546875,-0.22351360321044922,-0.07633054256439209
1782774484296403500,0.994403564453125,-0.08488225936889648,-0.2747983932495117,-0.13984763622283936
1782774484306382800,1.0043828125,-0.1841602325439453,-0.32889747619628906,-0.1504831314086914
1782774484316392400,1.014392333984375,-0.18770933151245117,-0.35897254943847656,-0.11369848251342773
1782774484326402300,1.02440234375,-0.16572904586791992,-0.36219310760498047,-0.08986914157867432
1782774484336381400,1.03438134765625,-0.12739133834838867,-0.36513233184814453,-0.05711960792541504
1782774484346391300,1.044391357421875,-0.03640174865722656,-0.3511209487915039,-0.008984208106994629
1782774484356401000,1.05440087890625,-0.06623697280883789,-0.27289772033691406,0.10965585708618164
1782774484366380300,1.06438037109375,-0.12773466110229492,-0.14511585235595703,0.26779401302337646
1782774484376390100,1.07439013671875,-0.14493179321289062,0.018215179443359375,0.3764913082122803
1782774484386400000,1.08439990234375,-0.16882705688476562,-0.05326080322265625,0.3363722562789917
1782774484396379100,1.094379150390625,-0.2433490753173828,-0.18000030517578125,0.06439876556396484
1782774484406389000,1.104388916015625,-0.3290109634399414,-0.21547985076904297,-0.09397697448730469
1782774484416398800,1.11439892578125,-0.24885177612304688,-0.18232059478759766,-0.2112630009651184
1782774484426378000,1.1243779296875,0.059351444244384766,-0.1576709747314453,-0.18173980712890625
1782774484436387600,1.1343876953125,0.4048433303833008,-0.23271560668945312,0.07469654083251953
1782774484446397400,1.1443974609375,0.5752182006835938,-0.2521018981933594,0.16504371166229248
1782774484456407000,1.154406982421875,0.4034385681152344,-0.2390432357788086,0.19431376457214355
1782774484466386400,1.164386474609375,0.10323667526245117,-0.23110008239746094,0.06356251239776611
1782774484476396300,1.174396240234375,-0.19816827774047852,-0.22620487213134766,-0.17075443267822266
1782774484486406000,1.184406005859375,-0.43882203102111816,-0.2037487030029297,-0.2345924973487854
1782774484496385300,1.19438525390625,-0.5917754173278809,-0.22385120391845703,-0.1699286699295044
1782774484506395100,1.20439501953125,-0.5878915786743164,-0.16315364837646484,0.00645601749420166
1782774484516404700,1.21440478515625,-0.5226271152496338,-0.0840616226196289,0.18682289123535156
1782774484526383900,1.2243837890625,-0.5149538516998291,-0.1091909408569336,0.12338519096374512
1782774484536393700,1.234393798828125,-0.35970473289489746,-0.16419696807861328,0.05242288112640381
1782774484546403300,1.2444033203125,-0.12075948715209961,-0.14997386932373047,0.020420193672180176
1782774484556382700,1.2543828125,0.09582757949829102,-0.1933612823486328,-0.051792263984680176
1782774484566392600,1.264392578125,0.21668195724487305,-0.20807170867919922,-0.08765900135040283
1782774484576402200,1.274402099609375,0.23521041870117188,-0.2000112533569336,-0.11574983596801758
1782774484586381600,1.284381591796875,0.20896196365356445,-0.15497112274169922,-0.12087249755859375
1782774484596391400,1.294391357421875,0.20591354370117188,-0.10471248626708984,-0.042790889739990234
1782774484606401300,1.3044013671875,0.1391310691833496,-0.11602401733398438,-0.05069875717163086
1782774484616380400,1.31438037109375,0.027614593505859375,-0.047448158264160156,-0.020053863525390625
1782774484626390000,1.32439013671875,-0.10210323333740234,0.006587982177734375,0.011882424354553223
1782774484636399900,1.33439990234375,-0.21597528457641602,0.06372356414794922,0.07864665985107422
1782774484646379000,1.34437890625,-0.28801631927490234,0.09075260162353516,0.14323174953460693
1782774484656388900,1.354388916015625,-0.31279850006103516,0.017876625061035156,0.05546975135803223
1782774484666398700,1.364398681640625,-0.2564511299133301,-0.060675621032714844,-0.06255221366882324
1782774484676377900,1.3743779296875,-0.10296154022216797,-0.056403160095214844,-0.07382869720458984
1782774484686387700,1.3843876953125,-0.04933929443359375,-0.1207742691040039,-0.013206720352172852
1782774484696397300,1.394397216796875,-0.10521888732910156,-0.24529361724853516,-0.07709217071533203
1782774484706407200,1.4044072265625,-0.09037256240844727,-0.30095672607421875,-0.06698071956634521
1782774484716386300,1.41438623046875,-0.04611968994140625,-0.25620269775390625,0.03272414207458496
1782774484726396200,1.424396240234375,-0.12759637832641602,-0.22386646270751953,0.0119476318359375
1782774484736405800,1.43440576171875,-0.13311243057250977,-0.10852241516113281,0.05563998222351074
1782774484746385200,1.44438525390625,-0.12833881378173828,-0.012557029724121094,0.2110077142715454
1782774484756395000,1.45439501953125,-0.12147998809814453,-0.012157440185546875,0.1840052604675293
1782774484766404600,1.464404541015625,-0.09874534606933594,-0.09054279327392578,0.10581517219543457
1782774484776384000,1.474384033203125,-0.011090278625488281,-0.12024688720703125,0.06264746189117432
1782774484786393900,1.484393798828125,0.05543661117553711,-0.1875438690185547,-0.07705628871917725
1782774484796403500,1.494403564453125,0.04964160919189453,-0.27872180938720703,-0.25608301162719727
1782774484806382800,1.5043828125,0.04651832580566406,-0.2958049774169922,-0.2627321481704712
1782774484816392400,1.514392333984375,0.050269126892089844,-0.2647247314453125,-0.20820105075836182
1782774484826402300,1.52440234375,0.027547359466552734,-0.2477874755859375,-0.08791887760162354
1782774484836381700,1.534381591796875,-0.038065433502197266,-0.28343772888183594,-0.002574920654296875
1782774484846391300,1.544391357421875,0.06610441207885742,-0.21601486206054688,0.01308596134185791
1782774484856401200,1.554401123046875,0.1343836784362793,-0.1101531982421875,0.15211725234985352
1782774484866380300,1.56438037109375,0.11500406265258789,-0.10997867584228516,0.16113150119781494
1782774484876390100,1.57439013671875,0.07089614868164062,-0.1609354019165039,0.0465015172958374
1782774484886400000,1.58439990234375,0.03491497039794922,-0.13584518432617188,0.011903762817382812
1782774484896379100,1.594379150390625,-0.052811622619628906,-0.14002704620361328,-0.12232458591461182
1782774484906389000,1.604388916015625,-0.11392879486083984,-0.21636104583740234,-0.2908321022987366
1782774484916398800,1.61439892578125,-0.16596460342407227,-0.2492971420288086,-0.270765483379364
1782774484926378000,1.6243779296875,-0.1707148551940918,-0.21471786499023438,-0.2020246982574463
1782774484936387600,1.6343876953125,-0.13928890228271484,-0.029140472412109375,0.05589711666107178
1782774484946397200,1.644397216796875,-0.07640314102172852,0.13023853302001953,0.3808553218841553
1782774484956407000,1.654406982421875,-0.1732025146484375,0.0906991958618164,0.43419432640075684
1782774484966386400,1.664386474609375,-0.25000762939453125,0.01939105987548828,0.24780845642089844
1782774484976396300,1.674396240234375,-0.2823150157928467,-0.061409950256347656,0.04295837879180908
1782774484986406000,1.684406005859375,-0.3021533489227295,-0.16559886932373047,-0.18800240755081177
1782774484996385300,1.69438525390625,-0.23947525024414062,-0.2023181915283203,-0.2596225142478943
1782774485006395100,1.70439501953125,-0.17517614364624023,-0.22656726837158203,-0.2605655789375305
1782774485016404700,1.71440478515625,-0.041965484619140625,-0.20481395721435547,-0.17277926206588745
1782774485026384100,1.724384033203125,0.150787353515625,-0.20898723602294922,-0.02013850212097168
1782774485036393700,1.734393798828125,0.20708227157592773,-0.1508331298828125,0.14137613773345947
1782774485046403300,1.7444033203125,0.15524530410766602,-0.0025148391723632812,0.2876551151275635
1782774485056382700,1.7543828125,-0.02244853973388672,-0.020943641662597656,0.22295987606048584
1782774485066392600,1.764392578125,-0.24242210388183594,-0.11989116668701172,0.16575169563293457
1782774485076402200,1.774402099609375,-0.41303277015686035,-0.22922420501708984,-0.017211556434631348
1782774485086381600,1.784381591796875,-0.49318909645080566,-0.2450723648071289,-0.08170104026794434
1782774485096391400,1.794391357421875,-0.46028828620910645,-0.28873348236083984,-0.14907079935073853
1782774485106401000,1.804401123046875,-0.32013869285583496,-0.28554821014404297,-0.039559245109558105
1782774485116380200,1.814380126953125,-0.11422395706176758,-0.23501110076904297,0.10193789005279541
1782774485126390000,1.82439013671875,0.005133152008056641,-0.2166738510131836,0.1519409418106079
1782774485136399600,1.834399658203125,-0.007632732391357422,-0.2508687973022461,0.04684901237487793
1782774485146379000,1.84437890625,-0.07220649719238281,-0.2927436828613281,-0.09090137481689453
1782774485156388900,1.854388916015625,-0.1622624397277832,-0.30631542205810547,-0.12540161609649658
1782774485166398700,1.864398681640625,-0.23276424407958984,-0.30081939697265625,-0.16308873891830444
1782774485176377900,1.8743779296875,-0.24312877655029297,-0.23071670532226562,-0.12252199649810791
1782774485186387700,1.8843876953125,-0.20547008514404297,-0.11983585357666016,-0.05434107780456543
1782774485196397600,1.8943974609375,-0.12305307388305664,-0.10428047180175781,-0.08278000354766846
1782774485206407200,1.9044072265625,0.06560087203979492,0.0005121231079101562,-0.03189384937286377
1782774485216386300,1.91438623046875,0.3247652053833008,0.1226949691772461,0.09541070461273193
1782774485226396200,1.924396240234375,0.43993091583251953,0.09893226623535156,0.1035085916519165
1782774485236405800,1.93440576171875,0.5054130554199219,0.08915328979492188,0.10052978992462158
1782774485246385200,1.94438525390625,0.34584617614746094,0.1284160614013672,0.019618630409240723
1782774485256395000,1.95439501953125,0.0778956413269043,0.11178398132324219,-0.050043702125549316
1782774485266404600,1.964404541015625,-0.16273260116577148,0.012137413024902344,-0.13832831382751465
1782774485276384000,1.974384033203125,-0.3377234935760498,-0.10232830047607422,-0.14036130905151367
1782774485286393900,1.984393798828125,-0.46628880500793457,-0.1538829803466797,-0.10637068748474121
1782774485296403500,1.994403564453125,-0.5129880905151367,-0.19738197326660156,-0.05309641361236572
1782774485306382800,2.0043828125,-0.4871788024902344,-0.2591829299926758,-0.033893585205078125
1782774485316392400,2.014392333984375,-0.40546298027038574,-0.26992225646972656,0.0014852285385131836
1782774485326402300,2.02440234375,-0.31624341011047363,-0.27490901947021484,0.01991903781890869
1782774485336381400,2.03438134765625,-0.09103250503540039,-0.23070144653320312,0.057479262351989746
1782774485346391300,2.044391357421875,0.17970657348632812,-0.21657657623291016,0.10246777534484863
1782774485356401000,2.05440087890625,0.3093128204345703,-0.20500946044921875,0.06931042671203613
1782774485366380300,2.06438037109375,0.23996782302856445,-0.22330760955810547,-0.11588931083679199
1782774485376390100,2.07439013671875,0.09437036514282227,-0.2118663787841797,-0.2928549647331238
1782774485386399700,2.084399658203125,-0.013415813446044922,-0.20125484466552734,-0.3121189475059509
1782774485396379100,2.094379150390625,-0.08169937133789062,-0.1526031494140625,-0.12286996841430664
1782774485406389000,2.104388916015625,-0.14740228652954102,-0.14926910400390625,0.01406872272491455
1782774485416398800,2.11439892578125,-0.1704401969909668,-0.14806365966796875,0.09300446510314941
1782774485426378000,2.1243779296875,-0.17783737182617188,-0.1392192840576172,0.0861736536026001
1782774485436387600,2.1343876953125,-0.2467038631439209,-0.20642852783203125,0.02803027629852295
1782774485446397400,2.1443974609375,-0.16162681579589844,-0.23232460021972656,-0.07200300693511963
1782774485456407000,2.154406982421875,-0.1901087760925293,-0.2602386474609375,-0.2167946696281433
1782774485466386400,2.164386474609375,-0.16381549835205078,-0.30483531951904297,-0.28212571144104004
1782774485476396300,2.174396240234375,-0.05931854248046875,-0.2603883743286133,-0.19974368810653687
1782774485486406000,2.184406005859375,0.016119003295898438,-0.17007732391357422,-0.03054368495941162
1782774485496385300,2.19438525390625,-0.03150224685668945,-0.08734416961669922,0.08632934093475342
1782774485506395100,2.20439501953125,-0.07216882705688477,-0.043827056884765625,0.05653643608093262
1782774485516404700,2.21440478515625,-0.05701160430908203,-0.022271156311035156,0.11348474025726318
1782774485526384000,2.224384033203125,-0.12848615646362305,-0.04852771759033203,0.04216432571411133
1782774485536393700,2.234393798828125,-0.11151885986328125,-0.06060981750488281,-0.139664888381958
1782774485546403300,2.2444033203125,-0.05827140808105469,-0.056151390075683594,-0.15588593482971191
1782774485556382700,2.2543828125,0.014574527740478516,-0.03500843048095703,-0.08453214168548584
1782774485566392600,2.264392578125,0.06882858276367188,-0.00687408447265625,0.007848381996154785
1782774485576402200,2.274402099609375,0.008754253387451172,0.0043010711669921875,0.0901409387588501
1782774485586381600,2.284381591796875,-0.0985102653503418,-0.07828044891357422,0.058017849922180176
1782774485596391400,2.294391357421875,-0.22378158569335938,-0.14953327178955078,-0.049753665924072266
1782774485606401300,2.3044013671875,-0.32449936866760254,-0.17082881927490234,-0.0566098690032959
1782774485616380400,2.31438037109375,-0.3081843852996826,-0.12016773223876953,-0.015564918518066406
1782774485626390000,2.32439013671875,-0.28301167488098145,-0.13856220245361328,-0.015627145767211914
1782774485636399900,2.33439990234375,-0.27272629737854004,-0.22366905212402344,0.026757359504699707
1782774485646379000,2.34437890625,-0.3135392665863037,-0.3228302001953125,-0.12674951553344727
1782774485656388900,2.354388916015625,-0.30989623069763184,-0.3618478775024414,-0.2189769148826599
1782774485666398700,2.364398681640625,-0.17163801193237305,-0.2515420913696289,-0.10324645042419434
1782774485676377900,2.3743779296875,0.1154012680053711,-0.08255577087402344,0.05086183547973633
1782774485686387700,2.3843876953125,0.282562255859375,0.0029306411743164062,0.23200750350952148
1782774485696397600,2.3943974609375,0.36414003372192383,0.035431861877441406,0.32488059997558594
1782774485706407200,2.4044072265625,0.3554201126098633,0.0027399063110351562,0.18021225929260254
1782774485716386300,2.41438623046875,0.24059724807739258,-0.09565448760986328,-0.08169925212860107
1782774485726396200,2.424396240234375,0.060706138610839844,-0.2167377471923828,-0.25305914878845215
1782774485736405800,2.43440576171875,-0.09617376327514648,-0.2523307800292969,-0.3618573546409607
1782774485746385200,2.44438525390625,-0.18316221237182617,-0.24735164642333984,-0.3946211338043213
1782774485756395000,2.45439501953125,-0.16105175018310547,-0.23935222625732422,-0.287365198135376
1782774485766404600,2.464404541015625,-0.1313953399658203,-0.23979663848876953,-0.15307950973510742
1782774485776384000,2.474384033203125,-0.04350996017456055,-0.13875961303710938,0.029971957206726074
1782774485786393900,2.484393798828125,-0.07298421859741211,-0.06388092041015625,0.1878499984741211
1782774485796403500,2.494403564453125,-0.12068700790405273,-0.11871051788330078,0.19492292404174805
1782774485806382800,2.5043828125,-0.15371322631835938,-0.1761608123779297,0.15957891941070557
1782774485816392700,2.514392822265625,-0.13693571090698242,-0.20248031616210938,0.020520687103271484
1782774485826402300,2.52440234375,-0.1075439453125,-0.26419830322265625,-0.1211700439453125
1782774485836381700,2.534381591796875,-0.06014680862426758,-0.29676342010498047,-0.2142072319984436
1782774485846391300,2.544391357421875,0.06632328033447266,-0.3029642105102539,-0.23106545209884644
1782774485856401200,2.554401123046875,0.11962318420410156,-0.24952411651611328,-0.0656203031539917
1782774485866380300,2.56438037109375,0.06254243850708008,-0.10095596313476562,0.2025623321533203
1782774485876390100,2.57439013671875,-0.06812143325805664,-0.025435447692871094,0.24213147163391113
1782774485886400000,2.58439990234375,-0.2734687328338623,-0.10413360595703125,0.09829747676849365
1782774485896379100,2.594379150390625,-0.41153883934020996,-0.15443038940429688,-0.07968676090240479
1782774485906389000,2.604388916015625,-0.3619043827056885,-0.1683788299560547,-0.2296423316001892
1782774485916398800,2.61439892578125,-0.1977384090423584,-0.17629718780517578,-0.15444839000701904
1782774485926378000,2.6243779296875,-0.041327476501464844,-0.14205646514892578,-0.08740675449371338
1782774485936387600,2.6343876953125,0.08292937278747559,-0.1384601593017578,-0.16174185276031494
1782774485946397200,2.644397216796875,0.14755487442016602,-0.1061859130859375,-0.08084356784820557
1782774485956407000,2.654406982421875,0.1842494010925293,-0.03349018096923828,0.0664815902709961
1782774485966386400,2.664386474609375,0.09614944458007812,0.028728485107421875,0.10570955276489258
1782774485976396300,2.674396240234375,-0.07054734230041504,-0.030061721801757812,0.1236802339553833
1782774485986406000,2.684406005859375,-0.2639453411102295,-0.0682840347290039,0.03441929817199707
1782774485996385300,2.69438525390625,-0.33728528022766113,-0.12108325958251953,0.007874011993408203
1782774486006395100,2.70439501953125,-0.19285202026367188,-0.15128231048583984,0.04413807392120361
1782774486016404700,2.71440478515625,0.016998291015625,-0.1606006622314453,0.07379031181335449
1782774486026384100,2.724384033203125,0.1639094352722168,-0.1638031005859375,0.11585867404937744
1782774486036393700,2.734393798828125,0.16425824165344238,-0.17873001098632812,0.08840560913085938
1782774486046403300,2.7444033203125,0.08044576644897461,-0.23285770416259766,0.027283549308776855
1782774486056382700,2.7543828125,-0.07671022415161133,-0.2692279815673828,0.015856385231018066
1782774486066392600,2.764392578125,-0.14102888107299805,-0.2561006546020508,0.042325735092163086
1782774486076402200,2.774402099609375,-0.22701287269592285,-0.29320430755615234,0.011366605758666992
1782774486086381600,2.784381591796875,-0.2951345443725586,-0.38254451751708984,-0.1405632495880127
1782774486096391400,2.794391357421875,-0.2740306854248047,-0.4113168716430664,-0.25358545780181885
1782774486106401000,2.804401123046875,-0.18932747840881348,-0.34842586517333984,-0.1551957130432129
1782774486116380200,2.814380126953125,-0.07417726516723633,-0.2706127166748047,-0.020507216453552246
1782774486126390000,2.82439013671875,0.029422998428344727,-0.10901451110839844,0.22053003311157227
1782774486136399600,2.834399658203125,0.0164334774017334,-0.07688617706298828,0.33598577976226807
1782774486146379000,2.84437890625,-0.09084200859069824,-0.15094757080078125,0.1631385087966919
1782774486156388900,2.854388916015625,-0.23770523071289062,-0.19954776763916016,-0.045107364654541016
1782774486166398700,2.864398681640625,-0.33278346061706543,-0.24079227447509766,-0.1845470666885376
1782774486176377900,2.8743779296875,-0.3408980369567871,-0.2646341323852539,-0.2682516574859619
1782774486186387700,2.8843876953125,-0.24815917015075684,-0.26351261138916016,-0.19454962015151978
1782774486196397600,2.8943974609375,-0.10039138793945312,-0.22286319732666016,-0.12420129776000977
1782774486206407200,2.9044072265625,0.057743072509765625,-0.2078227996826172,-0.12806427478790283
1782774486216386300,2.91438623046875,0.1363697052001953,-0.13277339935302734,-0.09059023857116699
1782774486226396200,2.924396240234375,0.11073732376098633,-0.1683359146118164,-0.07713401317596436
1782774486236405800,2.93440576171875,0.020978927612304688,-0.24596691131591797,-0.23323839902877808
1782774486246385200,2.94438525390625,-0.16399908065795898,-0.23398113250732422,-0.26703882217407227
1782774486256395000,2.95439501953125,-0.2851121425628662,-0.15567398071289062,-0.22914403676986694
1782774486266404600,2.964404541015625,-0.2917897701263428,-0.13458633422851562,-0.1722506284713745
1782774486276384000,2.974384033203125,-0.23081755638122559,-0.06477928161621094,-0.05570721626281738
1782774486286393900,2.984393798828125,-0.06622457504272461,0.03215789794921875,0.003286004066467285
1782774486296403500,2.994403564453125,0.03534412384033203,0.11250495910644531,-0.1373591423034668
1782774486306382800,3.0043828125,0.1483745574951172,0.12331295013427734,-0.2441554069519043
1782774486316392700,3.014392822265625,0.22752141952514648,0.14366531372070312,-0.29664069414138794
1782774486326402300,3.02440234375,0.16416120529174805,0.1418924331665039,-0.27200251817703247
1782774486336381400,3.03438134765625,0.16218233108520508,0.13953018188476562,-0.1954922080039978
1782774486346391300,3.044391357421875,0.17316770553588867,0.17289161682128906,-0.006174325942993164
1782774486356401000,3.05440087890625,0.14641475677490234,0.17987918853759766,0.15021169185638428
1782774486366380300,3.06438037109375,0.09616327285766602,0.1651134490966797,0.19649207592010498
1782774486376390100,3.07439013671875,-0.0012221336364746094,0.0469512939453125,0.18139052391052246
1782774486386399700,3.084399658203125,-0.09538507461547852,-0.07654094696044922,0.11739516258239746
1782774486396379100,3.094379150390625,-0.2631251811981201,-0.2196063995361328,0.028128504753112793
1782774486406389000,3.104388916015625,-0.30370259284973145,-0.33647823333740234,-0.03457915782928467
1782774486416398800,3.11439892578125,-0.32743000984191895,-0.39102840423583984,0.002362847328186035
1782774486426378000,3.1243779296875,-0.3985116481781006,-0.4072990417480469,-0.007958054542541504
1782774486436387600,3.1343876953125,-0.3565046787261963,-0.35901832580566406,0.009092926979064941
1782774486446397400,3.1443974609375,-0.20481538772583008,-0.23367595672607422,0.19168734550476074
1782774486456407000,3.154406982421875,-0.0423579216003418,-0.15546131134033203,0.18574786186218262
1782774486466386400,3.164386474609375,-0.029213905334472656,-0.20617008209228516,0.10109329223632812
1782774486476396300,3.174396240234375,-0.120880126953125,-0.2093372344970703,0.03165793418884277
1782774486486406000,3.184406005859375,-0.23993897438049316,-0.23949337005615234,-0.09723550081253052
1782774486496385300,3.19438525390625,-0.31446146965026855,-0.27741241455078125,-0.16449081897735596
1782774486506395100,3.20439501953125,-0.32379698753356934,-0.22437000274658203,-0.06125473976135254
1782774486516404700,3.21440478515625,-0.11166000366210938,-0.0817861557006836,0.1701134443283081
1782774486526383900,3.2243837890625,0.006497859954833984,0.018220901489257812,0.365964412689209
1782774486536393700,3.234393798828125,0.04438018798828125,0.041213035583496094,0.3622548580169678
1782774486546403300,3.2444033203125,-0.07794356346130371,0.053534507751464844,0.4059007167816162
1782774486556382700,3.2543828125,-0.22640609741210938,0.08153057098388672,0.3772096633911133
1782774486566392600,3.264392578125,-0.375385046005249,0.022462844848632812,0.25799381732940674
1782774486576402200,3.274402099609375,-0.4259507656097412,-0.02256488800048828,0.10957980155944824
1782774486586381600,3.284381591796875,-0.3831954002380371,-0.10029315948486328,-0.017331361770629883
1782774486596391400,3.294391357421875,-0.24607372283935547,-0.12158679962158203,-0.17035764455795288
1782774486606401300,3.3044013671875,-0.026852846145629883,-0.13883304595947266,-0.1736566424369812
1782774486616380400,3.31438037109375,0.09620976448059082,-0.1691274642944336,-0.06985998153686523
1782774486626390000,3.32439013671875,0.18739628791809082,-0.1822967529296875,-0.03575289249420166
1782774486636399900,3.33439990234375,0.1645982265472412,-0.20543956756591797,0.0029898881912231445
1782774486646379000,3.34437890625,0.07616496086120605,-0.22439002990722656,0.024790048599243164
1782774486656388900,3.354388916015625,0.029942035675048828,-0.21050167083740234,-0.006022334098815918
1782774486666398700,3.364398681640625,0.046654462814331055,-0.1801280975341797,0.06588447093963623
1782774486676377900,3.3743779296875,0.029685258865356445,-0.2167510986328125,0.02792680263519287
1782774486686387700,3.3843876953125,0.05041694641113281,-0.21492576599121094,-0.03533804416656494
1782774486696397300,3.394397216796875,0.0821688175201416,-0.22959423065185547,-0.16921651363372803
1782774486706407200,3.4044072265625,0.17655611038208008,-0.23632526397705078,-0.15358281135559082
1782774486716386300,3.41438623046875,0.24698185920715332,-0.3067445755004883,-0.24237847328186035
1782774486726396200,3.424396240234375,0.18709015846252441,-0.3481178283691406,-0.2534332275390625
1782774486736405800,3.43440576171875,0.07055473327636719,-0.3826894760131836,-0.28584492206573486
1782774486746385200,3.44438525390625,0.008165359497070312,-0.3339967727661133,-0.22344446182250977
1782774486756395000,3.45439501953125,-0.08790421485900879,-0.27405548095703125,-0.09137773513793945
1782774486766404600,3.464404541015625,-0.12974071502685547,-0.19057559967041016,0.04554557800292969
1782774486776384000,3.474384033203125,-0.09259486198425293,-0.10702991485595703,0.10304129123687744
1782774486786393900,3.484393798828125,-0.009392023086547852,-0.13054943084716797,0.06823790073394775
1782774486796403500,3.494403564453125,0.04299354553222656,-0.15102767944335938,-0.060063958168029785
1782774486806382800,3.5043828125,0.12952923774719238,-0.19733238220214844,-0.19335156679153442
1782774486816392700,3.514392822265625,0.13848233222961426,-0.26975536346435547,-0.3344483971595764
1782774486826402300,3.52440234375,0.08559632301330566,-0.2634162902832031,-0.32896727323532104
1782774486836381700,3.534381591796875,0.043421030044555664,-0.18562698364257812,-0.2215278148651123
1782774486846391300,3.544391357421875,-0.08040761947631836,-0.11808586120605469,-0.07330620288848877
1782774486856401200,3.554401123046875,-0.13292837142944336,-0.12056159973144531,-0.027718186378479004
1782774486866380300,3.56438037109375,-0.18722033500671387,-0.07773399353027344,0.02672135829925537
1782774486876390100,3.57439013671875,-0.1514139175415039,0.03244209289550781,0.06507158279418945
1782774486886400000,3.58439990234375,-0.024353742599487305,0.03090381622314453,-0.003229856491088867
1782774486896379100,3.594379150390625,0.08408761024475098,-0.053806304931640625,-0.05544602870941162
1782774486906389000,3.604388916015625,0.09647727012634277,-0.1121530532836914,-0.15232282876968384
1782774486916398800,3.61439892578125,0.06477522850036621,-0.14245223999023438,-0.22237944602966309
1782774486926378000,3.6243779296875,-0.029598474502563477,-0.18552207946777344,-0.13750773668289185
1782774486936387600,3.6343876953125,-0.11672043800354004,-0.1264781951904297,0.04571855068206787
1782774486946397200,3.644397216796875,-0.2859156131744385,-0.13510799407958984,0.06501138210296631
1782774486956407000,3.654406982421875,-0.4441704750061035,-0.1395273208618164,0.06728208065032959
1782774486966386400,3.664386474609375,-0.482224702835083,-0.1202239990234375,0.13900446891784668
1782774486976396300,3.674396240234375,-0.3916621208190918,-0.09578609466552734,0.08108258247375488
1782774486986406000,3.684406005859375,-0.32431912422180176,-0.15209579467773438,0.03351747989654541
1782774486996385300,3.69438525390625,-0.13726019859313965,-0.17148303985595703,0.04626595973968506
1782774487006395100,3.70439501953125,-0.009633064270019531,-0.14212608337402344,0.06396102905273438
1782774487016404700,3.71440478515625,0.07724308967590332,-0.09838581085205078,0.052971482276916504
1782774487026384100,3.724384033203125,0.050934553146362305,-0.16312789916992188,0.003409743309020996
1782774487036393700,3.734393798828125,-0.12597060203552246,-0.18831539154052734,-0.008083581924438477
1782774487046403300,3.7444033203125,-0.301135778427124,-0.1256275177001953,-0.03687691688537598
1782774487056382700,3.7543828125,-0.4079866409301758,-0.10651111602783203,-0.059232354164123535
1782774487066392600,3.764392578125,-0.43299317359924316,-0.08028316497802734,0.00122833251953125
1782774487076402200,3.774402099609375,-0.41798925399780273,-0.09912586212158203,0.06317496299743652
1782774487086381600,3.784381591796875,-0.361771821975708,-0.12437057495117188,-0.03240072727203369
1782774487096391400,3.794391357421875,-0.22905731201171875,-0.10074138641357422,-0.04557466506958008
1782774487106401000,3.804401123046875,-0.018144845962524414,-0.04454612731933594,0.07756328582763672
1782774487116380400,3.81438037109375,0.14494705200195312,0.0008497238159179688,0.19478309154510498
1782774487126390000,3.82439013671875,0.3008544445037842,-0.008800506591796875,0.22807955741882324
1782774487136399600,3.834399658203125,0.36499977111816406,-0.03603935241699219,0.1521843671798706
1782774487146379000,3.84437890625,0.23773860931396484,-0.11478900909423828,0.05802881717681885
1782774487156388900,3.854388916015625,0.05391883850097656,-0.17358970642089844,-0.11403512954711914
1782774487166398700,3.864398681640625,-0.13407063484191895,-0.2050304412841797,-0.16612833738327026
1782774487176377900,3.8743779296875,-0.23944616317749023,-0.1913909912109375,-0.11624634265899658
1782774487186387700,3.8843876953125,-0.24233222007751465,-0.1749887466430664,0.02808976173400879
1782774487196397600,3.8943974609375,-0.21559548377990723,-0.15059185028076172,0.1473395824432373
1782774487206407200,3.9044072265625,-0.2691924571990967,-0.15674781799316406,0.12784969806671143
1782774487216386300,3.91438623046875,-0.26416945457458496,-0.20083236694335938,0.08576738834381104
1782774487226396200,3.924396240234375,-0.2463984489440918,-0.21079254150390625,0.05653941631317139
1782774487236405800,3.93440576171875,-0.23746156692504883,-0.25609683990478516,-0.09350764751434326
1782774487246385200,3.94438525390625,-0.1675281524658203,-0.30822277069091797,-0.2707526683807373
1782774487256395000,3.95439501953125,0.016169309616088867,-0.3478879928588867,-0.3328956365585327
1782774487266404600,3.964404541015625,0.1389942169189453,-0.3175840377807617,-0.23772335052490234
1782774487276384000,3.974384033203125,0.3091754913330078,-0.18869495391845703,-0.024346351623535156
1782774487286393900,3.984393798828125,0.29146265983581543,-0.10323429107666016,0.06992566585540771
1782774487296403500,3.994403564453125,0.18319296836853027,-0.12432003021240234,0.005825519561767578
1782774487306382800,4.0043828125,0.013244390487670898,-0.1803579330444336,-0.08361959457397461
1782774487316392700,4.014392822265625,-0.10758614540100098,-0.21079444885253906,-0.14518976211547852
1782774487326402300,4.02440234375,-0.23339462280273438,-0.24126625061035156,-0.22730767726898193
1782774487336381400,4.03438134765625,-0.21868133544921875,-0.3073854446411133,-0.2825976014137268
1782774487346391300,4.044391357421875,-0.21235060691833496,-0.37767791748046875,-0.20930707454681396
1782774487356401000,4.05440087890625,-0.2059645652770996,-0.40134525299072266,-0.1751611828804016
1782774487366380300,4.06438037109375,-0.08623528480529785,-0.3501157760620117,-0.18155723810195923
1782774487376390100,4.07439013671875,0.09416079521179199,-0.3100881576538086,-0.06402647495269775
1782774487386399700,4.084399658203125,0.1879878044128418,-0.2697639465332031,0.05726122856140137
1782774487396379100,4.094379150390625,0.13494873046875,-0.20142555236816406,0.04944252967834473
1782774487406389000,4.104388916015625,0.06676506996154785,-0.18178844451904297,-0.1107935905456543
1782774487416398800,4.11439892578125,-0.012730836868286133,-0.1913318634033203,-0.2649250626564026
1782774487426378000,4.1243779296875,-0.0021636486053466797,-0.14546489715576172,-0.238974928855896
1782774487436387600,4.1343876953125,0.07600545883178711,-0.01970958709716797,-0.09387791156768799
1782774487446397200,4.144397216796875,0.16508173942565918,0.1018686294555664,0.07642853260040283
1782774487456407000,4.154406982421875,0.17843127250671387,0.19206714630126953,0.2025219202041626
1782774487466386400,4.164386474609375,0.11011743545532227,0.1257305145263672,0.2564983367919922
1782774487476396300,4.174396240234375,-0.06397199630737305,0.051238059997558594,0.23705840110778809
1782774487486406000,4.184406005859375,-0.2010819911956787,0.05990886688232422,0.18303346633911133
1782774487496385300,4.19438525390625,-0.23056817054748535,0.05656147003173828,0.14176833629608154
1782774487506395100,4.20439501953125,-0.24821877479553223,0.04611968994140625,0.196069598197937
1782774487516404700,4.21440478515625,-0.21585559844970703,-0.0024318695068359375,0.15634405612945557
1782774487526384000,4.224384033203125,-0.1597764492034912,-0.010089874267578125,0.2547260522842407
1782774487536393700,4.234393798828125,-0.1300971508026123,-0.02718067169189453,0.29468488693237305
1782774487546403300,4.2444033203125,-0.16827893257141113,-0.05926799774169922,0.2694779634475708
1782774487556382700,4.2543828125,-0.27075839042663574,-0.1379079818725586,0.27417314052581787
1782774487566392600,4.264392578125,-0.44904589653015137,-0.2153911590576172,0.21521985530853271
1782774487576402200,4.274402099609375,-0.5173532962799072,-0.20050334930419922,0.11576402187347412
1782774487586381600,4.284381591796875,-0.5061120986938477,-0.14036846160888672,0.07399165630340576
1782774487596391400,4.294391357421875,-0.45724987983703613,-0.1397418975830078,0.07505106925964355
1782774487606401000,4.304401123046875,-0.3740699291229248,-0.12638568878173828,0.13080358505249023
1782774487616380200,4.314380126953125,-0.2712996006011963,-0.09061527252197266,0.13147282600402832
1782774487626390000,4.32439013671875,-0.1826639175415039,-0.09471797943115234,0.07803153991699219
1782774487636399600,4.334399658203125,-0.09870457649230957,-0.1267852783203125,-0.045420289039611816
1782774487646379000,4.34437890625,-0.06963658332824707,-0.21321582794189453,-0.12607431411743164
1782774487656388900,4.354388916015625,0.07238602638244629,-0.20794200897216797,-0.220065176486969
1782774487666398700,4.364398681640625,0.18517398834228516,-0.09225940704345703,-0.19958633184432983
1782774487676377900,4.3743779296875,0.28671932220458984,-0.04133033752441406,-0.022723674774169922
1782774487686387700,4.3843876953125,0.24353909492492676,-0.06264877319335938,0.04516005516052246
1782774487696397300,4.394397216796875,0.16389679908752441,-0.03446769714355469,0.09370207786560059
1782774487706407200,4.4044072265625,0.05931425094604492,-0.0955953598022461,-0.007635593414306641
1782774487716386300,4.41438623046875,-0.05849504470825195,-0.1741952896118164,-0.1766607165336609
1782774487726396200,4.424396240234375,-0.1378951072692871,-0.2650299072265625,-0.365414023399353
1782774487736406000,4.434406005859375,-0.1344003677368164,-0.3029327392578125,-0.4381938576698303
1782774487746385200,4.44438525390625,-0.07253217697143555,-0.24443626403808594,-0.3025577664375305
1782774487756395000,4.45439501953125,-0.01237034797668457,-0.20888614654541016,-0.1402750015258789
1782774487766404600,4.464404541015625,0.039304494857788086,-0.20610904693603516,-0.08003032207489014
1782774487776384000,4.474384033203125,0.08494424819946289,-0.22917938232421875,-0.07204067707061768
1782774487786393900,4.484393798828125,0.08672952651977539,-0.2640419006347656,-0.19692522287368774
1782774487796403500,4.494403564453125,0.11721062660217285,-0.22484779357910156,-0.27003973722457886
1782774487806382800,4.5043828125,0.10281968116760254,-0.18354129791259766,-0.2496553659439087
1782774487816392700,4.514392822265625,0.12714076042175293,-0.1854400634765625,-0.2130436897277832
1782774487826402300,4.52440234375,0.15438079833984375,-0.14437484741210938,-0.12931668758392334
1782774487836381400,4.53438134765625,0.15574932098388672,-0.08190345764160156,-0.10352933406829834
1782774487846391300,4.544391357421875,0.13108301162719727,-0.11305809020996094,-0.194067120552063
1782774487856401000,4.55440087890625,0.08984041213989258,-0.16119384765625,-0.2690485119819641
1782774487866380300,4.56438037109375,0.053597211837768555,-0.19982147216796875,-0.2340683937072754
1782774487876390100,4.57439013671875,-0.038695335388183594,-0.16218280792236328,-0.04807436466217041
1782774487886399700,4.584399658203125,-0.09240531921386719,-0.031943321228027344,0.16108882427215576
1782774487896379100,4.594379150390625,-0.19858217239379883,-0.012669563293457031,0.2935889959335327
1782774487906389000,4.604388916015625,-0.3707609176635742,-0.11358642578125,0.2851555347442627
1782774487916398800,4.61439892578125,-0.35250043869018555,-0.15685081481933594,0.14266276359558105
1782774487926378000,4.6243779296875,-0.24558186531066895,-0.07726097106933594,0.035782575607299805
1782774487936387600,4.6343876953125,-0.10541534423828125,-0.17386722564697266,-0.016988754272460938
1782774487946397200,4.644397216796875,-0.05532097816467285,-0.2962369918823242,-0.12184977531433105
1782774487956407000,4.654406982421875,0.10878515243530273,-0.2913169860839844,-0.06636548042297363
1782774487966386400,4.664386474609375,0.16740775108337402,-0.2095623016357422,0.014130711555480957
1782774487976396300,4.674396240234375,0.12410569190979004,-0.2431192398071289,0.0822458267211914
1782774487986406000,4.684406005859375,-0.03890371322631836,-0.23215103149414062,0.07315635681152344
1782774487996385300,4.69438525390625,-0.18518519401550293,-0.17670059204101562,0.0975348949432373
1782774488006395100,4.70439501953125,-0.2900352478027344,-0.1719036102294922,0.06739437580108643
1782774488016404700,4.71440478515625,-0.327023983001709,-0.2048788070678711,-0.07886624336242676
1782774488026384100,4.724384033203125,-0.19481587409973145,-0.23188209533691406,-0.1374233365058899
1782774488036393700,4.734393798828125,-0.002288341522216797,-0.1756429672241211,-0.06174910068511963
1782774488046403300,4.7444033203125,0.19680166244506836,-0.15876483917236328,0.0015888214111328125
1782774488056382700,4.7543828125,0.33032822608947754,-0.1749258041381836,0.09300434589385986
1782774488066392600,4.764392578125,0.2895824909210205,-0.2055816650390625,0.10474872589111328
1782774488076402200,4.774402099609375,0.20263409614562988,-0.2489309310913086,0.047066569328308105
1782774488086381600,4.784381591796875,0.048833608627319336,-0.3101835250854492,-0.005552768707275391
1782774488096391400,4.794391357421875,-0.08089900016784668,-0.2791938781738281,-0.002747654914855957
1782774488106401000,4.804401123046875,-0.17940521240234375,-0.23005294799804688,0.025726318359375
1782774488116380200,4.814380126953125,-0.254549503326416,-0.21030807495117188,0.08910918235778809
1782774488126390000,4.82439013671875,-0.2670168876647949,-0.16906166076660156,0.18723857402801514
1782774488136400400,4.834400390625,-0.249467134475708,-0.09613704681396484,0.17939352989196777
1782774488146379000,4.84437890625,-0.37215280532836914,-0.10648918151855469,0.09315049648284912
1782774488156388900,4.854388916015625,-0.22843050956726074,-0.09696006774902344,0.16273343563079834
1782774488166398700,4.864398681640625,-0.12159562110900879,-0.19125652313232422,0.0689382553100586
1782774488176377900,4.8743779296875,-0.06754517555236816,-0.2608470916748047,-0.10351604223251343
1782774488186387700,4.8843876953125,0.008568048477172852,-0.18232154846191406,-0.06437313556671143
1782774488196397300,4.894397216796875,0.045206546783447266,-0.17343902587890625,-0.030350923538208008
1782774488206407200,4.9044072265625,0.08994555473327637,-0.1313800811767578,0.031961798667907715
1782774488216386300,4.91438623046875,0.0971059799194336,-0.053641319274902344,0.11270284652709961
1782774488226396200,4.924396240234375,0.0697624683380127,-0.0028171539306640625,0.16683387756347656
1782774488236406000,4.934406005859375,0.01770782470703125,-0.017394065856933594,0.11126911640167236
1782774488246385200,4.94438525390625,-0.059854984283447266,-0.10425853729248047,0.013513803482055664
1782774488256395000,4.95439501953125,-0.020582199096679688,-0.19347095489501953,-0.10201007127761841
1782774488266404600,4.964404541015625,0.03171110153198242,-0.2677879333496094,-0.15003645420074463
1782774488276384000,4.974384033203125,-0.016799211502075195,-0.2557792663574219,-0.14082902669906616
1782774488286393900,4.984393798828125,-0.001975536346435547,-0.1842203140258789,-0.08037805557250977
1782774488296403500,4.994403564453125,-0.09803223609924316,-0.1753978729248047,0.045151591300964355
1782774488306382800,5.0043828125,-0.0926971435546875,-0.20035934448242188,0.06209409236907959
1782774488316392700,5.014392822265625,-0.04985952377319336,-0.20107746124267578,0.053121209144592285
1782774488326402300,5.02440234375,-0.10469675064086914,-0.23702621459960938,-0.031239032745361328
1782774488336381400,5.03438134765625,-0.11553716659545898,-0.2821178436279297,-0.16162383556365967
1782774488346391300,5.044391357421875,-0.08199763298034668,-0.3387432098388672,-0.22220450639724731
1782774488356401200,5.054401123046875,0.015025138854980469,-0.3564939498901367,-0.16840720176696777
1782774488366380300,5.06438037109375,0.08483314514160156,-0.3282909393310547,-0.18236541748046875
1782774488376390100,5.07439013671875,0.16092872619628906,-0.29010963439941406,-0.25145357847213745
1782774488386400000,5.08439990234375,0.23381352424621582,-0.22998905181884766,-0.17479288578033447
1782774488396379100,5.094379150390625,0.26294755935668945,-0.2197093963623047,-0.06586766242980957
1782774488406389000,5.104388916015625,0.22780084609985352,-0.18791770935058594,0.0013478994369506836
1782774488416398800,5.11439892578125,0.09625864028930664,-0.1544647216796875,0.03235280513763428
1782774488426378000,5.1243779296875,-0.07864522933959961,-0.16983890533447266,-0.0059664249420166016
1782774488436387600,5.1343876953125,-0.26346611976623535,-0.14548301696777344,-0.09634727239608765
1782774488446397400,5.1443974609375,-0.3253898620605469,-0.13587379455566406,-0.11460870504379272
1782774488456407000,5.154406982421875,-0.32150912284851074,-0.14720916748046875,-0.035234689712524414
1782774488466386400,5.164386474609375,-0.2715921401977539,-0.15051555633544922,-0.013606429100036621
1782774488476396300,5.174396240234375,-0.15828919410705566,-0.06474590301513672,-0.04173147678375244
1782774488486406000,5.184406005859375,-0.04602980613708496,-0.03355979919433594,0.01376199722290039
1782774488496385300,5.19438525390625,0.0446321964263916,0.00247955322265625,0.013871908187866211
1782774488506395100,5.20439501953125,0.17442107200622559,0.009438514709472656,0.04264485836029053
1782774488516404700,5.21440478515625,0.22457551956176758,0.08266544342041016,0.1383746862411499
1782774488526384000,5.224384033203125,0.0308992862701416,0.07328510284423828,0.09746456146240234
1782774488536393700,5.234393798828125,-0.19042658805847168,0.0694131851196289,0.012248992919921875
1782774488546403300,5.2444033203125,-0.2994205951690674,0.01661396026611328,-0.024448394775390625
1782774488556382700,5.2543828125,-0.3668670654296875,-0.060576438903808594,-0.11792701482772827
1782774488566392600,5.264392578125,-0.43828439712524414,-0.04959583282470703,-0.1390494704246521
1782774488576402200,5.274402099609375,-0.5080242156982422,0.034999847412109375,0.05906820297241211
1782774488586381600,5.284381591796875,-0.5093648433685303,0.054622650146484375,0.15690410137176514
1782774488596391400,5.294391357421875,-0.41724705696105957,0.007369041442871094,0.193365216255188
1782774488606401000,5.304401123046875,-0.24804258346557617,0.037647247314453125,0.3058502674102783
1782774488616380200,5.314380126953125,-0.15707755088806152,0.03592681884765625,0.20241475105285645
1782774488626390000,5.32439013671875,-0.148759126663208,-0.02309894561767578,0.0016046762466430664
1782774488636399900,5.33439990234375,-0.16287827491760254,-0.17057418823242188,-0.15880149602890015
1782774488646379000,5.34437890625,-0.18809151649475098,-0.28402042388916016,-0.27729350328445435
1782774488656388900,5.354388916015625,-0.04323172569274902,-0.26950836181640625,-0.17608195543289185
1782774488666398700,5.364398681640625,0.12151408195495605,-0.1774282455444336,0.009360074996948242
1782774488676377900,5.3743779296875,0.17022371292114258,-0.1479473114013672,0.1548067331314087
1782774488686387700,5.3843876953125,0.14289379119873047,-0.16759681701660156,0.08206045627593994
1782774488696397300,5.394397216796875,0.0225522518157959,-0.1406688690185547,-0.006477236747741699
1782774488706407200,5.4044072265625,-0.08941292762756348,-0.13350868225097656,-0.14443475008010864
1782774488716386300,5.41438623046875,-0.19144058227539062,-0.1145782470703125,-0.19579851627349854
1782774488726396200,5.424396240234375,-0.2458202838897705,-0.08346748352050781,-0.09240150451660156
1782774488736406000,5.434406005859375,-0.31998467445373535,-0.0902109146118164,0.040613651275634766
1782774488746385200,5.44438525390625,-0.3163795471191406,-0.09394550323486328,0.08438026905059814
1782774488756395000,5.45439501953125,-0.2145671844482422,-0.14700984954833984,0.04005634784698486
1782774488766404600,5.464404541015625,-0.07491755485534668,-0.17505359649658203,-0.07004475593566895
1782774488776384000,5.474384033203125,0.09334254264831543,-0.23324966430664062,-0.1409558653831482
1782774488786393900,5.484393798828125,0.22212958335876465,-0.27901363372802734,-0.16602462530136108
1782774488796403500,5.494403564453125,0.27883458137512207,-0.2791557312011719,-0.13616663217544556
1782774488806382800,5.5043828125,0.2881278991699219,-0.25548362731933594,-0.114096999168396
1782774488816392700,5.514392822265625,0.2482442855834961,-0.2130727767944336,-0.05661511421203613
1782774488826342400,5.52434228515625,0.1810314655303955,-0.22864246368408203,-0.023746490478515625
1782774488836595200,5.53459521484375,0.11734533309936523,-0.22553348541259766,-0.036510586738586426
1782774488846391300,5.544391357421875,-0.08039689064025879,-0.26898765563964844,-0.08732783794403076
1782774488856401200,5.554401123046875,-0.15929579734802246,-0.31316566467285156,-0.19745349884033203
1782774488866380300,5.56438037109375,-0.1541154384613037,-0.2856130599975586,-0.16414421796798706
1782774488876390100,5.57439013671875,-0.0760340690612793,-0.24780845642089844,-0.1005927324295044
1782774488886400000,5.58439990234375,-0.06348991394042969,-0.1856088638305664,-0.09027397632598877
1782774488896379100,5.594379150390625,-0.036200523376464844,-0.149871826171875,-0.09942138195037842
1782774488906389000,5.604388916015625,-0.07065629959106445,-0.10943984985351562,-0.011414289474487305
1782774488916398800,5.61439892578125,-0.03341269493103027,-0.08802413940429688,0.05914163589477539
1782774488926378000,5.6243779296875,0.006463766098022461,0.00035858154296875,0.18930232524871826
1782774488936387600,5.6343876953125,-0.06794023513793945,0.031009674072265625,0.2021174430847168
1782774488946397400,5.6443974609375,-0.20124578475952148,-0.027498245239257812,0.043915748596191406
1782774488956407000,5.654406982421875,-0.2077174186706543,-0.05508995056152344,-0.06446337699890137
1782774488966386400,5.664386474609375,-0.11799883842468262,-0.0843820571899414,-0.121307373046875
1782774488976396300,5.674396240234375,-0.07069683074951172,-0.12013053894042969,-0.10146236419677734
1782774488986406000,5.684406005859375,-0.0331575870513916,-0.14855289459228516,-0.06298041343688965
1782774488996385300,5.69438525390625,-0.037825822830200195,-0.138916015625,0.05582594871520996
1782774489006395100,5.70439501953125,-0.006215333938598633,-0.11980533599853516,0.08557868003845215
1782774489016404700,5.71440478515625,-0.02267765998840332,-0.18446922302246094,0.046391963958740234
1782774489026384000,5.7243837890625,-0.08484697341918945,-0.17976760864257812,-0.060918450355529785
1782774489036393700,5.734393798828125,-0.09897518157958984,-0.184783935546875,-0.021580815315246582
1782774489046403300,5.7444033203125,-0.13651442527770996,-0.12767696380615234,0.04326367378234863
1782774489056382700,5.7543828125,-0.15161943435668945,-0.1642599105834961,0.0022287368774414062
1782774489066392600,5.764392578125,-0.09108877182006836,-0.21003246307373047,-0.024171829223632812
1782774489076342500,5.774342529296875,0.03620123863220215,-0.24518299102783203,-0.04733741283416748
1782774489086473000,5.784472900390625,0.1660289764404297,-0.26992130279541016,-0.11729991436004639
1782774489096391400,5.794391357421875,0.24246454238891602,-0.2776355743408203,-0.11503481864929199
1782774489106341400,5.80434130859375,0.2722444534301758,-0.26178550720214844,-0.05414116382598877
1782774489116472000,5.81447216796875,0.08971834182739258,-0.2639303207397461,-0.0565723180770874
1782774489126390000,5.82439013671875,-0.06035900115966797,-0.2173299789428711,-0.07156062126159668
1782774489136340200,5.83434033203125,-0.3104860782623291,-0.1623382568359375,-0.13251733779907227
1782774489146411000,5.844410888671875,-0.3882715702056885,-0.11932849884033203,-0.15968769788742065
1782774489157310000,5.85531005859375,-0.2844092845916748,0.006321907043457031,0.008844733238220215
1782774489176469500,5.874469482421875,-0.009444236755371094,0.07493400573730469,0.13014447689056396
1782774489186387700,5.8843876953125,0.1160120964050293,0.03106975555419922,0.08003664016723633
1782774489197109200,5.895109130859375,0.12425613403320312,-0.032158851623535156,-0.05012619495391846
1782774489216386300,5.91438623046875,0.02272939682006836,-0.08164405822753906,-0.130934476852417
1782774489226396200,5.924396240234375,-0.07562994956970215,-0.11859798431396484,0.049414992332458496
1782774489236406000,5.934406005859375,-0.262174129486084,-0.15410995483398438,0.17027628421783447
1782774489246385200,5.94438525390625,-0.42490267753601074,-0.20241451263427734,0.20609724521636963
1782774489256395000,5.95439501953125,-0.505523681640625,-0.2581348419189453,0.176796555519104
1782774489266404600,5.964404541015625,-0.546600341796875,-0.3350353240966797,0.0001569986343383789
1782774489276384000,5.974384033203125,-0.4587719440460205,-0.38697052001953125,-0.08654999732971191
1782774489286393900,5.984393798828125,-0.18358111381530762,-0.33654308319091797,-0.04417312145233154
1782774489296403500,5.994403564453125,0.05923867225646973,-0.29160404205322266,0.032959818840026855
1782774489306382800,6.0043828125,0.17640185356140137,-0.31793975830078125,-0.005272984504699707
1782774489316392700,6.014392822265625,0.2177283763885498,-0.32068920135498047,-0.12469637393951416
1782774489326402300,6.02440234375,0.17476701736450195,-0.30029296875,-0.1676381230354309
1782774489336381700,6.034381591796875,0.01663994789123535,-0.3286142349243164,-0.23282718658447266
1782774489346391300,6.044391357421875,-0.04437398910522461,-0.27608680725097656,-0.23354315757751465
1782774489356401200,6.054401123046875,-0.01881122589111328,-0.11102104187011719,-0.012981176376342773
1782774489366380300,6.06438037109375,0.005765438079833984,-0.02198314666748047,0.09613358974456787
1782774489376390100,6.07439013671875,0.019947052001953125,-0.023609161376953125,0.1313340663909912
1782774489386400000,6.08439990234375,-0.0029032230377197266,-0.015338897705078125,0.08642268180847168
1782774489396379100,6.094379150390625,-0.010394573211669922,-0.040261268615722656,-0.1430600881576538
1782774489406389000,6.104388916015625,0.011686086654663086,-0.1487445831298828,-0.3619402050971985
1782774489416398800,6.11439892578125,0.13889431953430176,-0.20139503479003906,-0.4606701731681824
1782774489426378000,6.1243779296875,0.2894558906555176,-0.2553873062133789,-0.45690494775772095
1782774489436387600,6.1343876953125,0.40660762786865234,-0.1958904266357422,-0.31633394956588745
1782774489446397400,6.1443974609375,0.4145164489746094,-0.050253868103027344,-0.04420459270477295
1782774489456407000,6.154406982421875,0.25734424591064453,-0.0029773712158203125,0.11802232265472412
1782774489466340900,6.1643408203125,-0.01962900161743164,0.01984882354736328,0.15430057048797607
1782774489477294800,6.175294921875,-0.34404730796813965,0.059592247009277344,0.1376711130142212
1782774489496385300,6.19438525390625,-0.6968719959259033,-0.03464698791503906,-0.19628900289535522
1782774489506335200,6.204335205078125,-0.5384819507598877,-0.07091331481933594,-0.2997954487800598
1782774489516466000,6.2144658203125,-0.15380430221557617,-0.0376739501953125,-0.2133898138999939
1782774489526384000,6.224384033203125,0.19176721572875977,0.019708633422851562,-0.03752624988555908
1782774489536393700,6.234393798828125,0.35217905044555664,0.0058994293212890625,0.13128364086151123
1782774489546343700,6.24434375,0.24793028831481934,-0.03567695617675781,0.20374226570129395
1782774489556414500,6.25441455078125,-0.012078523635864258,-0.14400863647460938,0.0710974931716919
1782774489566434300,6.264434326171875,-0.17810869216918945,-0.1867513656616211,-0.06744527816772461
1782774489576402200,6.274402099609375,-0.3097987174987793,-0.20121192932128906,-0.138167142868042
1782774489586381600,6.284381591796875,-0.32940244674682617,-0.20591259002685547,-0.19203203916549683
1782774489596391400,6.294391357421875,-0.2548222541809082,-0.1547718048095703,-0.07904553413391113
1782774489606401300,6.3044013671875,-0.12227654457092285,-0.03793811798095703,0.19241786003112793
1782774489616380400,6.31438037109375,-0.057299137115478516,0.005110740661621094,0.3616046905517578
1782774489626390000,6.32439013671875,-0.018508434295654297,-0.13152027130126953,0.2343236207962036
1782774489636399900,6.33439990234375,0.03610110282897949,-0.23692035675048828,0.1214834451675415
1782774489646379000,6.34437890625,-0.03229236602783203,-0.3781099319458008,-0.07296288013458252
1782774489656388900,6.354388916015625,-0.1453254222869873,-0.4599466323852539,-0.2926021218299866
1782774489666398700,6.364398681640625,-0.24671483039855957,-0.4538688659667969,-0.20516788959503174
1782774489676377900,6.3743779296875,-0.27251601219177246,-0.3856487274169922,-0.014025688171386719
1782774489686387700,6.3843876953125,-0.20725774765014648,-0.3003807067871094,0.12892460823059082
1782774489696397300,6.394397216796875,-0.11012649536132812,-0.21670913696289062,0.18734681606292725
1782774489706407200,6.4044072265625,-0.03890275955200195,-0.09630775451660156,0.24122905731201172
1782774489716386600,6.414386474609375,-0.03090667724609375,-0.08330535888671875,0.17843592166900635
1782774489726396200,6.424396240234375,-0.06537508964538574,-0.10896682739257812,0.09962308406829834
1782774489736406000,6.434406005859375,-0.09671974182128906,-0.1349506378173828,0.08074462413787842
1782774489746385200,6.44438525390625,-0.12320828437805176,-0.12505722045898438,0.08584713935852051
1782774489756395000,6.45439501953125,-0.07197690010070801,-0.14826488494873047,-0.04676377773284912
1782774489766404600,6.464404541015625,-0.03179645538330078,-0.19015121459960938,-0.08711469173431396
1782774489776324400,6.474324462890625,0.0028922557830810547,-0.18141841888427734,-0.05594348907470703
1782774489786454800,6.484454833984375,0.004761219024658203,-0.18242835998535156,0.00048732757568359375
1782774489796403500,6.494403564453125,-0.08240151405334473,-0.19845008850097656,0.07208609580993652
1782774489806323200,6.5043232421875,-0.1769413948059082,-0.19847869873046875,0.18770766258239746
1782774489816453600,6.51445361328125,-0.26264429092407227,-0.15592098236083984,0.25142693519592285
1782774489826402300,6.52440234375,-0.2519371509552002,-0.09926223754882812,0.19296395778656006
1782774489836381700,6.534381591796875,-0.24433684349060059,-0.05678081512451172,0.13551878929138184
1782774489846391300,6.544391357421875,-0.15525436401367188,-0.07103729248046875,0.010822296142578125
1782774489856341200,6.55434130859375,-0.012074708938598633,-0.16556644439697266,-0.1664034128189087
1782774489866472000,6.564471923828125,0.16648316383361816,-0.2494516372680664,-0.2678401470184326
1782774489876390100,6.57439013671875,0.3173701763153076,-0.16750812530517578,-0.2379770278930664
1782774489886399700,6.584399658203125,0.4174189567565918,-0.0621795654296875,-0.05672335624694824
1782774489896379100,6.594379150390625,0.29375386238098145,0.03223609924316406,0.11031091213226318
1782774489906389000,6.604388916015625,0.088287353515625,0.029083251953125,0.18801510334014893
1782774489916398800,6.61439892578125,-0.17151999473571777,-0.030638694763183594,0.09217286109924316
1782774489926378000,6.6243779296875,-0.37113142013549805,-0.11953163146972656,-0.08746933937072754
1782774489936387600,6.6343876953125,-0.43595194816589355,-0.13362884521484375,-0.14860010147094727
1782774489946397200,6.644397216796875,-0.3137226104736328,-0.12520313262939453,-0.03553354740142822
1782774489956407000,6.654406982421875,-0.2102375030517578,-0.17803287506103516,0.02135157585144043
1782774489966275300,6.664275390625,-0.1487894058227539,-0.21352291107177734,0.04944121837615967
1782774489976487700,6.67448779296875,-0.13118243217468262,-0.14342308044433594,0.07336711883544922
1782774489986406000,6.684406005859375,-0.10746359825134277,-0.12083816528320312,-0.007326602935791016
1782774489996385300,6.69438525390625,-0.06986212730407715,-0.16281795501708984,-0.053470730781555176
1782774490006335200,6.704335205078125,-0.06073403358459473,-0.28872013092041016,-0.13299012184143066
1782774490016406000,6.714406005859375,-0.003072500228881836,-0.32147884368896484,-0.1769828200340271
1782774490026475800,6.724475830078125,0.02679753303527832,-0.29468822479248047,-0.12840783596038818
1782774490036393700,6.734393798828125,0.01201772689819336,-0.27529335021972656,-0.05468547344207764
1782774490046403300,6.7444033203125,0.008379220962524414,-0.2109375,0.01786518096923828
1782774490056382700,6.7543828125,0.013524770736694336,-0.08724689483642578,0.19441616535186768
1782774490066392600,6.764392578125,-0.13117527961730957,-0.014120101928710938,0.35548484325408936
1782774490076402200,6.774402099609375,-0.22728753089904785,-0.015577316284179688,0.27285683155059814
1782774490086381600,6.784381591796875,-0.33524394035339355,-0.14901161193847656,0.055695533752441406
1782774490096391400,6.794391357421875,-0.3875112533569336,-0.26038074493408203,-0.11881756782531738
1782774490106401300,6.8044013671875,-0.29652833938598633,-0.29409217834472656,-0.22025781869888306
1782774490116380200,6.814380126953125,-0.14599394798278809,-0.25711917877197266,-0.10695862770080566
1782774490126390000,6.82439013671875,-0.023419857025146484,-0.2071971893310547,0.07118356227874756
1782774490136400000,6.83439990234375,0.0745241641998291,-0.1759653091430664,0.16660308837890625
1782774490146379000,6.84437890625,0.09809088706970215,-0.13747501373291016,0.18778276443481445
1782774490156388900,6.854388916015625,0.0933084487915039,-0.12326240539550781,0.025976061820983887
1782774490166398700,6.864398681640625,0.06773757934570312,-0.10483837127685547,-0.07159137725830078
1782774490176377900,6.8743779296875,0.01941204071044922,-0.08452510833740234,-0.05429363250732422
1782774490186387700,6.8843876953125,0.03943824768066406,-0.050312042236328125,-0.009071588516235352
1782774490196397300,6.894397216796875,0.10320353507995605,-0.0690164566040039,0.016724467277526855
1782774490206407200,6.9044072265625,0.09000134468078613,-0.13552474975585938,-0.04070854187011719
1782774490216386600,6.914386474609375,0.06764435768127441,-0.13533878326416016,-0.14236843585968018
1782774490226396200,6.924396240234375,0.005577564239501953,-0.14286422729492188,-0.27435123920440674
1782774490236406000,6.934406005859375,-0.10375428199768066,-0.2392873764038086,-0.2575652599334717
1782774490246385200,6.94438525390625,-0.11364102363586426,-0.23472118377685547,-0.2834702730178833
1782774490256395000,6.95439501953125,-0.08377885818481445,-0.12204170227050781,-0.22766298055648804
1782774490266404600,6.964404541015625,-0.11802506446838379,-0.07874202728271484,-0.05441319942474365
1782774490276384000,6.974384033203125,-0.13407278060913086,-0.009378433227539062,0.140020489692688
1782774490286393900,6.984393798828125,-0.08222460746765137,0.10046958923339844,0.3068586587905884
1782774490296403500,6.994403564453125,-0.08870339393615723,0.10756683349609375,0.2931591272354126
1782774490306382800,7.0043828125,-0.06409072875976562,0.0025844573974609375,0.025659561157226562
1782774490316392700,7.014392822265625,0.11232352256774902,-0.13803958892822266,-0.2582293748855591
1782774490326402300,7.02440234375,0.1849820613861084,-0.2664756774902344,-0.3255184292793274
1782774490336381700,7.034381591796875,0.25765466690063477,-0.31110382080078125,-0.3114777207374573
1782774490346391300,7.044391357421875,0.24598908424377441,-0.28454113006591797,-0.21739721298217773
1782774490356401200,7.054401123046875,0.030991554260253906,-0.24773693084716797,-0.028594255447387695
1782774490366380300,7.06438037109375,-0.2596313953399658,-0.21541118621826172,0.12325799465179443
1782774490376390100,7.07439013671875,-0.5592308044433594,-0.1530895233154297,0.2092064619064331
1782774490386400000,7.08439990234375,-0.7037544250488281,-0.10257434844970703,0.12587308883666992
1782774490396379100,7.094379150390625,-0.6537222862243652,-0.13278961181640625,0.04578566551208496
1782774490406389000,7.104388916015625,-0.4493520259857178,-0.10394668579101562,0.1404024362564087
1782774490416398800,7.11439892578125,-0.2159724235534668,-0.07552051544189453,0.20353412628173828
1782774490426378000,7.1243779296875,-0.0556483268737793,-0.10785770416259766,0.12597858905792236
1782774490436387600,7.1343876953125,0.08577775955200195,-0.10114669799804688,0.042665719985961914
1782774490446397200,7.144397216796875,0.23340940475463867,-0.125244140625,0.005702853202819824
1782774490456407000,7.154406982421875,0.29070210456848145,-0.1616220474243164,-0.04530644416809082
1782774490466386400,7.164386474609375,0.29758477210998535,-0.1270914077758789,-0.05367171764373779
1782774490477508000,7.175508056640625,0.24437713623046875,-0.0981283187866211,0.03489255905151367
1782774490496385300,7.19438525390625,-0.08122992515563965,-0.12731266021728516,0.07118713855743408
1782774490506395100,7.20439501953125,-0.25393152236938477,-0.19719696044921875,0.010497212409973145
1782774490516404700,7.21440478515625,-0.4025430679321289,-0.20975685119628906,0.0007112026214599609
1782774490526384000,7.224384033203125,-0.425692081451416,-0.18817424774169922,-0.047423362731933594
1782774490536393700,7.234393798828125,-0.3267478942871094,-0.17749977111816406,-0.0024198293685913086
1782774490546343700,7.24434375,-0.17121291160583496,-0.17499065399169922,0.04723501205444336
1782774490556627000,7.254626953125,0.01056814193725586,-0.15231990814208984,0.044652342796325684
1782774490566392600,7.264392578125,0.16456031799316406,-0.13630199432373047,0.0021265745162963867
1782774490576402200,7.274402099609375,0.1969003677368164,-0.14929485321044922,-0.0325007438659668
1782774490586381600,7.284381591796875,0.1628274917602539,-0.16741085052490234,-0.06658673286437988
1782774490596391400,7.294391357421875,0.09867072105407715,-0.2266521453857422,-0.07451093196868896
1782774490606401000,7.304401123046875,-0.028299570083618164,-0.22202491760253906,-0.0896904468536377
1782774490616380400,7.31438037109375,-0.08612298965454102,-0.18228626251220703,-0.06500625610351562
1782774490626390000,7.32439013671875,-0.0853734016418457,-0.19314956665039062,-0.008055686950683594
1782774490636399900,7.33439990234375,-0.04625511169433594,-0.1416778564453125,0.11505317687988281
1782774490646379000,7.34437890625,-0.010384559631347656,-0.11859512329101562,0.08033967018127441
1782774490656388900,7.354388916015625,-0.07565045356750488,-0.157684326171875,-0.0439680814743042
1782774490666398700,7.364398681640625,-0.08131837844848633,-0.12024307250976562,-0.10205340385437012
1782774490676377900,7.3743779296875,-0.020739316940307617,-0.10643386840820312,-0.13596689701080322
1782774490686387700,7.3843876953125,0.04089474678039551,-0.14706802368164062,-0.048187971115112305
1782774490696397600,7.3943974609375,0.0945274829864502,-0.13227462768554688,0.00837564468383789
1782774490706407200,7.4044072265625,0.0692453384399414,-0.0767965316772461,0.014479517936706543
1782774490716386600,7.414386474609375,0.04064512252807617,-0.11052799224853516,-0.02971959114074707
1782774490726396200,7.424396240234375,-0.0183718204498291,-0.17094898223876953,-0.016064882278442383
1782774490736406000,7.434406005859375,-0.058332204818725586,-0.24571800231933594,-0.06203746795654297
1782774490746385200,7.44438525390625,-0.12455558776855469,-0.21041107177734375,-0.05036187171936035
1782774490756335400,7.45433544921875,-0.17400360107421875,-0.1918354034423828,-0.015004754066467285
1782774490766465800,7.4644658203125,-0.19515728950500488,-0.21849822998046875,0.02221238613128662
1782774490776384000,7.474384033203125,-0.16192102432250977,-0.20896625518798828,0.10497879981994629
1782774490786393900,7.484393798828125,-0.09826850891113281,-0.2038860321044922,0.05099594593048096
1782774490796403500,7.494403564453125,-0.02545928955078125,-0.13879776000976562,0.08581483364105225
1782774490806323200,7.5043232421875,0.006694793701171875,-0.10480690002441406,0.07477843761444092
1782774490816453600,7.51445361328125,-0.0010869503021240234,-0.1597881317138672,-0.029155969619750977
1782774490826402300,7.52440234375,-0.04389071464538574,-0.20320796966552734,-0.09932899475097656
1782774490836381400,7.53438134765625,-0.10298633575439453,-0.19893646240234375,-0.1384374499320984
1782774490846391300,7.544391357421875,-0.15015339851379395,-0.19698524475097656,-0.11576211452484131
1782774490856401000,7.55440087890625,-0.16899847984313965,-0.21151351928710938,-0.08197450637817383
1782774490866380300,7.56438037109375,-0.05226755142211914,-0.06991195678710938,0.1303248405456543
1782774490876390100,7.57439013671875,0.03754425048828125,0.029039382934570312,0.40565967559814453
1782774490886399700,7.584399658203125,-0.05586409568786621,0.04386138916015625,0.40199315547943115
1782774490896379100,7.594379150390625,-0.1736462116241455,-0.04047393798828125,0.2368260622024536
1782774490906389000,7.604388916015625,-0.2663123607635498,-0.10644721984863281,0.016602158546447754
1782774490916339000,7.6143388671875,-0.27552032470703125,-0.16541004180908203,-0.15312546491622925
1782774490926469600,7.6244697265625,-0.21247196197509766,-0.2691326141357422,-0.23334860801696777
1782774490936387600,7.6343876953125,-0.13698625564575195,-0.2905693054199219,-0.19197869300842285
1782774490946397200,7.644397216796875,-0.10724115371704102,-0.23267841339111328,-0.07093667984008789
1782774490956347400,7.654347412109375,-0.016293048858642578,-0.16547393798828125,0.09298670291900635
1782774490966477800,7.664477783203125,0.03536343574523926,-0.13692951202392578,0.25964057445526123
1782774490976396300,7.674396240234375,0.014152050018310547,-0.1208181381225586,0.2697176933288574
1782774490986406000,7.684406005859375,-0.1422877311706543,-0.1628437042236328,0.11104774475097656
1782774490996385300,7.69438525390625,-0.32831764221191406,-0.16982650756835938,-0.0625770092010498
1782774491006395100,7.70439501953125,-0.42806005477905273,-0.19852447509765625,-0.13694071769714355
1782774491016404700,7.71440478515625,-0.38388776779174805,-0.21432018280029297,-0.1109534502029419
1782774491026384000,7.7243837890625,-0.2239387035369873,-0.22602272033691406,-0.12112748622894287
1782774491036334000,7.734333984375,0.015808820724487305,-0.18570613861083984,-0.021524429321289062
1782774491046404900,7.74440478515625,0.1930985450744629,-0.08673286437988281,0.10612797737121582
1782774491056474000,7.75447412109375,0.348588228225708,-0.057025909423828125,0.16630184650421143
1782774491066392600,7.764392578125,0.3524627685546875,-0.051871299743652344,0.19955170154571533
1782774491076402200,7.774402099609375,0.16806507110595703,-0.0840463638305664,0.12049520015716553
1782774491086381600,7.784381591796875,-0.05338907241821289,-0.16825199127197266,-0.07431674003601074
1782774491096391400,7.794391357421875,-0.2487654685974121,-0.2224721908569336,-0.20502954721450806
1782774491106401000,7.804401123046875,-0.3177511692047119,-0.27179527282714844,-0.32290035486221313
1782774491116380200,7.814380126953125,-0.161407470703125,-0.3058338165283203,-0.3020128607749939
1782774491126390000,7.82439013671875,-0.01233983039855957,-0.25246524810791016,-0.13394689559936523
1782774491136400000,7.83439990234375,0.011641740798950195,-0.1291217803955078,0.08681356906890869
1782774491146379000,7.84437890625,-0.04658675193786621,-0.07811927795410156,0.1266695261001587
1782774491156388900,7.854388916015625,-0.11317753791809082,-0.02290630340576172,0.19576525688171387
1782774491166398700,7.864398681640625,-0.21310758590698242,-0.05887603759765625,0.15575313568115234
1782774491176377900,7.8743779296875,-0.33300280570983887,-0.12587642669677734,-0.049817681312561035
1782774491186387700,7.8843876953125,-0.2749056816101074,-0.17330646514892578,-0.2820419669151306
1782774491196397300,7.894397216796875,-0.20431995391845703,-0.12651538848876953,-0.191389262676239
1782774491206407200,7.9044072265625,-0.09967923164367676,-0.17209911346435547,-0.12632381916046143
1782774491216386600,7.914386474609375,0.031868696212768555,-0.09227275848388672,0.13885486125946045
1782774491226396200,7.924396240234375,0.14128708839416504,-0.06160736083984375,0.1683872938156128
1782774491236406000,7.934406005859375,0.12269258499145508,-0.0834360122680664,-0.010158538818359375
1782774491246385200,7.94438525390625,0.08672785758972168,-0.15166473388671875,-0.2209688425064087
1782774491256395000,7.95439501953125,-0.08530139923095703,-0.15632343292236328,-0.13353490829467773
1782774491266404600,7.964404541015625,-0.13853931427001953,-0.15667057037353516,-0.0186922550201416
1782774491276384000,7.974384033203125,-0.15892291069030762,-0.14948463439941406,-0.055161476135253906
1782774491286393900,7.984393798828125,-0.14539861679077148,-0.25411510467529297,-0.15963441133499146
1782774491296403500,7.994403564453125,0.09909343719482422,-0.3091306686401367,-0.028046369552612305
1782774491306382800,8.0043828125,-0.03752398490905762,-0.34858131408691406,-0.07788360118865967
1782774491316392700,8.014392822265625,0.5608944892883301,-0.3115243911743164,-0.057235121726989746
1782774491326402300,8.02440234375,0.42578768730163574,-0.31481456756591797,-0.20593523979187012
1782774491336381400,8.03438134765625,0.44715428352355957,-0.3575878143310547,-0.6256155371665955
1782774491346391300,8.044391357421874,0.49402475357055664,-0.1611003875732422,-0.34114891290664673
1782774491356401000,8.05440087890625,0.458859920501709,-0.15193843841552734,0.31810665130615234
1782774491366380300,8.06438037109375,0.3255758285522461,-0.24270343780517578,0.30881059169769287
1782774491376390100,8.07439013671875,0.6023318767547607,-0.23234081268310547,0.03348338603973389
1782774491386399700,8.084399658203125,-0.23412179946899414,-0.22087574005126953,-0.09832704067230225
1782774491396379100,8.094379150390624,-0.6906096935272217,-0.1397695541381836,-0.25953835248947144
1782774491406389000,8.104388916015624,-0.9278199672698975,-0.2122640609741211,-0.4366953372955322
1782774491416398800,8.11439892578125,-0.7626805305480957,-0.23746967315673828,-0.379930317401886
1782774491426378000,8.1243779296875,-0.6318099498748779,-0.058455467224121094,-0.05538022518157959
1782774491436387600,8.1343876953125,-0.3582804203033447,0.22003650665283203,0.4253726005554199
1782774491446397200,8.144397216796875,-0.17671990394592285,0.2777690887451172,0.7467942237854004
1782774491456407000,8.154406982421875,-0.2787044048309326,0.29290008544921875,0.646574854850769
1782774491466386400,8.164386474609374,-0.4377119541168213,0.07852458953857422,0.2874220609664917
1782774491476396300,8.174396240234374,-0.3198204040527344,-0.1867380142211914,-0.1618451476097107
1782774491486406000,8.184406005859374,0.10282015800476074,-0.44957733154296875,-0.25996214151382446
