time,seconds_elapsed,z,y,x
1782774483466479900,0.16447998046875,-0.018325956538319588,-0.045204028487205505,0.1472185254096985
1782774483476468200,0.17446826171875,-0.019547687843441963,-0.06658431142568588,0.18631389737129211
1782774483486499300,0.184499267578125,-0.0006108652451075613,-0.08002334833145142,0.21441370248794556
1782774483496457200,0.194457275390625,0.015882495790719986,-0.09224065393209457,0.25045475363731384
1782774483506488300,0.20448828125,0.015882495790719986,-0.0757472887635231,0.29016098380088806
1782774483516476700,0.2144765625,0.01160643994808197,-0.0757472887635231,0.31093040108680725
1782774483526477600,0.2244775390625,0.005497787147760391,-0.08552113175392151,0.30604347586631775
1782774483536466000,0.2344658203125,-0.005497787147760391,-0.08552113175392151,0.2730567753314972
1782774483546497000,0.2444970703125,-0.001832595793530345,-0.06719517707824707,0.23029619455337524
1782774483556455000,0.254454833984375,0.021380282938480377,-0.05253441259264946,0.16065755486488342
1782774483566485800,0.26448583984375,0.045204028487205505,-0.06291911751031876,0.12095131725072861
1782774483576474400,0.274474365234375,0.03420845419168472,-0.08246681094169617,0.08735372871160507
1782774483586475000,0.28447509765625,0.021991148591041565,-0.060475658625364304,0.06169738993048668
1782774483596463400,0.29446337890625,0.006108652334660292,-0.031154127791523933,0.04459316283464432
1782774483606494500,0.304494384765625,-0.02932153269648552,-0.016493361443281174,0.03848451003432274
1782774483616452400,0.314452392578125,-0.054367005825042725,-0.02015855349600315,0.029932396486401558
1782774483626483700,0.324483642578125,-0.05803219974040985,-0.018936822190880775,0.015271631069481373
1782774483636472000,0.33447216796875,-0.04153883829712868,0.010995574295520782,0.001832595793530345
1782774483646473000,0.344472900390625,-0.025656340643763542,0.019547687843441963,-0.009773843921720982
1782774483656460800,0.354460693359375,-0.006108652334660292,0.00427605677396059,-0.012828170321881771
1782774483666492200,0.3644921875,0.00427605677396059,-0.018936822190880775,-0.004886921960860491
1782774483676449800,0.37444970703125,0.003054326167330146,-0.03298672288656235,0.00427605677396059
1782774483686481200,0.384481201171875,-0.005497787147760391,-0.012828170321881771,0.01710422709584236
1782774483696469500,0.394469482421875,-0.024434609338641167,0.012217304669320583,0.03420845419168472
1782774483706500900,0.4045009765625,-0.04092797264456749,0.015271631069481373,0.04459316283464432
1782774483716458500,0.41445849609375,-0.04764748737215996,0.014049900695681572,0.04398229718208313
1782774483726489900,0.42448974609375,-0.04581489413976669,0,0.028099801391363144
1782774483736478200,0.434478271484375,-0.0403171069920063,-0.018936822190880775,-0.00366519158706069
1782774483746478800,0.444478759765625,-0.031154127791523933,-0.00366519158706069,-0.03481931984424591
1782774483756467200,0.45446728515625,-0.028099801391363144,0.03848451003432274,-0.0507018156349659
1782774483766498300,0.464498291015625,-0.031154127791523933,0.056810468435287476,-0.04948008432984352
1782774483776456000,0.4744560546875,-0.031154127791523933,0.04214970022439957,-0.036041051149368286
1782774483786487300,0.4844873046875,-0.01710422709584236,0.025045474991202354,-0.018936822190880775
1782774483796475600,0.4944755859375,-0.001832595793530345,0.012217304669320583,0.001832595793530345
1782774483806476000,0.50447607421875,0.0024434609804302454,0.00855211354792118,0.015882495790719986
1782774483816463600,0.514463623046875,-0.003054326167330146,0.001832595793530345,0.01710422709584236
1782774483826495200,0.5244951171875,-0.009773843921720982,0.0012217304902151227,0.01710422709584236
1782774483836452900,0.534452880859375,-0.005497787147760391,0.016493361443281174,0.018936822190880775
1782774483846484000,0.54448388671875,-0.006719517521560192,0.018936822190880775,0.018325956538319588
1782774483856472600,0.55447265625,-0.00366519158706069,0.01038470957428217,0.009773843921720982
1782774483866473200,0.56447314453125,0.0024434609804302454,0.03176499158143997,0.004886921960860491
1782774483876461600,0.574461669921875,0.0012217304902151227,0.048258353024721146,0.004886921960860491
1782774483886493000,0.584492919921875,-0.004886921960860491,0.04337143152952194,0.012217304669320583
1782774483896450600,0.594450439453125,-0.003054326167330146,0.02382374368607998,0.02015855349600315
1782774483906482000,0.60448193359375,-0.0006108652451075613,0.007941247895359993,0.024434609338641167
1782774483916470800,0.614470703125,0.00366519158706069,0.005497787147760391,0.019547687843441963
1782774483926471000,0.624470947265625,0.005497787147760391,0.015271631069481373,0.0024434609804302454
1782774483936459800,0.634459716796875,0.016493361443281174,0.01710422709584236,-0.012828170321881771
1782774483946491000,0.644490966796875,0.015882495790719986,0.010995574295520782,-0.009773843921720982
1782774483956479200,0.654479248046875,0.0012217304902151227,-0.0012217304902151227,0.001832595793530345
1782774483966480000,0.66447998046875,-0.018936822190880775,-0.00733038317412138,-0.0024434609804302454
1782774483976468000,0.674468017578125,-0.01466076634824276,0.05192354694008827,-0.028099801391363144
1782774483986499300,0.684499267578125,0.0024434609804302454,0.09468411654233932,-0.02626720629632473
1782774483996457200,0.694457275390625,0.015882495790719986,0.07880161702632904,-0.004886921960860491
1782774484006488300,0.70448828125,0.02932153269648552,0.028099801391363144,0.021380282938480377
1782774484016477000,0.714476806640625,0.036651913076639175,-0.021991148591041565,0.04092797264456749
1782774484026477600,0.7244775390625,0.03420845419168472,-0.04581489413976669,0.04092797264456749
1782774484036466000,0.7344658203125,0.02932153269648552,-0.04703662544488907,0.02076941914856434
1782774484046496800,0.744496826171875,0.02015855349600315,-0.031154127791523933,-0.007941247895359993
1782774484056454700,0.75445458984375,0.013439035043120384,-0.01710422709584236,-0.031154127791523933
1782774484066485800,0.76448583984375,0.01160643994808197,-0.014049900695681572,-0.04703662544488907
1782774484076474000,0.77447412109375,0.010995574295520782,0.006719517521560192,-0.05742133408784866
1782774484086474800,0.784474853515625,0.007941247895359993,0.01160643994808197,-0.05803219974040985
1782774484096463400,0.79446337890625,0.012217304669320583,0.025045474991202354,-0.05192354694008827
1782774484106494500,0.804494384765625,0.015271631069481373,0.03481931984424591,-0.0354301854968071
1782774484116452600,0.81445263671875,0.02076941914856434,0.028099801391363144,-0.021380282938480377
1782774484126483700,0.824483642578125,0.04214970022439957,0.024434609338641167,-0.00733038317412138
1782774484136472000,0.83447216796875,0.0507018156349659,0.015271631069481373,0.012217304669320583
1782774484146472700,0.84447265625,0.036651913076639175,-0.00427605677396059,0.02382374368607998
1782774484156460800,0.854460693359375,0.03420845419168472,-0.006108652334660292,0.01160643994808197
1782774484166492200,0.8644921875,0.03237585723400116,0.00733038317412138,-0.005497787147760391
1782774484176449800,0.87444970703125,0.01160643994808197,0.00427605677396059,-0.014049900695681572
1782774484186481200,0.884481201171875,-0.005497787147760391,-0.013439035043120384,-0.02321287989616394
1782774484196469500,0.894469482421875,-0.014049900695681572,-0.025045474991202354,-0.030543262138962746
1782774484206500600,0.90450048828125,-0.021991148591041565,-0.015271631069481373,-0.0403171069920063
1782774484216458500,0.91445849609375,-0.018325956538319588,0.005497787147760391,-0.0507018156349659
1782774484226489600,0.924489501953125,-0.01160643994808197,0.025045474991202354,-0.05192354694008827
1782774484236478000,0.93447802734375,-0.010995574295520782,0.025045474991202354,-0.04337143152952194
1782774484246478600,0.944478515625,-0.00855211354792118,0.016493361443281174,-0.03237585723400116
1782774484256466700,0.954466796875,-0.009773843921720982,0.022602014243602753,-0.01710422709584236
1782774484266498000,0.964498046875,-0.018325956538319588,0.03176499158143997,0.004886921960860491
1782774484276456000,0.9744560546875,-0.030543262138962746,0.02626720629632473,0.022602014243602753
1782774484286487000,0.984487060546875,-0.03726277872920036,0.03787364438176155,0.036651913076639175
1782774484296475600,0.9944755859375,-0.03420845419168472,0.0507018156349659,0.04153883829712868
1782774484306476300,1.004476318359375,-0.02932153269648552,0.05497787147760391,0.0354301854968071
1782774484316464600,1.014464599609375,-0.021380282938480377,0.05314527451992035,0.021991148591041565
1782774484326495700,1.024495849609375,-0.018325956538319588,0.04764748737215996,0.01466076634824276
1782774484336453400,1.034453369140625,-0.009162978269159794,0.03787364438176155,0.014049900695681572
1782774484346485000,1.044485107421875,0.0006108652451075613,0.033597588539123535,0.02687807008624077
1782774484356473000,1.05447314453125,0.006108652334660292,0.027488935738801956,0.045204028487205505
1782774484366473500,1.064473388671875,0.006108652334660292,0.013439035043120384,0.05497787147760391
1782774484376462000,1.074462158203125,-0.003054326167330146,0.015882495790719986,0.05742133408784866
1782774484386493400,1.084493408203125,-0.024434609338641167,0.030543262138962746,0.051312681287527084
1782774484396451000,1.094451171875,-0.04459316283464432,0.05253441259264946,0.03298672288656235
1782774484406482200,1.104482177734375,-0.04398229718208313,0.09896016865968704,-0.00855211354792118
1782774484416470800,1.114470703125,-0.039095375686883926,0.056810468435287476,-0.02932153269648552
1782774484426471400,1.124471435546875,-0.022602014243602753,0.025045474991202354,-0.039095375686883926
1782774484436459800,1.134459716796875,-0.0012217304902151227,0.01466076634824276,-0.018936822190880775
1782774484446490600,1.14449072265625,-0.0012217304902151227,0.014049900695681572,0.039095375686883926
1782774484456479200,1.154479248046875,-0.00855211354792118,0.007941247895359993,0.10506882518529892
1782774484466479600,1.164479736328125,-0.01710422709584236,-0.001832595793530345,0.14905111491680145
1782774484476468200,1.17446826171875,-0.014049900695681572,-0.00733038317412138,0.16065755486488342
1782774484486499300,1.184499267578125,0.0012217304902151227,0.0024434609804302454,0.13927727937698364
1782774484496457200,1.194457275390625,0.015271631069481373,0.013439035043120384,0.09712757170200348
1782774484506488300,1.20448828125,0.025045474991202354,0.02687807008624077,0.048258353024721146
1782774484516477000,1.214476806640625,0.016493361443281174,0.033597588539123535,0.0024434609804302454
1782774484526477600,1.2244775390625,-0.012217304669320583,0.02871066704392433,-0.04337143152952194
1782774484536466000,1.2344658203125,-0.02015855349600315,0.024434609338641167,-0.09285151958465576
1782774484546497000,1.2444970703125,-0.02687807008624077,0.05253441259264946,-0.11972958594560623
1782774484556454700,1.25445458984375,-0.029932396486401558,0.05497787147760391,-0.11728613078594208
1782774484566485800,1.26448583984375,-0.025656340643763542,0.02382374368607998,-0.08735372871160507
1782774484576474000,1.27447412109375,-0.021380282938480377,-0.0024434609804302454,-0.04153883829712868
1782774484586475000,1.28447509765625,-0.009162978269159794,-0.009162978269159794,-0.00855211354792118
1782774484596463400,1.29446337890625,0.004886921960860491,0.004886921960860491,0.01160643994808197
1782774484606494500,1.304494384765625,0.00855211354792118,0.027488935738801956,0.03176499158143997
1782774484616452400,1.314452392578125,0.012828170321881771,0.03420845419168472,0.05192354694008827
1782774484626483500,1.3244833984375,0.014049900695681572,0.02321287989616394,0.06902777403593063
1782774484636502000,1.334501953125,0.009162978269159794,0.007941247895359993,0.07696902006864548
1782774484646472400,1.344472412109375,0.0006108652451075613,0.0006108652451075613,0.06169738993048668
1782774484656461000,1.3544609375,-0.018325956538319588,0.007941247895359993,0.031154127791523933
1782774484666492400,1.364492431640625,-0.024434609338641167,0.025045474991202354,-0.00427605677396059
1782774484676450000,1.374449951171875,-0.018936822190880775,0.039095375686883926,-0.018936822190880775
1782774484686481200,1.384481201171875,-0.01771509274840355,0.039095375686883926,-0.009162978269159794
1782774484696469500,1.394469482421875,-0.024434609338641167,0.018936822190880775,0.005497787147760391
1782774484706500600,1.40450048828125,-0.015882495790719986,0.00427605677396059,0.012828170321881771
1782774484716458500,1.41445849609375,-0.004886921960860491,0.009773843921720982,0.02687807008624077
1782774484726489900,1.42448974609375,-0.007941247895359993,0.0006108652451075613,0.04459316283464432
1782774484736478200,1.434478271484375,-0.009162978269159794,-0.012828170321881771,0.04886921867728233
1782774484746479000,1.44447900390625,-0.007941247895359993,-0.009162978269159794,0.04337143152952194
1782774484756467000,1.454467041015625,-0.025045474991202354,-0.005497787147760391,0.033597588539123535
1782774484766498300,1.464498291015625,-0.039706241339445114,-0.001832595793530345,0.012217304669320583
1782774484776456000,1.4744560546875,-0.04459316283464432,0.015882495790719986,-0.00427605677396059
1782774484786487300,1.4844873046875,-0.048258353024721146,0.028099801391363144,-0.006719517521560192
1782774484796475400,1.494475341796875,-0.04764748737215996,0.025045474991202354,-0.001832595793530345
1782774484806476300,1.504476318359375,-0.03481931984424591,0.019547687843441963,-0.0024434609804302454
1782774484816463600,1.514463623046875,-0.018936822190880775,0.02076941914856434,-0.001832595793530345
1782774484826495200,1.5244951171875,0,0.030543262138962746,0.0012217304902151227
1782774484836453000,1.534453125,0.00427605677396059,0.036041051149368286,0.001832595793530345
1782774484846484000,1.54448388671875,0.00855211354792118,0.02626720629632473,0.00427605677396059
1782774484856472600,1.55447265625,0.01038470957428217,0.022602014243602753,0.01771509274840355
1782774484866473200,1.56447314453125,-0.00366519158706069,0.015882495790719986,0.03726277872920036
1782774484876461600,1.574461669921875,-0.01466076634824276,0.016493361443281174,0.04764748737215996
1782774484886492700,1.58449267578125,-0.015882495790719986,0.02626720629632473,0.054367005825042725
1782774484896450600,1.594450439453125,-0.02076941914856434,0.042760565876960754,0.05619960278272629
1782774484906482000,1.60448193359375,-0.00855211354792118,0.04581489413976669,0.048258353024721146
1782774484916470800,1.614470703125,0.012828170321881771,0.048258353024721146,0.039706241339445114
1782774484926471200,1.62447119140625,0.03176499158143997,0.042760565876960754,0.03787364438176155
1782774484936459800,1.634459716796875,0.045204028487205505,0.02382374368607998,0.03726277872920036
1782774484946491000,1.644490966796875,0.039706241339445114,0.007941247895359993,0.039706241339445114
1782774484956479200,1.654479248046875,0.006108652334660292,0.007941247895359993,0.04214970022439957
1782774484966479600,1.664479736328125,-0.025045474991202354,0.01710422709584236,0.02626720629632473
1782774484976468000,1.674468017578125,-0.03420845419168472,0.04092797264456749,0.006719517521560192
1782774484986499300,1.684499267578125,-0.036041051149368286,0.0507018156349659,-0.004886921960860491
1782774484996457200,1.694457275390625,-0.022602014243602753,0.039706241339445114,-0.012828170321881771
1782774485006488300,1.70448828125,-0.006108652334660292,0.015271631069481373,-0.016493361443281174
1782774485016477000,1.714476806640625,0.012217304669320583,0.00733038317412138,-0.014049900695681572
1782774485026477600,1.7244775390625,0.02626720629632473,0.025045474991202354,-0.009773843921720982
1782774485036466000,1.7344658203125,0.03298672288656235,0.025656340643763542,0.015271631069481373
1782774485046496800,1.744496826171875,0.02871066704392433,0.02015855349600315,0.05375614017248154
1782774485056454700,1.75445458984375,0.01160643994808197,-0.001832595793530345,0.08491026610136032
1782774485066485800,1.76448583984375,-0.0012217304902151227,-0.006719517521560192,0.0959058403968811
1782774485076474000,1.77447412109375,-0.010995574295520782,-0.0024434609804302454,0.08491026610136032
1782774485086474800,1.784474853515625,-0.003054326167330146,-0.00366519158706069,0.05803219974040985
1782774485096463400,1.79446337890625,0.0006108652451075613,-0.00427605677396059,0.02382374368607998
1782774485106494500,1.804494384765625,0.01466076634824276,-0.00733038317412138,-0.014049900695681572
1782774485116452400,1.814452392578125,0.024434609338641167,0.004886921960860491,-0.039095375686883926
1782774485126483500,1.8244833984375,0.02076941914856434,0.00733038317412138,-0.039706241339445114
1782774485136472000,1.83447216796875,0.01038470957428217,-0.0024434609804302454,-0.02871066704392433
1782774485146472400,1.844472412109375,0.006719517521560192,-0.00733038317412138,-0.018936822190880775
1782774485156460800,1.854460693359375,0.018325956538319588,-0.00427605677396059,-0.01466076634824276
1782774485166491600,1.86449169921875,0.027488935738801956,-0.005497787147760391,-0.013439035043120384
1782774485176449800,1.87444970703125,0.036041051149368286,-0.01710422709584236,-0.015882495790719986
1782774485186481000,1.88448095703125,0.04337143152952194,-0.024434609338641167,-0.025656340643763542
1782774485196469500,1.894469482421875,0.04153883829712868,-0.02076941914856434,-0.039706241339445114
1782774485206500400,1.904500244140625,0.04337143152952194,-0.015271631069481373,-0.04948008432984352
1782774485216458500,1.91445849609375,0.03848451003432274,-0.014049900695681572,-0.05009094998240471
1782774485226489600,1.924489501953125,0.028099801391363144,-0.012828170321881771,-0.03176499158143997
1782774485236478200,1.934478271484375,0.021991148591041565,-0.0012217304902151227,0.003054326167330146
1782774485246478600,1.944478515625,0.00733038317412138,0.004886921960860491,0.07391469180583954
1782774485256467000,1.954467041015625,-0.0012217304902151227,-0.00427605677396059,0.10323622822761536
1782774485266497800,1.964497802734375,-0.0024434609804302454,-0.004886921960860491,0.10751228034496307
1782774485276456000,1.9744560546875,0.003054326167330146,0.009162978269159794,0.08918632566928864
1782774485286487000,1.984487060546875,0.006719517521560192,0.016493361443281174,0.059864792972803116
1782774485296475400,1.994475341796875,0.006719517521560192,0.0024434609804302454,0.02932153269648552
1782774485306476300,2.004476318359375,0.003054326167330146,-0.015882495790719986,0.003054326167330146
1782774485316464600,2.014464599609375,0,-0.021380282938480377,-0.022602014243602753
1782774485326495700,2.024495849609375,-0.003054326167330146,-0.022602014243602753,-0.04703662544488907
1782774485336453400,2.034453369140625,-0.00366519158706069,-0.015271631069481373,-0.059864792972803116
1782774485346484700,2.044484619140625,-0.00733038317412138,-0.00366519158706069,-0.0507018156349659
1782774485356473000,2.05447314453125,-0.016493361443281174,0.00427605677396059,-0.021991148591041565
1782774485366473700,2.0644736328125,-0.021380282938480377,0.009162978269159794,0.014049900695681572
1782774485376462000,2.074462158203125,-0.013439035043120384,0.0024434609804302454,0.03787364438176155
1782774485386493200,2.0844931640625,0.00733038317412138,-0.006719517521560192,0.048258353024721146
1782774485396451000,2.094451171875,0.025656340643763542,-0.006719517521560192,0.04642575979232788
1782774485406482400,2.104482421875,0.02932153269648552,-0.0012217304902151227,0.03848451003432274
1782774485416470800,2.114470703125,0.024434609338641167,0.0024434609804302454,0.025045474991202354
1782774485426471400,2.124471435546875,0.01466076634824276,0.015271631069481373,0.007941247895359993
1782774485436459800,2.134459716796875,0.004886921960860491,0.02321287989616394,-0.01038470957428217
1782774485446491000,2.144490966796875,-0.001832595793530345,0.021991148591041565,-0.02321287989616394
1782774485456479200,2.154479248046875,-0.00427605677396059,0.01771509274840355,-0.028099801391363144
1782774485466479900,2.16447998046875,0.005497787147760391,0.01466076634824276,-0.036651913076639175
1782774485476468200,2.17446826171875,0.024434609338641167,0.01771509274840355,-0.03848451003432274
1782774485486499300,2.184499267578125,0.039095375686883926,0.00855211354792118,-0.02321287989616394
1782774485496457200,2.194457275390625,0.03726277872920036,-0.007941247895359993,-0.0012217304902151227
1782774485506488300,2.20448828125,0.02687807008624077,-0.013439035043120384,0.006719517521560192
1782774485516476700,2.2144765625,0.025045474991202354,0.007941247895359993,0.00366519158706069
1782774485526477600,2.2244775390625,0.012828170321881771,0.028099801391363144,0.00366519158706069
1782774485536466000,2.2344658203125,0.00366519158706069,0.013439035043120384,0.005497787147760391
1782774485546496800,2.244496826171875,0.009773843921720982,0.0006108652451075613,0.009773843921720982
1782774485556455000,2.254454833984375,0.01710422709584236,0.006719517521560192,0.018325956538319588
1782774485566485800,2.26448583984375,0.02015855349600315,0.005497787147760391,0.025045474991202354
1782774485576474000,2.27447412109375,0.018325956538319588,0.015271631069481373,0.03420845419168472
1782774485586474800,2.284474853515625,0.009162978269159794,0.018325956538319588,0.04642575979232788
1782774485596463400,2.29446337890625,0.001832595793530345,0.009773843921720982,0.04886921867728233
1782774485606494500,2.304494384765625,0.001832595793530345,0.01038470957428217,0.04092797264456749
1782774485616452400,2.314452392578125,0.003054326167330146,0.00366519158706069,0.028099801391363144
1782774485626483500,2.3244833984375,0.001832595793530345,-0.01160643994808197,0.018325956538319588
1782774485636472000,2.33447216796875,-0.003054326167330146,-0.016493361443281174,0.00733038317412138
1782774485646472700,2.34447265625,-0.012217304669320583,-0.01038470957428217,-0.00427605677396059
1782774485656460800,2.354460693359375,-0.005497787147760391,-0.004886921960860491,-0.021991148591041565
1782774485666492200,2.3644921875,0.013439035043120384,-0.013439035043120384,-0.03787364438176155
1782774485676449800,2.37444970703125,0.01710422709584236,-0.04153883829712868,-0.03787364438176155
1782774485686481200,2.384481201171875,0.010995574295520782,-0.03420845419168472,-0.02626720629632473
1782774485696469500,2.394469482421875,-0.00733038317412138,-0.014049900695681572,-0.00733038317412138
1782774485706500600,2.40450048828125,-0.02626720629632473,-0.001832595793530345,0.018936822190880775
1782774485716458500,2.41445849609375,-0.036651913076639175,0.00733038317412138,0.04459316283464432
1782774485726489900,2.42448974609375,-0.02871066704392433,0.010995574295520782,0.05925392732024193
1782774485736478200,2.434478271484375,-0.015271631069481373,0.004886921960860491,0.06108652427792549
1782774485746479000,2.44447900390625,0.0024434609804302454,-0.0006108652451075613,0.04642575979232788
1782774485756467000,2.454467041015625,0.02321287989616394,0.005497787147760391,0.021380282938480377
1782774485766498000,2.464498046875,0.036041051149368286,0.015271631069481373,0.0012217304902151227
1782774485776456000,2.4744560546875,0.0403171069920063,0.016493361443281174,-0.00366519158706069
1782774485786487000,2.484487060546875,0.030543262138962746,0.004886921960860491,0.003054326167330146
1782774485796475400,2.494475341796875,0.015271631069481373,-0.01038470957428217,0.00427605677396059
1782774485806476000,2.50447607421875,0.0012217304902151227,0,0
1782774485816463400,2.51446337890625,-0.009162978269159794,0.02871066704392433,-0.015882495790719986
1782774485826495200,2.5244951171875,-0.009162978269159794,0.04642575979232788,-0.02626720629632473
1782774485836452900,2.534452880859375,-0.0006108652451075613,0.04764748737215996,-0.02321287989616394
1782774485846484000,2.54448388671875,0.015882495790719986,0.029932396486401558,-0.009773843921720982
1782774485856472600,2.55447265625,0.03787364438176155,0.02321287989616394,0.013439035043120384
1782774485866473200,2.56447314453125,0.04214970022439957,0.01160643994808197,0.04398229718208313
1782774485876461600,2.574461669921875,0.02626720629632473,0.0006108652451075613,0.06108652427792549
1782774485886492700,2.58449267578125,0.009162978269159794,0.00427605677396059,0.06108652427792549
1782774485896450800,2.594450927734375,-0.0024434609804302454,0.015271631069481373,0.042760565876960754
1782774485906482000,2.60448193359375,-0.001832595793530345,0.014049900695681572,0.009773843921720982
1782774485916470800,2.614470703125,0.012217304669320583,0.02015855349600315,-0.02076941914856434
1782774485926471400,2.624471435546875,0.015271631069481373,0.02076941914856434,-0.02932153269648552
1782774485936459800,2.634459716796875,0.01710422709584236,0.01466076634824276,-0.025045474991202354
1782774485946490600,2.64449072265625,0.024434609338641167,0.02015855349600315,-0.013439035043120384
1782774485956479200,2.654479248046875,0.02932153269648552,0.025656340643763542,0.010995574295520782
1782774485966479600,2.664479736328125,0.021380282938480377,0.018325956538319588,0.0403171069920063
1782774485976468000,2.674468017578125,0.009773843921720982,0.005497787147760391,0.060475658625364304
1782774485986499300,2.684499267578125,-0.001832595793530345,-0.006719517521560192,0.059864792972803116
1782774485996457200,2.694457275390625,-0.00733038317412138,-0.0024434609804302454,0.031154127791523933
1782774486006488600,2.704488525390625,-0.00427605677396059,0.019547687843441963,-0.009162978269159794
1782774486016477000,2.714476806640625,-0.0024434609804302454,0.03848451003432274,-0.039095375686883926
1782774486026477600,2.7244775390625,-0.001832595793530345,0.04337143152952194,-0.04092797264456749
1782774486036466000,2.7344658203125,-0.005497787147760391,0.033597588539123535,-0.016493361443281174
1782774486046496800,2.744496826171875,-0.007941247895359993,0.012217304669320583,0.01710422709584236
1782774486056454700,2.75445458984375,-0.007941247895359993,0.001832595793530345,0.0354301854968071
1782774486066486000,2.764486083984375,-0.00366519158706069,0.009162978269159794,0.03237585723400116
1782774486076474000,2.77447412109375,-0.0024434609804302454,0.03176499158143997,0.018936822190880775
1782774486086474800,2.784474853515625,-0.005497787147760391,0.0354301854968071,-0.0006108652451075613
1782774486096463400,2.79446337890625,0.00855211354792118,0.02382374368607998,-0.014049900695681572
1782774486106494500,2.804494384765625,0.02871066704392433,0.018936822190880775,-0.021991148591041565
1782774486116452400,2.814452392578125,0.039706241339445114,0.01038470957428217,-0.018325956538319588
1782774486126483500,2.8244833984375,0.039706241339445114,-0.0012217304902151227,-0.010995574295520782
1782774486136472000,2.83447216796875,0.019547687843441963,-0.003054326167330146,0.004886921960860491
1782774486146472700,2.84447265625,-0.007941247895359993,0.0006108652451075613,0.015882495790719986
1782774486156460800,2.854460693359375,-0.02076941914856434,0.006719517521560192,0.004886921960860491
1782774486166492200,2.8644921875,-0.019547687843441963,0.018325956538319588,-0.01466076634824276
1782774486176449800,2.87444970703125,-0.012828170321881771,0.012217304669320583,-0.04153883829712868
1782774486186481000,2.88448095703125,-0.0024434609804302454,0.00855211354792118,-0.06780604273080826
1782774486196469500,2.894469482421875,0.0012217304902151227,0.016493361443281174,-0.08124507963657379
1782774486206500400,2.904500244140625,-0.0012217304902151227,0.027488935738801956,-0.08246681094169617
1782774486216458500,2.91445849609375,0,0.028099801391363144,-0.06902777403593063
1782774486226489600,2.924489501953125,-0.006108652334660292,0.01466076634824276,-0.0354301854968071
1782774486236478000,2.93447802734375,-0.010995574295520782,-0.00366519158706069,-0.005497787147760391
1782774486246478600,2.944478515625,-0.005497787147760391,-0.005497787147760391,0.007941247895359993
1782774486256466700,2.954466796875,0.0006108652451075613,-0.001832595793530345,-0.0024434609804302454
1782774486266498000,2.964498046875,0.0012217304902151227,0,-0.02626720629632473
1782774486276456000,2.9744560546875,0,0.004886921960860491,-0.045204028487205505
1782774486286487300,2.9844873046875,-0.014049900695681572,0.004886921960860491,-0.05314527451992035
1782774486296475400,2.994475341796875,-0.033597588539123535,0.01466076634824276,-0.05497787147760391
1782774486306476300,3.004476318359375,-0.03726277872920036,0.02871066704392433,-0.05192354694008827
1782774486316464600,3.014464599609375,-0.0354301854968071,0.031154127791523933,-0.0354301854968071
1782774486326495700,3.024495849609375,-0.03176499158143997,0.019547687843441963,-0.016493361443281174
1782774486336453600,3.03445361328125,-0.02321287989616394,0.013439035043120384,-0.004886921960860491
1782774486346484700,3.044484619140625,-0.012217304669320583,0.025045474991202354,0.001832595793530345
1782774486356473000,3.05447314453125,-0.01710422709584236,0.03420845419168472,0.006108652334660292
1782774486366473700,3.0644736328125,-0.02932153269648552,0.0354301854968071,0.013439035043120384
1782774486376462000,3.074462158203125,-0.04092797264456749,0.04581489413976669,0.02382374368607998
1782774486386493200,3.0844931640625,-0.04948008432984352,0.05497787147760391,0.031154127791523933
1782774486396451000,3.094451171875,-0.0507018156349659,0.06108652427792549,0.033597588539123535
1782774486406482200,3.104482177734375,-0.04337143152952194,0.05742133408784866,0.03176499158143997
1782774486416470500,3.114470458984375,-0.028099801391363144,0.051312681287527084,0.033597588539123535
1782774486426471200,3.12447119140625,-0.01771509274840355,0.04337143152952194,0.036041051149368286
1782774486436459800,3.134459716796875,-0.006719517521560192,0.029932396486401558,0.027488935738801956
1782774486446490600,3.14449072265625,0.010995574295520782,0.03298672288656235,0.016493361443281174
1782774486456479200,3.154479248046875,0.010995574295520782,0.039706241339445114,0.010995574295520782
1782774486466479600,3.164479736328125,0.006719517521560192,0.04642575979232788,0.018936822190880775
1782774486476468000,3.174468017578125,0.00855211354792118,0.04764748737215996,0.03420845419168472
1782774486486499300,3.184499267578125,0.01466076634824276,0.036041051149368286,0.048258353024721146
1782774486496457200,3.194457275390625,0.027488935738801956,0.015271631069481373,0.04948008432984352
1782774486506488300,3.20448828125,0.05925392732024193,0.00427605677396059,0.03420845419168472
1782774486516477000,3.214476806640625,0.07330382615327835,0.005497787147760391,0.02687807008624077
1782774486526477600,3.2244775390625,0.06841690838336945,0.0006108652451075613,0.039095375686883926
1782774486536466000,3.2344658203125,0.05497787147760391,0.0006108652451075613,0.06414084881544113
1782774486546497000,3.2444970703125,0.04214970022439957,0.0012217304902151227,0.08246681094169617
1782774486556454700,3.25445458984375,0.024434609338641167,-0.006719517521560192,0.08796459436416626
1782774486566485800,3.26448583984375,0.004886921960860491,-0.010995574295520782,0.07635815441608429
1782774486576474000,3.27447412109375,-0.00427605677396059,-0.00855211354792118,0.04703662544488907
1782774486586475000,3.28447509765625,-0.00733038317412138,-0.003054326167330146,0.015271631069481373
1782774486596463400,3.29446337890625,-0.006108652334660292,-0.00733038317412138,-0.012217304669320583
1782774486606494500,3.304494384765625,0.006108652334660292,-0.012828170321881771,-0.02871066704392433
1782774486616452400,3.314452392578125,0.013439035043120384,-0.01160643994808197,-0.028099801391363144
1782774486626483500,3.3244833984375,0.015271631069481373,-0.012828170321881771,-0.015271631069481373
1782774486636501800,3.334501708984375,0.01771509274840355,-0.01038470957428217,0.0024434609804302454
1782774486646472400,3.344472412109375,0.014049900695681572,-0.01710422709584236,0.02015855349600315
1782774486656460800,3.354460693359375,0.009773843921720982,-0.02932153269648552,0.02871066704392433
1782774486666491600,3.36449169921875,0.007941247895359993,-0.025045474991202354,0.02932153269648552
1782774486676449800,3.37444970703125,-0.0006108652451075613,-0.02015855349600315,0.025656340643763542
1782774486686481000,3.38448095703125,-0.00855211354792118,-0.015882495790719986,0.018936822190880775
1782774486696469500,3.394469482421875,-0.010995574295520782,-0.00366519158706069,0.006719517521560192
1782774486706500600,3.40450048828125,-0.00427605677396059,0.013439035043120384,-0.0024434609804302454
1782774486716458500,3.41445849609375,-0.0012217304902151227,0.02626720629632473,0.0006108652451075613
1782774486726489600,3.424489501953125,0.00427605677396059,0.022602014243602753,0.013439035043120384
1782774486736478200,3.434478271484375,0.01466076634824276,0.015271631069481373,0.025656340643763542
1782774486746478800,3.444478759765625,0.02871066704392433,0.00855211354792118,0.03726277872920036
1782774486756467000,3.454467041015625,0.03726277872920036,-0.00366519158706069,0.03848451003432274
1782774486766498300,3.464498291015625,0.031154127791523933,-0.00733038317412138,0.027488935738801956
1782774486776456000,3.4744560546875,0.018936822190880775,0.0006108652451075613,0.004886921960860491
1782774486786487000,3.484487060546875,0,0.01466076634824276,-0.016493361443281174
1782774486796475400,3.494475341796875,-0.013439035043120384,0.02932153269648552,-0.02932153269648552
1782774486806476000,3.50447607421875,-0.02076941914856434,0.031154127791523933,-0.030543262138962746
1782774486816463600,3.514463623046875,-0.01710422709584236,0.02687807008624077,-0.02015855349600315
1782774486826495200,3.5244951171875,-0.0012217304902151227,0.02932153269648552,-0.00733038317412138
1782774486836452900,3.534452880859375,0.012828170321881771,0.021380282938480377,0.005497787147760391
1782774486846484000,3.54448388671875,0.02015855349600315,0.005497787147760391,0.015271631069481373
1782774486856472600,3.55447265625,0.016493361443281174,-0.001832595793530345,0.013439035043120384
1782774486866473200,3.56447314453125,0.01038470957428217,0.014049900695681572,0.0012217304902151227
1782774486876461600,3.574461669921875,0.006108652334660292,0.03481931984424591,-0.02076941914856434
1782774486886492700,3.58449267578125,-0.00733038317412138,0.04764748737215996,-0.039095375686883926
1782774486896450800,3.594450927734375,-0.012828170321881771,0.0507018156349659,-0.0403171069920063
1782774486906482000,3.60448193359375,-0.016493361443281174,0.04214970022439957,-0.022602014243602753
1782774486916470800,3.614470703125,-0.014049900695681572,0.02871066704392433,-0.001832595793530345
1782774486926471200,3.62447119140625,0.006719517521560192,0.033597588539123535,0.02321287989616394
1782774486936459800,3.634459716796875,0.013439035043120384,0.02932153269648552,0.039095375686883926
1782774486946490600,3.64449072265625,0.00855211354792118,0.013439035043120384,0.04764748737215996
1782774486956479200,3.654479248046875,0.00427605677396059,0.013439035043120384,0.04153883829712868
1782774486966480000,3.66447998046875,0.00427605677396059,0.013439035043120384,0.022602014243602753
1782774486976468000,3.674468017578125,-0.00427605677396059,0.018325956538319588,-0.0012217304902151227
1782774486986499300,3.684499267578125,-0.007941247895359993,0.022602014243602753,-0.021380282938480377
1782774486996457200,3.694457275390625,-0.007941247895359993,0.02626720629632473,-0.03420845419168472
1782774487006488300,3.70448828125,-0.005497787147760391,0.02871066704392433,-0.025656340643763542
1782774487016477000,3.714476806640625,-0.0024434609804302454,0.02321287989616394,-0.0012217304902151227
1782774487026477600,3.7244775390625,-0.0024434609804302454,0.015271631069481373,0.028099801391363144
1782774487036466000,3.7344658203125,0.003054326167330146,0.014049900695681572,0.04398229718208313
1782774487046496800,3.744496826171875,0.00855211354792118,0.00733038317412138,0.04886921867728233
1782774487056454700,3.75445458984375,0.012217304669320583,-0.006719517521560192,0.039706241339445114
1782774487066485800,3.76448583984375,0.016493361443281174,-0.012217304669320583,0.018325956538319588
1782774487076474400,3.774474365234375,0.01466076634824276,-0.00733038317412138,-0.009162978269159794
1782774487086475000,3.78447509765625,0.009773843921720982,0.0012217304902151227,-0.03481931984424591
1782774487096463400,3.79446337890625,0.01160643994808197,0.005497787147760391,-0.05864306539297104
1782774487106494500,3.804494384765625,0.019547687843441963,0.003054326167330146,-0.0708603709936142
1782774487116452400,3.814452392578125,0.018936822190880775,0.0012217304902151227,-0.05864306539297104
1782774487126483700,3.824483642578125,0.00855211354792118,0.0012217304902151227,-0.03176499158143997
1782774487136472000,3.83447216796875,0,0.005497787147760391,0.0024434609804302454
1782774487146472700,3.84447265625,-0.00427605677396059,0.012828170321881771,0.04153883829712868
1782774487156460800,3.854460693359375,-0.004886921960860491,0.007941247895359993,0.07208210229873657
1782774487166492000,3.864491943359375,0.006719517521560192,0.005497787147760391,0.08185594528913498
1782774487176449800,3.87444970703125,0.02015855349600315,0.0024434609804302454,0.0757472887635231
1782774487186481000,3.88448095703125,0.030543262138962746,0.0012217304902151227,0.05742133408784866
1782774487196469500,3.894469482421875,0.027488935738801956,0.00427605677396059,0.0403171069920063
1782774487206500600,3.90450048828125,0.01160643994808197,0.00855211354792118,0.02382374368607998
1782774487216458500,3.91445849609375,0,0.00855211354792118,0.003054326167330146
1782774487226489600,3.924489501953125,-0.007941247895359993,0.015882495790719986,-0.01466076634824276
1782774487236478200,3.934478271484375,-0.018936822190880775,0.01710422709584236,-0.025656340643763542
1782774487246478800,3.944478759765625,-0.02015855349600315,0.01038470957428217,-0.0354301854968071
1782774487256467000,3.954467041015625,-0.00855211354792118,0.01160643994808197,-0.04337143152952194
1782774487266498000,3.964498046875,0.009773843921720982,0.012828170321881771,-0.042760565876960754
1782774487276456000,3.9744560546875,0.027488935738801956,0.009162978269159794,-0.021991148591041565
1782774487286487000,3.984487060546875,0.027488935738801956,0.0006108652451075613,0.01466076634824276
1782774487296475400,3.994475341796875,0.015882495790719986,-0.003054326167330146,0.04703662544488907
1782774487306476300,4.004476318359375,0.006108652334660292,0.010995574295520782,0.05803219974040985
1782774487316464600,4.014464599609375,0.006108652334660292,0.03176499158143997,0.05253441259264946
1782774487326495500,4.02449560546875,0.006108652334660292,0.033597588539123535,0.04214970022439957
1782774487336453600,4.03445361328125,0.007941247895359993,0.016493361443281174,0.025045474991202354
1782774487346484500,4.044484375,0.016493361443281174,0.015271631069481373,-0.003054326167330146
1782774487356473000,4.05447314453125,0.01771509274840355,0.018936822190880775,-0.019547687843441963
1782774487366473700,4.0644736328125,0.021991148591041565,0.018936822190880775,-0.033597588539123535
1782774487376462000,4.074462158203125,0.029932396486401558,0.02015855349600315,-0.03298672288656235
1782774487386493200,4.0844931640625,0.025045474991202354,0.02076941914856434,-0.012217304669320583
1782774487396451000,4.094451171875,0.01771509274840355,0.02015855349600315,0.007941247895359993
1782774487406482200,4.104482177734375,0.010995574295520782,0.02321287989616394,0.016493361443281174
1782774487416470500,4.114470458984375,0.012217304669320583,0.02626720629632473,0.006719517521560192
1782774487426471400,4.124471435546875,0.02321287989616394,0.03848451003432274,-0.013439035043120384
1782774487436459800,4.134459716796875,0.03298672288656235,0.048258353024721146,-0.02626720629632473
1782774487446490600,4.14449072265625,0.036041051149368286,0.048258353024721146,-0.02076941914856434
1782774487456479200,4.154479248046875,0.027488935738801956,0.0354301854968071,-0.001832595793530345
1782774487466479600,4.164479736328125,0.012217304669320583,0.02932153269648552,0.015882495790719986
1782774487476468200,4.17446826171875,-0.001832595793530345,0.036651913076639175,0.025045474991202354
1782774487486499600,4.18449951171875,-0.01160643994808197,0.04214970022439957,0.02015855349600315
1782774487496457200,4.194457275390625,-0.01771509274840355,0.04153883829712868,0.01160643994808197
1782774487506488300,4.20448828125,-0.02015855349600315,0.03237585723400116,0.0012217304902151227
1782774487516477000,4.214476806640625,-0.02626720629632473,0.02382374368607998,-0.007941247895359993
1782774487526477600,4.2244775390625,-0.025045474991202354,0.03176499158143997,-0.012217304669320583
1782774487536465700,4.234465576171875,-0.02932153269648552,0.03481931984424591,0.0012217304902151227
1782774487546497000,4.2444970703125,-0.03787364438176155,0.01710422709584236,0.021380282938480377
1782774487556455000,4.254454833984375,-0.04214970022439957,0.003054326167330146,0.039095375686883926
1782774487566486000,4.264486083984375,-0.045204028487205505,-0.00733038317412138,0.04948008432984352
1782774487576474000,4.27447412109375,-0.048258353024721146,-0.022602014243602753,0.04214970022439957
1782774487586475000,4.28447509765625,-0.04459316283464432,-0.03420845419168472,0.025656340643763542
1782774487596463400,4.29446337890625,-0.039706241339445114,-0.036651913076639175,0.005497787147760391
1782774487606494700,4.30449462890625,-0.03726277872920036,-0.04092797264456749,-0.01160643994808197
1782774487616452400,4.314452392578125,-0.0403171069920063,-0.045204028487205505,-0.02382374368607998
1782774487626483500,4.3244833984375,-0.04337143152952194,-0.048258353024721146,-0.02932153269648552
1782774487636472000,4.33447216796875,-0.04764748737215996,-0.04337143152952194,-0.03420845419168472
1782774487646472700,4.34447265625,-0.042760565876960754,-0.039095375686883926,-0.036651913076639175
1782774487656460800,4.354460693359375,-0.031154127791523933,-0.03726277872920036,-0.03176499158143997
1782774487666492200,4.3644921875,-0.012217304669320583,-0.036041051149368286,-0.02015855349600315
1782774487676449800,4.37444970703125,0,-0.039706241339445114,-0.003054326167330146
1782774487686481000,4.38448095703125,0.0006108652451075613,-0.039706241339445114,0.02076941914856434
1782774487696469500,4.394469482421875,-0.006108652334660292,-0.031154127791523933,0.039095375686883926
1782774487706500400,4.404500244140625,-0.01710422709584236,-0.018325956538319588,0.05253441259264946
1782774487716458500,4.41445849609375,-0.027488935738801956,-0.010995574295520782,0.0555887371301651
1782774487726489900,4.42448974609375,-0.025656340643763542,-0.01160643994808197,0.04764748737215996
1782774487736478000,4.43447802734375,-0.015882495790719986,-0.004886921960860491,0.033597588539123535
1782774487746478800,4.444478759765625,0.006719517521560192,-0.003054326167330146,0.015271631069481373
1782774487756467200,4.45446728515625,0.019547687843441963,-0.003054326167330146,0.001832595793530345
1782774487766498000,4.464498046875,0.015271631069481373,0.00427605677396059,-0.00855211354792118
1782774487776456000,4.4744560546875,0.012217304669320583,0.01710422709584236,-0.01038470957428217
1782774487786487000,4.484487060546875,0.00855211354792118,0.025045474991202354,-0.0024434609804302454
1782774487796475600,4.4944755859375,0.013439035043120384,0.022602014243602753,0.009162978269159794
1782774487806476000,4.50447607421875,0.02076941914856434,0.014049900695681572,0.018325956538319588
1782774487816463600,4.514463623046875,0.027488935738801956,0.012217304669320583,0.028099801391363144
1782774487826495200,4.5244951171875,0.036041051149368286,0.025656340643763542,0.036651913076639175
1782774487836452900,4.534452880859375,0.03481931984424591,0.03848451003432274,0.045204028487205505
1782774487846484200,4.544484130859375,0.03237585723400116,0.045204028487205505,0.0507018156349659
1782774487856472600,4.55447265625,0.04092797264456749,0.05497787147760391,0.05375614017248154
1782774487866473200,4.56447314453125,0.05314527451992035,0.06169738993048668,0.05803219974040985
1782774487876461600,4.574461669921875,0.06169738993048668,0.054367005825042725,0.06963863968849182
1782774487886492700,4.58449267578125,0.05864306539297104,0.024434609338641167,0.08002334833145142
1782774487896450600,4.594450439453125,0.04214970022439957,0.00427605677396059,0.08368854224681854
1782774487906482000,4.60448193359375,0.01466076634824276,0.009773843921720982,0.06902777403593063
1782774487916470500,4.614470458984375,-0.005497787147760391,0.02076941914856434,0.04153883829712868
1782774487926471200,4.62447119140625,-0.015882495790719986,0.03176499158143997,0.014049900695681572
1782774487936459800,4.634459716796875,-0.02076941914856434,0.02932153269648552,0
1782774487946490600,4.64449072265625,-0.021380282938480377,0.02382374368607998,-0.009162978269159794
1782774487956479200,4.654479248046875,-0.009773843921720982,0.018936822190880775,-0.00855211354792118
1782774487966479600,4.664479736328125,-0.003054326167330146,0.029932396486401558,0.009162978269159794
1782774487976468200,4.67446826171875,-0.003054326167330146,0.018325956538319588,0.03481931984424591
1782774487986499300,4.684499267578125,-0.01038470957428217,0.001832595793530345,0.0555887371301651
1782774487996457200,4.694457275390625,-0.018325956538319588,-0.0024434609804302454,0.059864792972803116
1782774488006488600,4.704488525390625,-0.025656340643763542,0.005497787147760391,0.0403171069920063
1782774488016477000,4.714476806640625,-0.03787364438176155,0.01160643994808197,0.005497787147760391
1782774488026477600,4.7244775390625,-0.036041051149368286,0.01771509274840355,-0.04092797264456749
1782774488036466000,4.7344658203125,-0.025045474991202354,0.03420845419168472,-0.07147123664617538
1782774488046496800,4.744496826171875,-0.019547687843441963,0.03726277872920036,-0.07452555745840073
1782774488056454700,4.75445458984375,-0.019547687843441963,0.03237585723400116,-0.05925392732024193
1782774488066485800,4.76448583984375,-0.02382374368607998,0.02871066704392433,-0.03176499158143997
1782774488076474000,4.77447412109375,-0.02932153269648552,0.021991148591041565,-0.003054326167330146
1782774488086475000,4.78447509765625,-0.02687807008624077,0.03298672288656235,0.02015855349600315
1782774488096463400,4.79446337890625,-0.01710422709584236,0.03481931984424591,0.039706241339445114
1782774488106494500,4.804494384765625,-0.012217304669320583,0.019547687843441963,0.051312681287527084
1782774488116452400,4.814452392578125,-0.007941247895359993,0.00855211354792118,0.051312681287527084
1782774488126483700,4.824483642578125,-0.006108652334660292,0.007941247895359993,0.03420845419168472
1782774488136472300,4.834472412109375,-0.014049900695681572,0.01160643994808197,0.01160643994808197
1782774488146472700,4.84447265625,-0.021991148591041565,0.012828170321881771,-0.013439035043120384
1782774488156460800,4.854460693359375,-0.018936822190880775,0.0006108652451075613,-0.051312681287527084
1782774488166491600,4.86449169921875,-0.03176499158143997,0.01771509274840355,-0.07147123664617538
1782774488176449800,4.87444970703125,-0.039706241339445114,0.010995574295520782,-0.06291911751031876
1782774488186481000,4.88448095703125,-0.01710422709584236,-0.015271631069481373,-0.04886921867728233
1782774488196469500,4.894469482421875,-0.01038470957428217,-0.012217304669320583,-0.036651913076639175
1782774488206500600,4.90450048828125,-0.00366519158706069,-0.010995574295520782,-0.02687807008624077
1782774488216458500,4.91445849609375,-0.0012217304902151227,-0.003054326167330146,-0.009162978269159794
1782774488226489600,4.924489501953125,-0.007941247895359993,-0.00366519158706069,0.009162978269159794
1782774488236478000,4.93447802734375,-0.01771509274840355,-0.00855211354792118,0.01710422709584236
1782774488246478800,4.944478759765625,-0.025045474991202354,-0.0006108652451075613,0.012828170321881771
1782774488256467000,4.954467041015625,-0.02321287989616394,0.009162978269159794,0
1782774488266498000,4.964498046875,-0.012828170321881771,0.02321287989616394,-0.0006108652451075613
1782774488276456000,4.9744560546875,-0.0006108652451075613,0.012828170321881771,0.010995574295520782
1782774488286487000,4.984487060546875,0.01038470957428217,-0.01038470957428217,0.025045474991202354
1782774488296475400,4.994475341796875,0.013439035043120384,-0.02382374368607998,0.03237585723400116
1782774488306476000,5.00447607421875,0.00855211354792118,-0.022602014243602753,0.02382374368607998
1782774488316464600,5.014464599609375,0.00733038317412138,0.004886921960860491,0.004886921960860491
1782774488326495700,5.024495849609375,0,0.03298672288656235,-0.009162978269159794
1782774488336453600,5.03445361328125,-0.00427605677396059,0.02871066704392433,-0.021380282938480377
1782774488346484700,5.044484619140625,0.00366519158706069,0.02687807008624077,-0.03176499158143997
1782774488356473000,5.05447314453125,0.015271631069481373,0.025656340643763542,-0.03726277872920036
1782774488366473700,5.0644736328125,0.02015855349600315,0.015271631069481373,-0.039706241339445114
1782774488376462000,5.074462158203125,0.02626720629632473,0.004886921960860491,-0.039095375686883926
1782774488386493200,5.0844931640625,0.04214970022439957,0.005497787147760391,-0.0354301854968071
1782774488396451000,5.094451171875,0.051312681287527084,0.006108652334660292,-0.025045474991202354
1782774488406482200,5.104482177734375,0.0507018156349659,0.012217304669320583,-0.009162978269159794
1782774488416470500,5.114470458984375,0.04764748737215996,0.02015855349600315,0.001832595793530345
1782774488426471400,5.124471435546875,0.04092797264456749,0.027488935738801956,0.009773843921720982
1782774488436459800,5.134459716796875,0.03237585723400116,0.02015855349600315,0.009162978269159794
1782774488446491000,5.144490966796875,0.03237585723400116,0.010995574295520782,-0.009773843921720982
1782774488456479200,5.154479248046875,0.036651913076639175,0.014049900695681572,-0.03298672288656235
1782774488466479900,5.16447998046875,0.033597588539123535,0.018936822190880775,-0.04886921867728233
1782774488476468200,5.17446826171875,0.03420845419168472,0.018325956538319588,-0.060475658625364304
1782774488486499300,5.184499267578125,0.03726277872920036,0.02015855349600315,-0.05864306539297104
1782774488496457200,5.194457275390625,0.0354301854968071,0.01771509274840355,-0.04703662544488907
1782774488506488600,5.204488525390625,0.03420845419168472,0.015882495790719986,-0.02626720629632473
1782774488516477000,5.214476806640625,0.03848451003432274,0.021380282938480377,0.005497787147760391
1782774488526477600,5.2244775390625,0.024434609338641167,0.02015855349600315,0.04337143152952194
1782774488536466000,5.2344658203125,0.013439035043120384,0.01160643994808197,0.06291911751031876
1782774488546496800,5.244496826171875,0.012217304669320583,0.021380282938480377,0.06536258012056351
1782774488556454700,5.25445458984375,0.014049900695681572,0.02871066704392433,0.06108652427792549
1782774488566486000,5.264486083984375,0.016493361443281174,0.01466076634824276,0.054367005825042725
1782774488576474000,5.27447412109375,0.02382374368607998,-0.0012217304902151227,0.04153883829712868
1782774488586475000,5.28447509765625,0.02015855349600315,-0.02076941914856434,0.025045474991202354
1782774488596463400,5.29446337890625,0.003054326167330146,-0.036041051149368286,0.0012217304902151227
1782774488606494500,5.304494384765625,-0.012828170321881771,-0.010995574295520782,-0.029932396486401558
1782774488616452400,5.314452392578125,-0.03787364438176155,-0.006719517521560192,-0.029932396486401558
1782774488626483500,5.3244833984375,-0.05314527451992035,-0.022602014243602753,-0.025656340643763542
1782774488636502000,5.334501953125,-0.05375614017248154,-0.025656340643763542,-0.028099801391363144
1782774488646472700,5.34447265625,-0.0403171069920063,-0.02015855349600315,-0.03787364438176155
1782774488656460800,5.354460693359375,-0.01771509274840355,-0.01466076634824276,-0.04214970022439957
1782774488666492200,5.3644921875,-0.00427605677396059,-0.022602014243602753,-0.021991148591041565
1782774488676449800,5.37444970703125,-0.009162978269159794,-0.04153883829712868,0.010995574295520782
1782774488686481000,5.38448095703125,-0.02076941914856434,-0.04337143152952194,0.04214970022439957
1782774488696469500,5.394469482421875,-0.02076941914856434,-0.024434609338641167,0.05742133408784866
1782774488706500600,5.40450048828125,-0.018325956538319588,-0.010995574295520782,0.06230825558304787
1782774488716458500,5.41445849609375,-0.009773843921720982,-0.015882495790719986,0.05803219974040985
1782774488726489600,5.424489501953125,0.0006108652451075613,-0.029932396486401558,0.045204028487205505
1782774488736478000,5.43447802734375,0.001832595793530345,-0.0403171069920063,0.024434609338641167
1782774488746478800,5.444478759765625,-0.00427605677396059,-0.03848451003432274,-0.00366519158706069
1782774488756467200,5.45446728515625,-0.014049900695681572,-0.03176499158143997,-0.031154127791523933
1782774488766498000,5.464498046875,-0.018325956538319588,-0.021991148591041565,-0.051312681287527084
1782774488776456000,5.4744560546875,-0.018325956538319588,-0.01466076634824276,-0.060475658625364304
1782774488786487000,5.484487060546875,-0.01038470957428217,-0.009162978269159794,-0.0555887371301651
1782774488796475400,5.494475341796875,0.0024434609804302454,-0.006108652334660292,-0.03848451003432274
1782774488806476300,5.504476318359375,0.01160643994808197,-0.003054326167330146,-0.01466076634824276
1782774488816463600,5.514463623046875,0.016493361443281174,-0.007941247895359993,0.00733038317412138
1782774488826434000,5.52443408203125,0.021991148591041565,0.001832595793530345,0.025045474991202354
1782774488836666600,5.53466650390625,0.02382374368607998,0.01710422709584236,0.04214970022439957
1782774488846484200,5.544484130859375,0.021380282938480377,0.018325956538319588,0.05375614017248154
1782774488856472600,5.55447265625,0.021380282938480377,0.012217304669320583,0.04948008432984352
1782774488866473200,5.56447314453125,0.033597588539123535,0.019547687843441963,0.03298672288656235
1782774488876461600,5.574461669921875,0.04459316283464432,0.03237585723400116,0.021991148591041565
1782774488886492700,5.58449267578125,0.04398229718208313,0.022602014243602753,0.02382374368607998
1782774488896450600,5.594450439453125,0.045204028487205505,0.006108652334660292,0.024434609338641167
1782774488906482000,5.60448193359375,0.04948008432984352,0.007941247895359993,0.02076941914856434
1782774488916470800,5.614470703125,0.048258353024721146,0.007941247895359993,0.021380282938480377
1782774488926471400,5.624471435546875,0.042760565876960754,-0.0012217304902151227,0.025656340643763542
1782774488936459800,5.634459716796875,0.024434609338641167,-0.00855211354792118,0.03420845419168472
1782774488946491000,5.644490966796875,0.003054326167330146,-0.00855211354792118,0.03237585723400116
1782774488956479200,5.654479248046875,-0.006108652334660292,0.0006108652451075613,0.010995574295520782
1782774488966479600,5.664479736328125,-0.0012217304902151227,0.012217304669320583,-0.006719517521560192
1782774488976468200,5.67446826171875,0.0012217304902151227,0.00427605677396059,-0.009162978269159794
1782774488986499300,5.684499267578125,0.0024434609804302454,-0.018325956538319588,-0.0012217304902151227
1782774488996457200,5.694457275390625,0.004886921960860491,-0.024434609338641167,0.0024434609804302454
1782774489006488300,5.70448828125,0.001832595793530345,-0.01771509274840355,0.0012217304902151227
1782774489016476700,5.7144765625,-0.007941247895359993,-0.00733038317412138,0
1782774489026477300,5.724477294921875,-0.016493361443281174,-0.01160643994808197,0.0012217304902151227
1782774489036466000,5.7344658203125,-0.012217304669320583,-0.021991148591041565,0.005497787147760391
1782774489046497000,5.7444970703125,-0.015882495790719986,-0.04398229718208313,0.012217304669320583
1782774489056455000,5.754454833984375,-0.024434609338641167,-0.05742133408784866,0
1782774489066486000,5.764486083984375,-0.02321287989616394,-0.033597588539123535,-0.02626720629632473
1782774489076434200,5.77443408203125,-0.02076941914856434,-0.0006108652451075613,-0.045204028487205505
1782774489086566400,5.78456640625,-0.018325956538319588,0.009773843921720982,-0.04337143152952194
1782774489096463400,5.79446337890625,-0.00855211354792118,-0.0024434609804302454,-0.019547687843441963
1782774489106463500,5.80446337890625,-0.0006108652451075613,-0.014049900695681572,0.018936822190880775
1782774489116544000,5.8145439453125,0.00366519158706069,-0.019547687843441963,0.05375614017248154
1782774489126483700,5.824483642578125,0.006108652334660292,-0.02626720629632473,0.07330382615327835
1782774489136431600,5.834431640625,0.00366519158706069,-0.024434609338641167,0.0659734457731247
1782774489146532900,5.844532958984375,0.00855211354792118,-0.02626720629632473,0.031154127791523933
1782774489157382000,5.8553818359375,0.01710422709584236,-0.016493361443281174,-0.009162978269159794
1782774489176541200,5.874541259765625,-0.009162978269159794,-0.015271631069481373,-0.04581489413976669
1782774489186413600,5.88441357421875,-0.021380282938480377,-0.009773843921720982,-0.04337143152952194
1782774489197181200,5.89518115234375,-0.02626720629632473,0.00733038317412138,-0.02871066704392433
1782774489216458500,5.91445849609375,-0.007941247895359993,0.0012217304902151227,0.025045474991202354
1782774489226489900,5.92448974609375,0.006719517521560192,-0.01466076634824276,0.05314527451992035
1782774489236478200,5.934478271484375,0.006719517521560192,-0.033597588539123535,0.07024950534105301
1782774489246478800,5.944478759765625,0.0006108652451075613,-0.039706241339445114,0.06536258012056351
1782774489256467000,5.954467041015625,-0.00733038317412138,-0.025656340643763542,0.042760565876960754
1782774489266498000,5.964498046875,-0.013439035043120384,-0.013439035043120384,0.009162978269159794
1782774489276456000,5.9744560546875,-0.01038470957428217,-0.02076941914856434,-0.029932396486401558
1782774489286487000,5.984487060546875,0.0012217304902151227,-0.029932396486401558,-0.05803219974040985
1782774489296475400,5.994475341796875,0.009162978269159794,-0.03176499158143997,-0.06169738993048668
1782774489306476000,6.00447607421875,0.01038470957428217,-0.02932153269648552,-0.04948008432984352
1782774489316464600,6.014464599609375,0.012828170321881771,-0.030543262138962746,-0.024434609338641167
1782774489326495700,6.024495849609375,0.024434609338641167,-0.031154127791523933,0.003054326167330146
1782774489336453600,6.03445361328125,0.03176499158143997,-0.031154127791523933,0.02015855349600315
1782774489346485000,6.044485107421875,0.04459316283464432,-0.03237585723400116,0.022602014243602753
1782774489356473000,6.05447314453125,0.059864792972803116,-0.022602014243602753,0.01038470957428217
1782774489366473700,6.0644736328125,0.05314527451992035,-0.02321287989616394,-0.0006108652451075613
1782774489376462000,6.074462158203125,0.0354301854968071,-0.028099801391363144,-0.015271631069481373
1782774489386493200,6.0844931640625,0.018936822190880775,-0.013439035043120384,-0.02932153269648552
1782774489396451000,6.094451171875,-0.00366519158706069,0.0024434609804302454,-0.04214970022439957
1782774489406482400,6.104482421875,-0.01160643994808197,0.009162978269159794,-0.06108652427792549
1782774489416470800,6.114470703125,-0.001832595793530345,0.01771509274840355,-0.07452555745840073
1782774489426471200,6.12447119140625,0.019547687843441963,0.02871066704392433,-0.07330382615327835
1782774489436459800,6.134459716796875,0.0403171069920063,0.031154127791523933,-0.05009094998240471
1782774489446491000,6.144490966796875,0.05925392732024193,0.016493361443281174,0.021380282938480377
1782774489456479200,6.154479248046875,0.048258353024721146,0.006108652334660292,0.0757472887635231
1782774489466418200,6.164418212890625,0.03237585723400116,0,0.10506882518529892
1782774489477366800,6.17536669921875,0.010995574295520782,0.003054326167330146,0.10751228034496307
1782774489496457200,6.194457275390625,-0.02015855349600315,0.005497787147760391,0.018325956538319588
1782774489506457300,6.204457275390625,-0.014049900695681572,0.02626720629632473,-0.04642575979232788
1782774489516537900,6.214537841796875,-0.0012217304902151227,0.039095375686883926,-0.08735372871160507
1782774489526477600,6.2244775390625,0.006108652334660292,0.031154127791523933,-0.08124507963657379
1782774489536466000,6.2344658203125,0.0012217304902151227,0.018325956538319588,-0.039095375686883926
1782774489546465800,6.2444658203125,-0.012828170321881771,0.00733038317412138,0.01160643994808197
1782774489556506000,6.254506103515625,-0.02626720629632473,0.009162978269159794,0.045204028487205505
1782774489566485500,6.264485595703125,-0.02932153269648552,0.02076941914856434,0.054367005825042725
1782774489576474400,6.274474365234375,-0.02382374368607998,0.02932153269648552,0.04642575979232788
1782774489586474800,6.284474853515625,-0.01710422709584236,0.02382374368607998,0.025045474991202354
1782774489596463400,6.29446337890625,-0.003054326167330146,0.01771509274840355,0.003054326167330146
1782774489606494500,6.304494384765625,0.005497787147760391,0.013439035043120384,-0.005497787147760391
1782774489616452400,6.314452392578125,-0.009162978269159794,0.004886921960860491,-0.00366519158706069
1782774489626483700,6.324483642578125,-0.03481931984424591,0.012217304669320583,-0.00855211354792118
1782774489636472000,6.33447216796875,-0.04214970022439957,0.03787364438176155,-0.01160643994808197
1782774489646473000,6.344472900390625,-0.0403171069920063,0.051312681287527084,0.0006108652451075613
1782774489656460800,6.354460693359375,-0.02871066704392433,0.028099801391363144,0.02076941914856434
1782774489666492000,6.364491943359375,0.0024434609804302454,-0.00366519158706069,0.03176499158143997
1782774489676449800,6.37444970703125,0.025656340643763542,-0.016493361443281174,0.030543262138962746
1782774489686481200,6.384481201171875,0.031154127791523933,-0.014049900695681572,0.01160643994808197
1782774489696469500,6.394469482421875,0.031154127791523933,0.006108652334660292,-0.00855211354792118
1782774489706500600,6.40450048828125,0.02687807008624077,0.022602014243602753,-0.01771509274840355
1782774489716458500,6.41445849609375,0.014049900695681572,0.012828170321881771,-0.012217304669320583
1782774489726489900,6.42448974609375,0.005497787147760391,-0.006108652334660292,-0.006719517521560192
1782774489736478200,6.434478271484375,0.00427605677396059,-0.007941247895359993,-0.00733038317412138
1782774489746478600,6.444478515625,0.0024434609804302454,0.00427605677396059,-0.018936822190880775
1782774489756467000,6.454467041015625,-0.0024434609804302454,0.01466076634824276,-0.03237585723400116
1782774489766498300,6.464498291015625,0.004886921960860491,0.018325956538319588,-0.03848451003432274
1782774489776416000,6.474416015625,0.01710422709584236,0.01771509274840355,-0.030543262138962746
1782774489786548200,6.48454833984375,0.02687807008624077,0.001832595793530345,-0.01038470957428217
1782774489796475600,6.4944755859375,0.031154127791523933,-0.018325956538319588,0.01038470957428217
1782774489806445300,6.5044453125,0.03481931984424591,-0.03176499158143997,0.022602014243602753
1782774489816524500,6.514524658203125,0.028099801391363144,-0.03481931984424591,0.02382374368607998
1782774489826495200,6.5244951171875,0.013439035043120384,-0.036041051149368286,0.01038470957428217
1782774489836452900,6.534452880859375,-0.0012217304902151227,-0.024434609338641167,-0.014049900695681572
1782774489846484000,6.54448388671875,-0.015882495790719986,-0.02015855349600315,-0.042760565876960754
1782774489856433000,6.554432861328125,-0.022602014243602753,-0.012217304669320583,-0.06719517707824707
1782774489866564900,6.56456494140625,-0.00427605677396059,0.01466076634824276,-0.07452555745840073
1782774489876461600,6.574461669921875,0.01466076634824276,0.0024434609804302454,-0.04581489413976669
1782774489886493000,6.584492919921875,0.02871066704392433,-0.01710422709584236,0.0006108652451075613
1782774489896450600,6.594450439453125,0.02871066704392433,-0.025045474991202354,0.04642575979232788
1782774489906482000,6.60448193359375,0.015882495790719986,-0.02015855349600315,0.07208210229873657
1782774489916470500,6.614470458984375,-0.0006108652451075613,-0.0024434609804302454,0.0708603709936142
1782774489926471400,6.624471435546875,-0.00733038317412138,0.010995574295520782,0.051312681287527084
1782774489936459800,6.634459716796875,-0.00366519158706069,0.00366519158706069,0.022602014243602753
1782774489946491000,6.644490966796875,0.001832595793530345,-0.01038470957428217,-0.003054326167330146
1782774489956479200,6.654479248046875,-0.001832595793530345,-0.01771509274840355,-0.018325956538319588
1782774489966418200,6.664418212890625,-0.007941247895359993,-0.01160643994808197,-0.02687807008624077
1782774489976559600,6.6745595703125,-0.01160643994808197,-0.0024434609804302454,-0.036651913076639175
1782774489986499300,6.684499267578125,-0.02015855349600315,0.0024434609804302454,-0.0403171069920063
1782774489996457200,6.694457275390625,-0.021380282938480377,-0.0006108652451075613,-0.03481931984424591
1782774490006457300,6.704457275390625,-0.01710422709584236,-0.003054326167330146,-0.025656340643763542
1782774490016497700,6.71449755859375,-0.00733038317412138,-0.003054326167330146,-0.014049900695681572
1782774490026569000,6.72456884765625,0.006108652334660292,-0.003054326167330146,-0.00366519158706069
1782774490036466000,6.7344658203125,0.018936822190880775,-0.003054326167330146,0.01466076634824276
1782774490046497300,6.744497314453125,0.025045474991202354,-0.018325956538319588,0.030543262138962746
1782774490056455000,6.754454833984375,0.02932153269648552,-0.024434609338641167,0.0403171069920063
1782774490066486000,6.764486083984375,0.01771509274840355,-0.018325956538319588,0.04459316283464432
1782774490076474000,6.77447412109375,-0.00855211354792118,-0.028099801391363144,0.039706241339445114
1782774490086474800,6.784474853515625,-0.02382374368607998,-0.024434609338641167,0.016493361443281174
1782774490096463400,6.79446337890625,-0.02626720629632473,-0.012217304669320583,-0.013439035043120384
1782774490106494500,6.804494384765625,-0.01710422709584236,-0.015882495790719986,-0.04153883829712868
1782774490116452400,6.814452392578125,0.001832595793530345,-0.02687807008624077,-0.05803219974040985
1782774490126483700,6.824483642578125,0.010995574295520782,-0.0354301854968071,-0.06352998316287994
1782774490136472000,6.83447216796875,0.00733038317412138,-0.03726277872920036,-0.06414084881544113
1782774490146472400,6.844472412109375,0.0012217304902151227,-0.018936822190880775,-0.0555887371301651
1782774490156461000,6.8544609375,-0.014049900695681572,-0.009773843921720982,-0.045204028487205505
1782774490166492000,6.864491943359375,-0.015882495790719986,-0.018936822190880775,-0.03298672288656235
1782774490176449800,6.87444970703125,-0.012828170321881771,-0.033597588539123535,-0.02015855349600315
1782774490186481200,6.884481201171875,-0.015271631069481373,-0.045204028487205505,-0.012828170321881771
1782774490196469500,6.894469482421875,-0.018325956538319588,-0.03848451003432274,-0.014049900695681572
1782774490206500600,6.90450048828125,-0.022602014243602753,-0.02076941914856434,-0.005497787147760391
1782774490216458500,6.91445849609375,-0.024434609338641167,-0.015882495790719986,0.007941247895359993
1782774490226489900,6.92448974609375,-0.025656340643763542,-0.021380282938480377,0.014049900695681572
1782774490236478000,6.93447802734375,-0.01466076634824276,0,0.00427605677396059
1782774490246478800,6.944478759765625,-0.006108652334660292,0.01710422709584236,-0.005497787147760391
1782774490256467000,6.954467041015625,0.00855211354792118,0.00366519158706069,-0.004886921960860491
1782774490266498000,6.964498046875,0.018325956538319588,-0.021380282938480377,0.004886921960860491
1782774490276456000,6.9744560546875,0.015882495790719986,-0.04581489413976669,0.010995574295520782
1782774490286487000,6.984487060546875,0.00427605677396059,-0.027488935738801956,0.0012217304902151227
1782774490296475400,6.994475341796875,-0.033597588539123535,0.009162978269159794,-0.021991148591041565
1782774490306476000,7.00447607421875,-0.05619960278272629,0.02015855349600315,-0.03298672288656235
1782774490316464600,7.014464599609375,-0.05803219974040985,0.036041051149368286,-0.03726277872920036
1782774490326495700,7.024495849609375,-0.03848451003432274,0.054367005825042725,-0.02321287989616394
1782774490336453600,7.03445361328125,-0.014049900695681572,0.0555887371301651,0.012217304669320583
1782774490346485000,7.044485107421875,0.012217304669320583,0.03848451003432274,0.06475171446800232
1782774490356473000,7.05447314453125,0.025656340643763542,0.009162978269159794,0.11056660860776901
1782774490366473700,7.0644736328125,0.02626720629632473,-0.00733038317412138,0.12950342893600464
1782774490376462000,7.074462158203125,0.01710422709584236,-0.0024434609804302454,0.11484266817569733
1782774490386493200,7.0844931640625,0.00366519158706069,-0.0006108652451075613,0.07391469180583954
1782774490396451000,7.094451171875,-0.003054326167330146,0,0.01710422709584236
1782774490406482400,7.104482421875,-0.00366519158706069,0.00855211354792118,-0.03481931984424591
1782774490416470800,7.114470703125,-0.009162978269159794,0.01160643994808197,-0.06536258012056351
1782774490426471400,7.124471435546875,-0.019547687843441963,0.01038470957428217,-0.07391469180583954
1782774490436459800,7.134459716796875,-0.02382374368607998,0.004886921960860491,-0.07024950534105301
1782774490446490600,7.14449072265625,-0.02015855349600315,0.007941247895359993,-0.054367005825042725
1782774490456479200,7.154479248046875,-0.014049900695681572,0.00855211354792118,-0.024434609338641167
1782774490466479600,7.164479736328125,-0.00427605677396059,0.005497787147760391,0.00855211354792118
1782774490477580000,7.175580078125,0.009773843921720982,0.01160643994808197,0.0403171069920063
1782774490496457200,7.194457275390625,0.006719517521560192,0.006108652334660292,0.08246681094169617
1782774490506488300,7.20448828125,0.001832595793530345,0.006719517521560192,0.07880161702632904
1782774490516477000,7.214476806640625,0.001832595793530345,0.005497787147760391,0.05925392732024193
1782774490526477600,7.2244775390625,0,-0.0024434609804302454,0.02687807008624077
1782774490536466000,7.2344658203125,0.0006108652451075613,-0.0024434609804302454,-0.01038470957428217
1782774490546465800,7.2444658203125,-0.0024434609804302454,0.0006108652451075613,-0.03420845419168472
1782774490556699000,7.254698974609375,-0.00733038317412138,0.003054326167330146,-0.04459316283464432
1782774490566486000,7.264486083984375,-0.012217304669320583,0.009773843921720982,-0.03848451003432274
1782774490576474000,7.27447412109375,-0.015882495790719986,0.014049900695681572,-0.027488935738801956
1782774490586475000,7.28447509765625,-0.014049900695681572,0.012217304669320583,-0.012828170321881771
1782774490596463400,7.29446337890625,-0.007941247895359993,0.021991148591041565,0.00855211354792118
1782774490606494500,7.304494384765625,-0.0012217304902151227,0.01466076634824276,0.02932153269648552
1782774490616452400,7.314452392578125,0.00427605677396059,-0.00427605677396059,0.03848451003432274
1782774490626483200,7.324483154296875,0.009773843921720982,-0.01038470957428217,0.03787364438176155
1782774490636502000,7.334501953125,0.010995574295520782,0,0.029932396486401558
1782774490646472400,7.344472412109375,0.0012217304902151227,0.010995574295520782,0.02382374368607998
1782774490656460800,7.354460693359375,-0.01160643994808197,0.019547687843441963,0.02076941914856434
1782774490666492200,7.3644921875,-0.01466076634824276,0.015882495790719986,0.01160643994808197
1782774490676449800,7.37444970703125,-0.01038470957428217,0.01466076634824276,-0.0024434609804302454
1782774490686481000,7.38448095703125,-0.006108652334660292,0.022602014243602753,-0.00855211354792118
1782774490696469500,7.394469482421875,-0.004886921960860491,0.021991148591041565,-0.006719517521560192
1782774490706500600,7.40450048828125,-0.00855211354792118,0.012217304669320583,0.009162978269159794
1782774490716458500,7.41445849609375,-0.01466076634824276,0.009162978269159794,0.016493361443281174
1782774490726489900,7.42448974609375,-0.012828170321881771,0.018325956538319588,0.015882495790719986
1782774490736478000,7.43447802734375,-0.01038470957428217,0.02932153269648552,0.015882495790719986
1782774490746478800,7.444478759765625,-0.00855211354792118,0.027488935738801956,0.01466076634824276
1782774490756426800,7.4544267578125,-0.005497787147760391,0.021991148591041565,0.00733038317412138
1782774490766559200,7.464559326171875,-0.004886921960860491,0.02932153269648552,0
1782774490776456000,7.4744560546875,-0.00366519158706069,0.025045474991202354,-0.00855211354792118
1782774490786487000,7.484487060546875,-0.009162978269159794,0.02076941914856434,-0.013439035043120384
1782774490796475600,7.4944755859375,-0.00733038317412138,0.018325956538319588,-0.012828170321881771
1782774490806445300,7.5044453125,-0.013439035043120384,0.013439035043120384,-0.00427605677396059
1782774490816524500,7.514524658203125,-0.016493361443281174,0.00733038317412138,0.004886921960860491
1782774490826495200,7.5244951171875,-0.012217304669320583,0.013439035043120384,0.01038470957428217
1782774490836452900,7.534452880859375,-0.00427605677396059,0.019547687843441963,0.01038470957428217
1782774490846484000,7.54448388671875,0.00427605677396059,0.015271631069481373,0.004886921960860491
1782774490856472600,7.55447265625,0.014049900695681572,0.013439035043120384,-0.005497787147760391
1782774490866473200,7.56447314453125,0.025656340643763542,0.015882495790719986,-0.012217304669320583
1782774490876461600,7.574461669921875,0.022602014243602753,0.013439035043120384,-0.003054326167330146
1782774490886492700,7.58449267578125,-0.006108652334660292,0.0012217304902151227,0.012217304669320583
1782774490896450600,7.594450439453125,-0.02871066704392433,-0.0006108652451075613,0.02076941914856434
1782774490906482000,7.60448193359375,-0.04153883829712868,0.009162978269159794,0.01771509274840355
1782774490916430600,7.6144306640625,-0.03787364438176155,0.019547687843441963,0.0006108652451075613
1782774490926563000,7.62456298828125,-0.02321287989616394,0.028099801391363144,-0.015882495790719986
1782774490936459800,7.634459716796875,-0.004886921960860491,0.025045474991202354,-0.01771509274840355
1782774490946491000,7.644490966796875,0.013439035043120384,0.001832595793530345,-0.003054326167330146
1782774490956439000,7.65443896484375,0.021380282938480377,-0.02382374368607998,0.01038470957428217
1782774490966571300,7.6645712890625,0.021380282938480377,-0.030543262138962746,0.025045474991202354
1782774490976468000,7.674468017578125,0.01038470957428217,-0.021991148591041565,0.039706241339445114
1782774490986499000,7.6844990234375,-0.00427605677396059,-0.019547687843441963,0.05314527451992035
1782774490996457200,7.694457275390625,-0.01466076634824276,-0.022602014243602753,0.04886921867728233
1782774491006488300,7.70448828125,-0.009773843921720982,-0.021380282938480377,0.018936822190880775
1782774491016477000,7.714476806640625,-0.0012217304902151227,-0.015271631069481373,-0.02382374368607998
1782774491026477300,7.724477294921875,0.00366519158706069,-0.01466076634824276,-0.06108652427792549
1782774491036425500,7.734425537109375,0.013439035043120384,-0.007941247895359993,-0.08307767659425735
1782774491046526700,7.744526611328125,0.018325956538319588,-0.00427605677396059,-0.0806342139840126
1782774491056546300,7.75454638671875,0.015882495790719986,-0.01160643994808197,-0.05742133408784866
1782774491066485800,7.76448583984375,0.00733038317412138,-0.018936822190880775,-0.01771509274840355
1782774491076474000,7.77447412109375,-0.00855211354792118,-0.02687807008624077,0.018936822190880775
1782774491086474800,7.784474853515625,-0.02015855349600315,-0.019547687843441963,0.03726277872920036
1782774491096463400,7.79446337890625,-0.02015855349600315,-0.0024434609804302454,0.03176499158143997
1782774491106494700,7.80449462890625,-0.012217304669320583,0.0012217304902151227,0.00855211354792118
1782774491116452400,7.814452392578125,0.006108652334660292,0.007941247895359993,-0.01710422709584236
1782774491126483500,7.8244833984375,0.025656340643763542,0.0024434609804302454,-0.024434609338641167
1782774491136472000,7.83447216796875,0.031154127791523933,-0.013439035043120384,-0.009773843921720982
1782774491146472700,7.84447265625,0.019547687843441963,-0.025045474991202354,0.001832595793530345
1782774491156460800,7.854460693359375,0.006108652334660292,-0.02382374368607998,0.001832595793530345
1782774491166491600,7.86449169921875,-0.010995574295520782,-0.009773843921720982,-0.01038470957428217
1782774491176449800,7.87444970703125,-0.02626720629632473,-0.003054326167330146,-0.031154127791523933
1782774491186481000,7.88448095703125,-0.022602014243602753,-0.013439035043120384,-0.056810468435287476
1782774491196469200,7.89446923828125,-0.004886921960860491,-0.018325956538319588,-0.07696902006864548
1782774491206500600,7.90450048828125,0.0006108652451075613,-0.018325956538319588,-0.09162978827953339
1782774491216458500,7.91445849609375,0.001832595793530345,0.027488935738801956,-0.11545353382825851
1782774491226489600,7.924489501953125,-0.00855211354792118,0.06963863968849182,-0.11972958594560623
1782774491236478000,7.93447802734375,-0.030543262138962746,0.04886921867728233,-0.10201449692249298
1782774491246478300,7.944478271484375,-0.03420845419168472,0.010995574295520782,-0.0757472887635231
1782774491256467000,7.954467041015625,-0.025656340643763542,-0.0024434609804302454,-0.06169738993048668
1782774491266498000,7.964498046875,-0.021380282938480377,-0.006108652334660292,-0.0708603709936142
1782774491276456000,7.9744560546875,-0.03237585723400116,0.001832595793530345,-0.09407325088977814
1782774491286487000,7.984487060546875,-0.02015855349600315,0.009162978269159794,-0.13011430203914642
1782774491296475400,7.994475341796875,-0.0012217304902151227,0.06658431142568588,-0.15515977144241333
1782774491306476000,8.00447607421875,0.001832595793530345,0.09407325088977814,-0.1411098688840866
1782774491316464600,8.014464599609376,0.001832595793530345,0.09162978827953339,-0.1319468915462494
1782774491326495700,8.024495849609375,-0.007941247895359993,0.21563543379306793,-0.012828170321881771
1782774491336453600,8.03445361328125,-0.006108652334660292,0.10506882518529892,0.08979719132184982
1782774491346484700,8.044484619140626,0.04214970022439957,-0.02321287989616394,0.16737708449363708
1782774491356473000,8.05447314453125,0.08185594528913498,0.00366519158706069,0.23029619455337524
1782774491366473500,8.064473388671875,0.05619960278272629,0.06230825558304787,0.2779437005519867
1782774491376462000,8.074462158203126,0.04337143152952194,0.08918632566928864,0.303600013256073
1782774491386493200,8.0844931640625,0.042760565876960754,0.192422553896904,0.3390302062034607
1782774491396451000,8.094451171875,0.0507018156349659,0.10873401165008545,0.2822197377681732
1782774491406482200,8.104482177734376,0.05375614017248154,0.09468411654233932,0.16982053220272064
1782774491416470500,8.114470458984375,0.07391469180583954,0.13255776464939117,0.02932153269648552
1782774491426471200,8.12447119140625,0.0959058403968811,0.14477506279945374,-0.06352998316287994
1782774491436459800,8.134459716796876,0.09529497474431992,0.06230825558304787,-0.11545353382825851
1782774491446490000,8.144489990234375,0.05375614017248154,-0.018936822190880775,-0.14416420459747314
1782774491456479200,8.154479248046876,-0.014049900695681572,-0.051312681287527084,-0.17837265133857727
1782774491466479600,8.164479736328126,-0.0708603709936142,-0.048258353024721146,-0.24068090319633484
1782774491476468200,8.17446826171875,-0.0959058403968811,-0.02015855349600315,-0.2981022298336029
1782774491486499300,8.184499267578126,-0.06963863968849182,0.031154127791523933,-0.29138273000717163
