time,seconds_elapsed,z,y,x
1782774492996383700,0.1583837890625,-0.4625866413116455,-0.11460208892822266,0.16682147979736328
1782774493006393600,0.1683935546875,-0.42257094383239746,-0.0667562484741211,0.04461967945098877
1782774493016403200,0.1784033203125,-0.27825355529785156,-0.0061626434326171875,-0.05652427673339844
1782774493026382600,0.188382568359375,0.006530284881591797,-0.02165508270263672,-0.06017565727233887
1782774493036392200,0.19839208984375,0.23458528518676758,-0.15604496002197266,-0.016568660736083984
1782774493046401800,0.20840185546875,0.4341917037963867,-0.1924142837524414,-0.14517438411712646
1782774493056381200,0.218381103515625,0.4975321292877197,-0.15006732940673828,-0.23146432638168335
1782774493066391000,0.22839111328125,0.4939088821411133,-0.1678485870361328,-0.272741436958313
1782774493076400600,0.238400634765625,0.3231644630432129,-0.12703227996826172,-0.20394903421401978
1782774493086380000,0.248380126953125,0.04362058639526367,-0.11496829986572266,-0.08241605758666992
1782774493096390000,0.258389892578125,-0.2821013927459717,-0.16283321380615234,0.08867537975311279
1782774493106399500,0.2683994140625,-0.47084903717041016,-0.13516616821289062,0.16506099700927734
1782774493116378600,0.278378662109375,-0.4721238613128662,-0.16673851013183594,0.09174668788909912
1782774493126388500,0.288388427734375,-0.4577789306640625,-0.17066287994384766,-0.053818702697753906
1782774493136398000,0.298398193359375,-0.36988282203674316,-0.20465564727783203,-0.24022382497787476
1782774493146377500,0.30837744140625,-0.10622620582580566,-0.20126724243164062,-0.30541521310806274
1782774493156387300,0.31838720703125,0.10355854034423828,-0.13646507263183594,-0.2317485213279724
1782774493166397200,0.328397216796875,0.24233460426330566,-0.07084846496582031,-0.09205353260040283
1782774493176376300,0.338376220703125,0.22103023529052734,-0.03391075134277344,0.00779569149017334
1782774493186386200,0.34838623046875,0.21280908584594727,-0.045436859130859375,-0.08072984218597412
1782774493196395800,0.358395751953125,0.19278478622436523,-0.11949443817138672,-0.11733114719390869
1782774493206405600,0.368405517578125,0.17650103569030762,-0.19571208953857422,-0.18088942766189575
1782774493216384800,0.378384765625,0.0924983024597168,-0.2144765853881836,-0.32819777727127075
1782774493226394600,0.38839453125,0.08335137367248535,-0.19527530670166016,-0.24031901359558105
1782774493236404200,0.398404296875,0.051764726638793945,-0.17637157440185547,0.03624606132507324
1782774493246383600,0.408383544921875,0.08324050903320312,-0.20061111450195312,0.14275765419006348
1782774493256393500,0.4183935546875,-0.03227543830871582,-0.26140308380126953,0.05779445171356201
1782774493266403000,0.428403076171875,-0.21801376342773438,-0.2990894317626953,-0.09307479858398438
1782774493276382500,0.438382568359375,-0.32384729385375977,-0.28932762145996094,-0.16454297304153442
1782774493286392300,0.448392333984375,-0.30613231658935547,-0.3053550720214844,-0.20355182886123657
1782774493296402000,0.45840185546875,-0.2425234317779541,-0.2700786590576172,-0.05953097343444824
1782774493306381300,0.46838134765625,-0.15271234512329102,-0.24558639526367188,-0.02157306671142578
1782774493316391000,0.478390869140625,-0.0413818359375,-0.24641799926757812,-0.026380300521850586
1782774493326400800,0.48840087890625,-0.0037865638732910156,-0.25363922119140625,0.02658820152282715
1782774493336380000,0.4983798828125,0.05035972595214844,-0.22961711883544922,-0.01641368865966797
1782774493346389800,0.5083896484375,0.12006616592407227,-0.2372264862060547,-0.05229198932647705
1782774493356399400,0.5183994140625,0.08066034317016602,-0.19250202178955078,0.06897163391113281
1782774493366378800,0.528378662109375,0.10680866241455078,-0.148223876953125,-0.01046764850616455
1782774493376388600,0.538388671875,0.08084321022033691,-0.1450481414794922,-0.10060715675354004
1782774493386398200,0.548398193359375,0.033471107482910156,-0.21622562408447266,-0.1279066801071167
1782774493396377600,0.558377685546875,-0.04669952392578125,-0.2542076110839844,-0.1886557936668396
1782774493406387500,0.568387451171875,-0.10192179679870605,-0.2638835906982422,-0.24715030193328857
1782774493416397300,0.578397216796875,-0.16846990585327148,-0.21149539947509766,-0.2226424217224121
1782774493426376400,0.58837646484375,-0.22107911109924316,-0.2305746078491211,-0.06545102596282959
1782774493436386000,0.598385986328125,-0.20743155479431152,-0.16769027709960938,0.05163872241973877
1782774493446395600,0.608395751953125,-0.15341663360595703,0.003185272216796875,0.19424283504486084
1782774493456405500,0.618405517578125,-0.1208188533782959,0.07349491119384766,0.34123098850250244
1782774493466385000,0.628385009765625,-0.057260751724243164,0.04799365997314453,0.24975550174713135
1782774493476394800,0.638394775390625,-0.006791830062866211,-0.0013570785522460938,0.010643720626831055
1782774493486404400,0.648404296875,0.0040416717529296875,-0.11032581329345703,-0.297477662563324
1782774493496383700,0.6583837890625,0.05503129959106445,-0.18097305297851562,-0.47926175594329834
1782774493506393600,0.6683935546875,0.16315865516662598,-0.1508922576904297,-0.34281396865844727
1782774493516403200,0.6784033203125,0.14763164520263672,-0.08965015411376953,-0.07798230648040771
1782774493526382600,0.688382568359375,0.13689255714416504,-0.06505203247070312,0.07648575305938721
1782774493536392200,0.69839208984375,-0.00478053092956543,0.02774810791015625,0.24403107166290283
1782774493546401800,0.70840185546875,-0.2355058193206787,-0.026414871215820312,0.2613048553466797
1782774493556381200,0.718381103515625,-0.4293532371520996,-0.06444263458251953,0.1533360481262207
1782774493566391000,0.72839111328125,-0.4163966178894043,-0.014354705810546875,0.12499523162841797
1782774493576400600,0.738400634765625,-0.3720133304595947,-0.03372478485107422,0.1556854248046875
1782774493586380000,0.748380126953125,-0.37317514419555664,-0.0913381576538086,0.03047013282775879
1782774493596390000,0.758389892578125,-0.21855497360229492,-0.20330238342285156,-0.171611487865448
1782774493606399700,0.768399658203125,0.0008552074432373047,-0.2608299255371094,-0.2470163106918335
1782774493616378600,0.778378662109375,0.2117607593536377,-0.22339439392089844,-0.19046896696090698
1782774493626388500,0.788388427734375,0.23872590065002441,-0.14760875701904297,0.019922971725463867
1782774493636398000,0.798398193359375,0.14703702926635742,-0.04670143127441406,0.203954815864563
1782774493646377500,0.80837744140625,0.0406949520111084,0.02133941650390625,0.23764586448669434
1782774493656387300,0.81838720703125,-0.2089083194732666,-0.06979942321777344,0.32600927352905273
1782774493666397200,0.828397216796875,-0.3221094608306885,-0.1398162841796875,0.02548205852508545
1782774493676376300,0.838376220703125,-0.34166741371154785,-0.2690877914428711,-0.23164772987365723
1782774493686386200,0.84838623046875,-0.28534865379333496,-0.4306507110595703,-0.3679220676422119
1782774493696395800,0.858395751953125,-0.1948225498199463,-0.46454524993896484,-0.5307632088661194
1782774493706405600,0.868405517578125,-0.09521627426147461,-0.38794898986816406,-0.4912949800491333
1782774493716384800,0.878384765625,-0.019344091415405273,-0.22009944915771484,-0.2201824188232422
1782774493726394600,0.88839453125,-0.0022301673889160156,-0.01152801513671875,0.12820792198181152
1782774493736404200,0.898404296875,-0.08147406578063965,0.07918834686279297,0.31654155254364014
1782774493746383600,0.908383544921875,-0.20473170280456543,0.07815933227539062,0.28087568283081055
1782774493756393500,0.9183935546875,-0.24680352210998535,0.0194549560546875,0.09933435916900635
1782774493766403000,0.928403076171875,-0.2118370532989502,-0.06507301330566406,-0.11289560794830322
1782774493776382500,0.938382568359375,-0.1008002758026123,-0.16770076751708984,-0.2132093906402588
1782774493786392300,0.948392333984375,0.059862613677978516,-0.17808055877685547,-0.25795644521713257
1782774493796402000,0.95840185546875,0.2808694839477539,-0.11094188690185547,-0.10457098484039307
1782774493806381300,0.96838134765625,0.410907506942749,-0.10828018188476562,0.03546714782714844
1782774493816391000,0.978390869140625,0.2967245578765869,-0.10179710388183594,0.0695871114730835
1782774493826400800,0.98840087890625,0.09294295310974121,-0.16885662078857422,-0.03935873508453369
1782774493836380000,0.9983798828125,-0.17171502113342285,-0.15618515014648438,-0.03797149658203125
1782774493846389800,1.0083896484375,-0.3747062683105469,-0.1825704574584961,-0.08717596530914307
1782774493856399400,1.0183994140625,-0.4248998165130615,-0.2254629135131836,-0.11771953105926514
1782774493866378800,1.028378662109375,-0.3336939811706543,-0.20504283905029297,-0.02444446086883545
1782774493876388600,1.038388671875,-0.07113981246948242,-0.20937061309814453,0.09195733070373535
1782774493886398200,1.048398193359375,0.07624459266662598,-0.14553451538085938,0.16546630859375
1782774493896377600,1.058377685546875,0.16562652587890625,-0.12465381622314453,0.07938838005065918
1782774493906387500,1.068387451171875,0.12472248077392578,-0.14998149871826172,-0.022538185119628906
1782774493916397300,1.078397216796875,0.028809070587158203,-0.15248394012451172,-0.08814513683319092
1782774493926376400,1.08837646484375,-0.12935280799865723,-0.1871328353881836,-0.1491571068763733
1782774493936386000,1.098385986328125,-0.23592472076416016,-0.20554256439208984,-0.17946869134902954
1782774493946396000,1.10839599609375,-0.26637768745422363,-0.2212543487548828,-0.13626569509506226
1782774493956405500,1.118405517578125,-0.2428114414215088,-0.20293331146240234,-0.11988961696624756
1782774493966385000,1.128385009765625,-0.24155449867248535,-0.203399658203125,-0.10619354248046875
1782774493976394800,1.138394775390625,-0.19122314453125,-0.13859176635742188,0.043090224266052246
1782774493986404400,1.148404296875,-0.07303619384765625,-0.053856849670410156,0.17008960247039795
1782774493996383700,1.1583837890625,0.04115891456604004,0.00283050537109375,0.22057783603668213
1782774494006393600,1.1683935546875,0.0779564380645752,-0.0025119781494140625,0.17152619361877441
1782774494016403200,1.1784033203125,0.17705845832824707,0.0038776397705078125,0.014146208763122559
1782774494026382600,1.188382568359375,0.1936168670654297,-0.0670633316040039,-0.07238876819610596
1782774494036392200,1.19839208984375,0.13474655151367188,-0.16973495483398438,-0.20367372035980225
1782774494046401800,1.20840185546875,0.07662153244018555,-0.23217105865478516,-0.35292255878448486
1782774494056381200,1.218381103515625,0.04799365997314453,-0.2543153762817383,-0.3291558027267456
1782774494066391000,1.22839111328125,0.04862642288208008,-0.19508934020996094,-0.1657741665840149
1782774494076400600,1.238400634765625,0.03371930122375488,-0.17198848724365234,-0.002717256546020508
1782774494086380000,1.248380126953125,-0.062406063079833984,-0.0898284912109375,0.17198264598846436
1782774494096390000,1.258389892578125,-0.23086833953857422,-0.022826194763183594,0.22915029525756836
1782774494106399500,1.2683994140625,-0.3535487651824951,-0.011162757873535156,0.2085719108581543
1782774494116378600,1.278378662109375,-0.3956761360168457,-0.03512382507324219,0.17914116382598877
1782774494126388500,1.288388427734375,-0.4079320430755615,-0.0777902603149414,0.07391548156738281
1782774494136398000,1.298398193359375,-0.3191227912902832,-0.15335750579833984,-0.08231985569000244
1782774494146377500,1.30837744140625,-0.18087983131408691,-0.21091556549072266,-0.14869123697280884
1782774494156387300,1.31838720703125,0.02341008186340332,-0.25270843505859375,-0.22884583473205566
1782774494166397200,1.328397216796875,0.2165372371673584,-0.25304126739501953,-0.19226372241973877
1782774494176376300,1.338376220703125,0.27886199951171875,-0.21999645233154297,-0.02840137481689453
1782774494186386200,1.34838623046875,0.21944713592529297,-0.19751644134521484,0.13849246501922607
1782774494196395800,1.358395751953125,0.07050037384033203,-0.16696453094482422,0.23454618453979492
1782774494206405600,1.368405517578125,-0.16362619400024414,-0.1545734405517578,0.22463667392730713
1782774494216384800,1.378384765625,-0.36237668991088867,-0.1694021224975586,0.14363336563110352
1782774494226394600,1.38839453125,-0.45390820503234863,-0.22722434997558594,0.01578974723815918
1782774494236404200,1.398404296875,-0.4374971389770508,-0.2961750030517578,-0.09676992893218994
1782774494246383600,1.408383544921875,-0.218980073928833,-0.29407310485839844,-0.1277795433998108
1782774494256393500,1.4183935546875,0.019829750061035156,-0.25440311431884766,-0.03496134281158447
1782774494266403000,1.428403076171875,0.18045687675476074,-0.2259664535522461,-0.021640539169311523
1782774494276382500,1.438382568359375,0.34331178665161133,-0.05612373352050781,0.10598945617675781
1782774494286392300,1.448392333984375,0.3348844051361084,0.051138877868652344,0.2324281930923462
1782774494296402000,1.45840185546875,0.11188244819641113,0.00849151611328125,0.10303473472595215
1782774494306381300,1.46838134765625,-0.09770703315734863,0.011893272399902344,-0.010549426078796387
1782774494316391000,1.478390869140625,-0.23146271705627441,-0.0022430419921875,-0.049247145652770996
1782774494326400800,1.48840087890625,-0.2277376651763916,-0.06611824035644531,-0.04671764373779297
1782774494336380000,1.4983798828125,-0.11920571327209473,-0.10242652893066406,0.004018306732177734
1782774494346389800,1.5083896484375,-0.06299138069152832,-0.19054794311523438,0.040547728538513184
1782774494356399400,1.5183994140625,-0.035607337951660156,-0.25708675384521484,-0.047362685203552246
1782774494366378800,1.528378662109375,0.03112006187438965,-0.23786449432373047,0.027410030364990234
1782774494376388600,1.538388671875,-0.03950691223144531,-0.26467418670654297,0.046190500259399414
1782774494386398200,1.548398193359375,-0.21085834503173828,-0.34506797790527344,-0.031207799911499023
1782774494396377600,1.558377685546875,-0.34205031394958496,-0.3209114074707031,-0.08707141876220703
1782774494406387500,1.568387451171875,-0.44892239570617676,-0.24892044067382812,0.004610419273376465
1782774494416397300,1.578397216796875,-0.3914053440093994,-0.2219104766845703,0.14525210857391357
1782774494426376400,1.58837646484375,-0.25977540016174316,-0.18656063079833984,0.13200092315673828
1782774494436386000,1.598385986328125,-0.05473065376281738,-0.10210037231445312,0.09366166591644287
1782774494446395600,1.608395751953125,0.0945274829864502,-0.08834552764892578,-0.024302005767822266
1782774494456405500,1.618405517578125,0.232682466506958,-0.10523509979248047,-0.10726702213287354
1782774494466385000,1.628385009765625,0.2898223400115967,-0.15106582641601562,-0.15633100271224976
1782774494476394800,1.638394775390625,0.2496812343597412,-0.22838973999023438,-0.2030625343322754
1782774494486404400,1.648404296875,0.13214778900146484,-0.23938846588134766,-0.21614539623260498
1782774494496383700,1.6583837890625,0.06642532348632812,-0.19595909118652344,-0.23658645153045654
1782774494506393600,1.6683935546875,-0.014502525329589844,-0.12193107604980469,-0.04754912853240967
1782774494516403200,1.6784033203125,-0.06601476669311523,-0.11268424987792969,0.02046787738800049
1782774494526382600,1.688382568359375,-0.0793313980102539,-0.0770864486694336,0.050458550453186035
1782774494536392200,1.69839208984375,-0.09325528144836426,-0.08205032348632812,0.03357362747192383
1782774494546401800,1.70840185546875,-0.14095449447631836,-0.12297821044921875,-0.0825352668762207
1782774494556381200,1.718381103515625,-0.1599888801574707,-0.15919971466064453,-0.2312629222869873
1782774494566391000,1.72839111328125,-0.15080499649047852,-0.18088626861572266,-0.27657097578048706
1782774494576400600,1.738400634765625,-0.07799863815307617,-0.14702892303466797,-0.2072809934616089
1782774494586380000,1.748380126953125,0.06805753707885742,-0.06472015380859375,-0.07696270942687988
1782774494596390000,1.758389892578125,0.1540539264678955,-0.058760643005371094,0.08781898021697998
1782774494606399500,1.7683994140625,0.1525280475616455,0.016213417053222656,0.15646982192993164
1782774494616378600,1.778378662109375,0.01183319091796875,0.01358795166015625,0.1922694444656372
1782774494626388500,1.788388427734375,-0.1632075309753418,-0.01617717742919922,0.11180925369262695
1782774494636398000,1.798398193359375,-0.26108479499816895,-0.08462142944335938,0.07079207897186279
1782774494646377500,1.80837744140625,-0.3116469383239746,-0.1145782470703125,0.008774876594543457
1782774494656387300,1.81838720703125,-0.2581963539123535,-0.17032527923583984,-0.05777120590209961
1782774494666397200,1.828397216796875,-0.16774201393127441,-0.20636653900146484,-0.07634091377258301
1782774494676376300,1.838376220703125,-0.12401866912841797,-0.28012752532958984,-0.11929434537887573
1782774494686386200,1.84838623046875,-0.08808279037475586,-0.3176708221435547,-0.15061479806900024
1782774494696395800,1.858395751953125,-0.002106904983520508,-0.31429290771484375,-0.12064296007156372
1782774494706405600,1.868405517578125,0.10112643241882324,-0.14338970184326172,0.051726341247558594
1782774494716384800,1.878384765625,0.17201900482177734,-0.06142616271972656,0.22997140884399414
1782774494726394600,1.88839453125,0.10795021057128906,-0.07340335845947266,0.2686285972595215
1782774494736404200,1.898404296875,-0.03542304039001465,-0.05760955810546875,0.2215343713760376
1782774494746383600,1.908383544921875,-0.31027722358703613,-0.13645076751708984,0.0870211124420166
1782774494756393500,1.9183935546875,-0.48063158988952637,-0.21610546112060547,-0.07734096050262451
1782774494766403000,1.928403076171875,-0.4912586212158203,-0.24759292602539062,-0.09312951564788818
1782774494776382500,1.938382568359375,-0.3731386661529541,-0.3088111877441406,-0.04773426055908203
1782774494786392300,1.948392333984375,-0.2344672679901123,-0.3325490951538086,-0.0032705068588256836
1782774494796402000,1.95840185546875,-0.12230110168457031,-0.3263111114501953,0.11662602424621582
1782774494806381300,1.96838134765625,-0.07326841354370117,-0.33869075775146484,0.17295575141906738
1782774494816391000,1.978390869140625,-0.007094621658325195,-0.24569034576416016,0.299497127532959
1782774494826400800,1.98840087890625,0.021162748336791992,-0.13348102569580078,0.32604336738586426
1782774494836380000,1.9983798828125,-0.052530765533447266,-0.1270742416381836,0.16611993312835693
1782774494846389800,2.0083896484375,-0.06572318077087402,-0.15237808227539062,-0.09660458564758301
1782774494856399400,2.0183994140625,0.04469013214111328,-0.15114498138427734,-0.23808646202087402
1782774494866378800,2.028378662109375,0.21825027465820312,-0.18517398834228516,-0.2574523687362671
1782774494876388600,2.038388671875,0.37086939811706543,-0.0793924331665039,-0.0363997220993042
1782774494886398200,2.048398193359375,0.36809754371643066,-0.009349822998046875,0.11303627490997314
1782774494896377600,2.058377685546875,0.3008415699005127,-0.007300376892089844,0.163155198097229
1782774494906387500,2.068387451171875,0.07989096641540527,-0.031075477600097656,0.16546273231506348
1782774494916397300,2.078397216796875,-0.277742862701416,-0.08817195892333984,-0.02682781219482422
1782774494926376400,2.08837646484375,-0.539557695388794,-0.10109138488769531,-0.18831628561019897
1782774494936386000,2.098385986328125,-0.6344797611236572,-0.09453678131103516,-0.06495630741119385
1782774494946395600,2.108395751953125,-0.6386971473693848,-0.07327938079833984,0.08548986911773682
1782774494956405500,2.118405517578125,-0.6086733341217041,-0.05223369598388672,0.1370987892150879
1782774494966385000,2.128385009765625,-0.460798978805542,-0.083251953125,0.03943455219268799
1782774494976394800,2.138394775390625,-0.2911388874053955,-0.1246805191040039,-0.0791095495223999
1782774494986404400,2.148404296875,-0.045073747634887695,-0.10934066772460938,-0.2564689517021179
1782774494996383700,2.1583837890625,0.20512080192565918,-0.0783700942993164,-0.1964554786682129
1782774495006393600,2.1683935546875,0.28825974464416504,-0.06416034698486328,-0.10947811603546143
1782774495016403200,2.1784033203125,0.2386794090270996,-0.041878700256347656,-0.09514129161834717
1782774495026382600,2.188382568359375,0.1303422451019287,-0.013901710510253906,-0.14316511154174805
1782774495036392200,2.19839208984375,0.10334229469299316,0.04886436462402344,-0.15193867683410645
1782774495046401800,2.20840185546875,0.050603628158569336,0.027484893798828125,-0.11208236217498779
1782774495056381200,2.218381103515625,-0.07119488716125488,-0.008449554443359375,-0.09350872039794922
1782774495066391000,2.22839111328125,-0.18790268898010254,-0.027868270874023438,-0.12426578998565674
1782774495076400600,2.238400634765625,-0.2261192798614502,-0.09259605407714844,-0.10680651664733887
1782774495086380000,2.248380126953125,-0.24942874908447266,-0.20206832885742188,-0.09373390674591064
1782774495096390000,2.258389892578125,-0.14842009544372559,-0.2123584747314453,-0.12074160575866699
1782774495106399500,2.2683994140625,-0.007193088531494141,-0.22386550903320312,-0.0970543622970581
1782774495116378600,2.278378662109375,0.19630169868469238,-0.2152118682861328,-0.06848716735839844
1782774495126388500,2.288388427734375,0.3270907402038574,-0.22534847259521484,-0.06611371040344238
1782774495136398000,2.298398193359375,0.3263068199157715,-0.2284526824951172,-0.1418536901473999
1782774495146377500,2.30837744140625,0.26447153091430664,-0.2225971221923828,-0.21429967880249023
1782774495156387300,2.31838720703125,0.15660595893859863,-0.2222900390625,-0.17208486795425415
1782774495166397200,2.328397216796875,0.03170061111450195,-0.18924713134765625,-0.14040648937225342
1782774495176376300,2.338376220703125,-0.0175323486328125,-0.15672588348388672,-0.07843005657196045
1782774495186386200,2.34838623046875,-0.042670249938964844,-0.16246700286865234,-0.007783174514770508
1782774495196395800,2.358395751953125,-0.04195690155029297,-0.20149803161621094,-0.013908028602600098
1782774495206405600,2.368405517578125,-0.07751321792602539,-0.2930917739868164,-0.08668124675750732
1782774495216384800,2.378384765625,-0.06751227378845215,-0.2625894546508789,-0.05188000202178955
1782774495226394600,2.38839453125,-0.11387801170349121,-0.22996807098388672,0.0794593095779419
1782774495236404200,2.398404296875,-0.23992371559143066,-0.1428203582763672,0.16366446018218994
1782774495246383600,2.408383544921875,-0.31954240798950195,-0.13022804260253906,0.2042381763458252
1782774495256393500,2.4183935546875,-0.36359715461730957,-0.10552406311035156,0.18265295028686523
1782774495266403000,2.428403076171875,-0.32997632026672363,-0.0899505615234375,0.05198073387145996
1782774495276382500,2.438382568359375,-0.2024853229522705,-0.12878799438476562,-0.010348916053771973
1782774495286392300,2.448392333984375,-0.08908605575561523,-0.11884498596191406,0.006386280059814453
1782774495296402000,2.45840185546875,0.0754384994506836,-0.10098743438720703,0.06804919242858887
1782774495306381300,2.46838134765625,0.18774056434631348,-0.107177734375,0.11939859390258789
1782774495316391000,2.478390869140625,0.07694768905639648,-0.1499948501586914,0.1649150848388672
1782774495326400800,2.48840087890625,-0.09094524383544922,-0.15805625915527344,0.10971450805664062
1782774495336380000,2.4983798828125,-0.24401140213012695,-0.17463970184326172,-0.025896668434143066
1782774495346389800,2.5083896484375,-0.39801692962646484,-0.24692535400390625,-0.06557023525238037
1782774495356399400,2.5183994140625,-0.3832387924194336,-0.2491769790649414,-0.04849278926849365
1782774495366378800,2.528378662109375,-0.2656285762786865,-0.2287464141845703,0.04227173328399658
1782774495376388600,2.538388671875,-0.14396977424621582,-0.17581939697265625,0.07283985614776611
1782774495386398200,2.548398193359375,0.0471949577331543,-0.15552711486816406,0.056397199630737305
1782774495396377600,2.558377685546875,0.12485146522521973,-0.15409564971923828,-0.030800819396972656
1782774495406387500,2.568387451171875,0.1286778450012207,-0.18410682678222656,-0.22443532943725586
1782774495416397300,2.578397216796875,0.20010900497436523,-0.2072153091430664,-0.31716036796569824
1782774495426376400,2.58837646484375,0.24071669578552246,-0.12022876739501953,-0.20235490798950195
1782774495436386000,2.598385986328125,0.26753902435302734,-0.028562545776367188,-0.09591829776763916
1782774495446395600,2.608395751953125,0.24745631217956543,0.0076999664306640625,-0.016508936882019043
1782774495456405500,2.618405517578125,0.15680432319641113,-0.03080272674560547,0.03423917293548584
1782774495466385000,2.628385009765625,0.02897357940673828,-0.08907032012939453,-0.02403879165649414
1782774495476394800,2.638394775390625,-0.1120145320892334,-0.16230392456054688,-0.09594255685806274
1782774495486404400,2.648404296875,-0.16326165199279785,-0.16655445098876953,-0.06286120414733887
1782774495496383700,2.6583837890625,-0.192291259765625,-0.1781177520751953,0.038345932960510254
1782774495506393600,2.6683935546875,-0.27394604682922363,-0.20635986328125,0.13628077507019043
1782774495516403200,2.6784033203125,-0.3438096046447754,-0.2009868621826172,0.12396776676177979
1782774495526382600,2.688382568359375,-0.4114973545074463,-0.22426891326904297,0.09985148906707764
1782774495536392200,2.69839208984375,-0.4343554973602295,-0.2832155227661133,0.008978128433227539
1782774495546401800,2.70840185546875,-0.36502718925476074,-0.2746601104736328,-0.043251752853393555
1782774495556381200,2.718381103515625,-0.2353684902191162,-0.18142986297607422,0.06913018226623535
1782774495566391000,2.72839111328125,-0.09568476676940918,-0.10880565643310547,0.18293142318725586
1782774495576400600,2.738400634765625,0.016933441162109375,-0.059752464294433594,0.16929900646209717
1782774495586380000,2.748380126953125,0.05568337440490723,0.03937339782714844,0.19206631183624268
1782774495596390000,2.758389892578125,0.10927820205688477,0.035225868225097656,0.07699573040008545
1782774495606399500,2.7683994140625,0.17745018005371094,0.01395416259765625,-0.06682324409484863
1782774495616378600,2.778378662109375,0.21957898139953613,0.01878833770751953,-0.04692840576171875
1782774495626388500,2.788388427734375,0.1331336498260498,-0.0700531005859375,-0.18025219440460205
1782774495636398000,2.798398193359375,0.0723106861114502,-0.12615299224853516,-0.2746967077255249
1782774495646377500,2.80837744140625,0.012713432312011719,-0.17072200775146484,-0.21181470155715942
1782774495656387300,2.81838720703125,-0.02241826057434082,-0.16506385803222656,-0.09294158220291138
1782774495666397200,2.828397216796875,-0.05004310607910156,-0.1330890655517578,-0.013387680053710938
1782774495676376300,2.838376220703125,-0.15336108207702637,-0.1253509521484375,0.15874338150024414
1782774495686386200,2.84838623046875,-0.27550506591796875,-0.14887142181396484,0.18958282470703125
1782774495696395800,2.858395751953125,-0.3586251735687256,-0.15602397918701172,0.06561970710754395
1782774495706405600,2.868405517578125,-0.4223949909210205,-0.1346569061279297,-0.02607119083404541
1782774495716384800,2.878384765625,-0.4030437469482422,-0.1441936492919922,-0.10758310556411743
1782774495726394600,2.88839453125,-0.25177431106567383,-0.13368988037109375,-0.1362372636795044
1782774495736404200,2.898404296875,-0.017896652221679688,-0.11687469482421875,-0.07408779859542847
1782774495746383600,2.908383544921875,0.18388819694519043,-0.11537361145019531,-0.009841084480285645
1782774495756393500,2.9183935546875,0.2985110282897949,-0.07039070129394531,0.009128093719482422
1782774495766403000,2.928403076171875,0.3019728660583496,-0.1289196014404297,0.02321600914001465
1782774495776382500,2.938382568359375,0.16396403312683105,-0.1078786849975586,0.053256869316101074
1782774495786392300,2.948392333984375,-0.0045354366302490234,-0.11676216125488281,0.08498001098632812
1782774495796402000,2.95840185546875,-0.2210986614227295,-0.09784126281738281,0.11190831661224365
1782774495806381300,2.96838134765625,-0.35553836822509766,-0.1558208465576172,0.08367359638214111
1782774495816391000,2.978390869140625,-0.3782217502593994,-0.19911575317382812,0.04114365577697754
1782774495826400800,2.98840087890625,-0.31426095962524414,-0.22243881225585938,0.0536503791809082
1782774495836380000,2.9983798828125,-0.27173376083374023,-0.25438404083251953,0.04220163822174072
1782774495846389800,3.0083896484375,-0.1858351230621338,-0.3022289276123047,-0.026491880416870117
1782774495856399600,3.018399658203125,-0.04730939865112305,-0.2868165969848633,0.05335879325866699
1782774495866378800,3.028378662109375,0.10128140449523926,-0.22506332397460938,0.15426301956176758
1782774495876388600,3.038388671875,0.14408326148986816,-0.19893932342529297,0.1872774362564087
1782774495886398500,3.0483984375,0.04969501495361328,-0.254974365234375,0.022098302841186523
1782774495896377600,3.058377685546875,-0.028664112091064453,-0.32380104064941406,-0.15632915496826172
1782774495906387500,3.068387451171875,-0.05165243148803711,-0.37361717224121094,-0.31307047605514526
1782774495916397300,3.078397216796875,-0.02055835723876953,-0.39664363861083984,-0.295393705368042
1782774495926376400,3.08837646484375,0.06217789649963379,-0.3807487487792969,-0.22427517175674438
1782774495936386000,3.098385986328125,0.04484844207763672,-0.34807300567626953,-0.11208134889602661
1782774495946336300,3.108336181640625,-0.03041839599609375,-0.3159818649291992,0.0029439926147460938
1782774495956466700,3.118466796875,-0.13018107414245605,-0.27014636993408203,0.05201268196105957
1782774495966325200,3.1283251953125,-0.283583402633667,-0.20092105865478516,0.05995941162109375
1782774495976455700,3.13845556640625,-0.4100210666656494,-0.057784080505371094,0.022859692573547363
1782774495986404400,3.148404296875,-0.4067420959472656,0.07559967041015625,0.062384843826293945
1782774495996383700,3.1583837890625,-0.329395055770874,0.17321300506591797,0.1467587947845459
1782774496006393600,3.1683935546875,-0.2814452648162842,0.21124649047851562,0.1282806396484375
1782774496016403200,3.1784033203125,-0.15155529975891113,0.18997859954833984,-0.007950901985168457
1782774496026382300,3.18838232421875,0.055857181549072266,0.15090656280517578,-0.053221821784973145
1782774496036392200,3.19839208984375,0.2518622875213623,0.048752784729003906,-0.10862773656845093
1782774496046401800,3.20840185546875,0.3605358600616455,-0.017078399658203125,-0.09871196746826172
1782774496056381200,3.218381103515625,0.2732725143432617,-0.07207012176513672,-0.05557370185852051
1782774496066391000,3.22839111328125,-0.012441158294677734,-0.14339637756347656,-0.04974639415740967
1782774496076400600,3.238400634765625,-0.24763274192810059,-0.22157764434814453,-0.11865454912185669
1782774496086380000,3.248380126953125,-0.45636868476867676,-0.2361612319946289,-0.08948957920074463
1782774496096390000,3.258389892578125,-0.4879634380340576,-0.22679901123046875,-0.0889045000076294
1782774496106399500,3.2683994140625,-0.451143741607666,-0.16913604736328125,-0.057072997093200684
1782774496116378600,3.278378662109375,-0.28455090522766113,-0.11783695220947266,-0.03973186016082764
1782774496126388500,3.288388427734375,-0.08242344856262207,-0.10846519470214844,-0.027223587036132812
1782774496136398000,3.298398193359375,0.034056663513183594,-0.0719757080078125,-0.03868293762207031
1782774496146377500,3.30837744140625,0.045073509216308594,-0.061873435974121094,-0.11875498294830322
1782774496156387300,3.31838720703125,0.016260385513305664,-0.05458354949951172,-0.10739362239837646
1782774496166397200,3.328397216796875,-0.01879572868347168,-0.07396507263183594,-0.043854355812072754
1782774496176376300,3.338376220703125,-0.010254859924316406,-0.08872127532958984,-0.059700608253479004
1782774496186386200,3.34838623046875,-0.020795583724975586,-0.07478046417236328,0.015438079833984375
1782774496196396000,3.35839599609375,-0.010206937789916992,-0.08701419830322266,0.04521989822387695
1782774496206405600,3.368405517578125,0.0505061149597168,-0.06336784362792969,0.06863462924957275
1782774496216384800,3.378384765625,0.07755541801452637,-0.08523178100585938,0.08554482460021973
1782774496226394600,3.38839453125,0.028389930725097656,-0.16487789154052734,-0.061457157135009766
1782774496236404200,3.398404296875,-0.0844125747680664,-0.20444488525390625,-0.22832858562469482
1782774496246383600,3.408383544921875,-0.11537384986877441,-0.2251443862915039,-0.35122227668762207
1782774496256393500,3.4183935546875,-0.08017182350158691,-0.21668624877929688,-0.27588993310928345
1782774496266403000,3.428403076171875,-0.01751875877380371,-0.15489768981933594,-0.1369447112083435
1782774496276382500,3.438382568359375,0.03704667091369629,-0.09261798858642578,0.010602712631225586
1782774496286392300,3.448392333984375,0.09856510162353516,-0.054134368896484375,0.061975836753845215
1782774496296402000,3.45840185546875,0.048352956771850586,-0.04476451873779297,0.08983981609344482
1782774496306381300,3.46838134765625,-0.03908729553222656,-0.13410568237304688,-0.015544891357421875
1782774496316391000,3.478390869140625,-0.08099365234375,-0.1924734115600586,-0.14849907159805298
1782774496326400800,3.48840087890625,0.012298822402954102,-0.2384481430053711,-0.18237578868865967
1782774496336380000,3.4983798828125,0.08251094818115234,-0.3052654266357422,-0.13297373056411743
1782774496346389800,3.5083896484375,0.1305384635925293,-0.29035472869873047,-0.07213389873504639
1782774496356399400,3.5183994140625,0.22652459144592285,-0.16283416748046875,-0.01701653003692627
1782774496366378800,3.528378662109375,0.2555875778198242,-0.08559322357177734,0.052047133445739746
1782774496376388600,3.538388671875,0.2015092372894287,-0.10201454162597656,0.0518336296081543
1782774496386398200,3.548398193359375,0.031965017318725586,-0.1672534942626953,-0.11937981843948364
1782774496396377600,3.558377685546875,-0.2134230136871338,-0.21240615844726562,-0.2390860915184021
1782774496406387500,3.568387451171875,-0.429703950881958,-0.20833587646484375,-0.2351272702217102
1782774496416397300,3.578397216796875,-0.48716068267822266,-0.21152973175048828,-0.11126333475112915
1782774496426376400,3.58837646484375,-0.4286961555480957,-0.16599082946777344,0.07734334468841553
1782774496436386000,3.598385986328125,-0.3579120635986328,-0.11704730987548828,0.23820531368255615
1782774496446396000,3.60839599609375,-0.28867197036743164,-0.12728404998779297,0.27428925037384033
1782774496456405500,3.618405517578125,-0.20330548286437988,-0.06784248352050781,0.30335474014282227
1782774496466385000,3.628385009765625,-0.09941291809082031,-0.03455162048339844,0.22770023345947266
1782774496476394800,3.638394775390625,-0.017860889434814453,-0.07535362243652344,0.055657267570495605
1782774496486404400,3.648404296875,0.06725549697875977,-0.1781778335571289,-0.0827973484992981
1782774496496383700,3.6583837890625,0.13216924667358398,-0.25438690185546875,-0.18876922130584717
1782774496506393600,3.6683935546875,0.20206785202026367,-0.2612295150756836,-0.2014712691307068
1782774496516403200,3.6784033203125,0.17753887176513672,-0.19184589385986328,-0.07439213991165161
1782774496526382300,3.68838232421875,0.04298973083496094,-0.13760852813720703,0.04083085060119629
1782774496536392200,3.69839208984375,-0.09601759910583496,-0.07473468780517578,0.13522768020629883
1782774496546401800,3.70840185546875,-0.2145392894744873,-0.053122520446777344,0.1363692283630371
1782774496556381200,3.718381103515625,-0.2142941951751709,-0.0647439956665039,0.07621920108795166
1782774496566391000,3.72839111328125,-0.12341904640197754,-0.05623149871826172,0.03658032417297363
1782774496576400600,3.738400634765625,0.0026378631591796875,-0.11845779418945312,-0.0683019757270813
1782774496586380000,3.748380126953125,0.1503598690032959,-0.1942138671875,-0.14352262020111084
1782774496596390000,3.758389892578125,0.20138072967529297,-0.2719697952270508,-0.1517564058303833
1782774496606399500,3.7683994140625,0.16411471366882324,-0.31627559661865234,-0.13411831855773926
1782774496616378600,3.778378662109375,0.046088218688964844,-0.29459381103515625,-0.08000785112380981
1782774496626388500,3.788388427734375,-0.11454105377197266,-0.20447540283203125,0.08006894588470459
1782774496636398000,3.798398193359375,-0.2924187183380127,-0.14374828338623047,0.20787429809570312
1782774496646377500,3.80837744140625,-0.47959208488464355,-0.17892169952392578,0.20176327228546143
1782774496656387300,3.81838720703125,-0.5577771663665771,-0.17783069610595703,0.05073666572570801
1782774496666397200,3.828397216796875,-0.4351682662963867,-0.13746356964111328,-0.017564773559570312
1782774496676376300,3.838376220703125,-0.12101030349731445,-0.1215524673461914,-0.0371776819229126
1782774496686386200,3.84838623046875,0.21050620079040527,-0.1350555419921875,-0.015901923179626465
1782774496696396000,3.85839599609375,0.40723204612731934,-0.20089054107666016,-0.023649156093597412
1782774496706405600,3.868405517578125,0.3865549564361572,-0.19602680206298828,-0.022278308868408203
1782774496716384800,3.878384765625,0.23078274726867676,-0.18067359924316406,-0.043188273906707764
1782774496726394600,3.88839453125,-0.01853775978088379,-0.21504974365234375,-0.10548555850982666
1782774496736404200,3.898404296875,-0.2523953914642334,-0.2628040313720703,-0.15375840663909912
1782774496746383600,3.908383544921875,-0.34715986251831055,-0.22435951232910156,-0.03777068853378296
1782774496756393500,3.9183935546875,-0.3577456474304199,-0.1346731185913086,0.10346496105194092
1782774496766403000,3.928403076171875,-0.26734185218811035,-0.046525001525878906,0.2203134298324585
1782774496776382500,3.938382568359375,-0.22162914276123047,-0.03185749053955078,0.2766517400741577
1782774496786392300,3.948392333984375,-0.15136194229125977,-0.11002922058105469,0.1097337007522583
1782774496796402000,3.95840185546875,-0.05035042762756348,-0.15629196166992188,-0.08506530523300171
1782774496806381300,3.96838134765625,0.06725406646728516,-0.2759513854980469,-0.30880457162857056
1782774496816391000,3.978390869140625,0.13220810890197754,-0.3453397750854492,-0.4103863835334778
1782774496826400800,3.98840087890625,0.22493839263916016,-0.2738609313964844,-0.25044840574264526
1782774496836380000,3.9983798828125,0.2172253131866455,-0.18634605407714844,-0.01914060115814209
1782774496846389800,4.0083896484375,0.17132830619812012,-0.14516067504882812,0.08097469806671143
1782774496856399400,4.0183994140625,0.012922286987304688,-0.1624431610107422,0.042244672775268555
1782774496866378800,4.028378662109375,-0.15036559104919434,-0.08739280700683594,-0.026833653450012207
1782774496876388600,4.038388671875,-0.30777978897094727,-0.04872894287109375,0.026384830474853516
1782774496886338800,4.0483388671875,-0.3816249370574951,-0.045844078063964844,0.0960550308227539
1782774496896469200,4.05846923828125,-0.4224672317504883,-0.04513263702392578,0.14897334575653076
1782774496906387500,4.068387451171875,-0.383284330368042,-0.058238983154296875,0.1087111234664917
1782774496916397300,4.078397216796875,-0.29880475997924805,-0.1399097442626953,-0.07099157571792603
1782774496926376400,4.08837646484375,-0.11981487274169922,-0.2107553482055664,-0.24354559183120728
1782774496936326400,4.098326416015625,0.051035404205322266,-0.23001575469970703,-0.26692187786102295
1782774496946456800,4.108456787109375,0.17740678787231445,-0.23421764373779297,-0.20269984006881714
1782774496956345900,4.118345947265625,0.35744595527648926,-0.12607955932617188,0.02473890781402588
1782774496966476300,4.128476318359375,0.3368697166442871,-0.07396984100341797,0.1806316375732422
1782774496976394800,4.138394775390625,0.16428232192993164,-0.11669445037841797,0.12062251567840576
1782774496986404400,4.148404296875,-0.12134504318237305,-0.1302661895751953,-0.069385826587677
1782774496996383700,4.1583837890625,-0.39647889137268066,-0.17406749725341797,-0.11463290452957153
1782774497006393600,4.1683935546875,-0.5179336071014404,-0.14381790161132812,-0.06423062086105347
1782774497016403200,4.1784033203125,-0.5136959552764893,-0.13453197479248047,-0.0025415420532226562
1782774497026322700,4.18832275390625,-0.32155776023864746,-0.11654472351074219,0.05666530132293701
1782774497036453400,4.198453369140625,-0.02963089942932129,-0.11458778381347656,0.0958019495010376
1782774497046401800,4.20840185546875,0.19570350646972656,-0.15168476104736328,0.03581345081329346
1782774497056381200,4.218381103515625,0.3298783302307129,-0.21036911010742188,-0.09967857599258423
1782774497066331400,4.228331298828125,0.3897228240966797,-0.25806236267089844,-0.24200594425201416
1782774497076461800,4.2384619140625,0.3868372440338135,-0.2610483169555664,-0.2335866093635559
1782774497086380000,4.248380126953125,0.3115856647491455,-0.20006656646728516,-0.17096847295761108
1782774497096390000,4.258389892578125,0.14805197715759277,-0.17842864990234375,-0.13071602582931519
1782774497106399700,4.268399658203125,-0.07399225234985352,-0.1007528305053711,0.01838696002960205
1782774497116379000,4.27837890625,-0.21901631355285645,-0.05763721466064453,0.08971959352493286
1782774497126388500,4.288388427734375,-0.32510805130004883,-0.04824638366699219,0.16060054302215576
1782774497136398300,4.2983984375,-0.34624385833740234,-0.050373077392578125,0.2129083275794983
1782774497146377500,4.30837744140625,-0.3427119255065918,-0.037540435791015625,0.15841668844223022
1782774497156387300,4.31838720703125,-0.30523204803466797,-0.10782527923583984,0.04053086042404175
1782774497166397200,4.328397216796875,-0.2313830852508545,-0.12713909149169922,0.043395280838012695
1782774497176376300,4.338376220703125,-0.14400267601013184,-0.11495113372802734,0.09147536754608154
1782774497186386200,4.34838623046875,-0.1258072853088379,-0.13866233825683594,0.13849079608917236
1782774497196395800,4.358395751953125,-0.11419796943664551,-0.14105701446533203,0.135079026222229
1782774497206405600,4.368405517578125,-0.19494962692260742,-0.1343364715576172,0.07696932554244995
1782774497216384800,4.378384765625,-0.24175119400024414,-0.194976806640625,-0.07079589366912842
1782774497226394600,4.38839453125,-0.1742691993713379,-0.15967655181884766,-0.10755378007888794
1782774497236404200,4.398404296875,-0.1124563217163086,-0.06890583038330078,0.025349676609039307
1782774497246383600,4.408383544921875,-0.08473324775695801,-0.04729747772216797,0.040632545948028564
1782774497256393500,4.4183935546875,-0.014395713806152344,-0.037535667419433594,-0.048711299896240234
1782774497266343400,4.428343505859375,0.0910184383392334,-0.07063484191894531,-0.10343015193939209
1782774497277234400,4.439234375,0.19558358192443848,-0.07470893859863281,-0.12166273593902588
1782774497296402000,4.45840185546875,0.19429230690002441,-0.19802570343017578,-0.2309279441833496
1782774497306381300,4.46838134765625,0.15326929092407227,-0.15290355682373047,-0.07046842575073242
1782774497316391000,4.478390869140625,0.061300039291381836,-0.10112476348876953,0.06656068563461304
1782774497326400800,4.48840087890625,-0.06712174415588379,-0.14581584930419922,0.10954898595809937
1782774497336380000,4.4983798828125,-0.22797703742980957,-0.1934347152709961,0.08151859045028687
1782774497346389800,4.5083896484375,-0.38417840003967285,-0.24589920043945312,-0.05550140142440796
1782774497356399400,4.5183994140625,-0.406879186630249,-0.2550983428955078,-0.09600687026977539
1782774497366378800,4.528378662109375,-0.359205961227417,-0.19420814514160156,0.004202008247375488
1782774497376388600,4.538388671875,-0.23202252388000488,-0.17313003540039062,0.026808857917785645
1782774497386398200,4.548398193359375,-0.11872720718383789,-0.25420570373535156,-0.07271218299865723
1782774497396377600,4.558377685546875,-0.05027508735656738,-0.3178720474243164,-0.14990884065628052
1782774497406387500,4.568387451171875,0.02409839630126953,-0.32116222381591797,-0.21743178367614746
1782774497416397300,4.578397216796875,0.03145313262939453,-0.25736236572265625,-0.13951218128204346
1782774497426376400,4.58837646484375,0.10687422752380371,-0.17942047119140625,-0.006150960922241211
1782774497436386000,4.598385986328125,0.0855252742767334,-0.0803384780883789,0.19011807441711426
1782774497446396000,4.60839599609375,0.05585789680480957,-0.07985496520996094,0.16765427589416504
1782774497456345900,4.618345947265625,-0.04486680030822754,-0.1756734848022461,-0.003502368927001953
1782774497466476300,4.628476318359375,-0.10731077194213867,-0.21657657623291016,-0.14191699028015137
1782774497476394800,4.638394775390625,-0.007498502731323242,-0.2285289764404297,-0.23711097240447998
1782774497486404400,4.648404296875,0.028958559036254883,-0.2734794616699219,-0.19643354415893555
1782774497496323800,4.65832373046875,0.09778785705566406,-0.27004241943359375,-0.20150119066238403
1782774497506454500,4.66845458984375,0.20221447944641113,-0.14669322967529297,-0.12345355749130249
1782774497516403200,4.6784033203125,0.16950201988220215,-0.009487152099609375,0.09130215644836426
1782774497526382600,4.688382568359375,0.0653998851776123,0.09562015533447266,0.3421875834465027
1782774497536392200,4.69839208984375,-0.0987858772277832,0.08969879150390625,0.34162867069244385
1782774497546401800,4.70840185546875,-0.2483971118927002,0.06907081604003906,0.19280749559402466
1782774497556381200,4.718381103515625,-0.31897878646850586,-0.02273845672607422,-0.07697433233261108
1782774497566391000,4.72839111328125,-0.26172828674316406,-0.15384674072265625,-0.19863325357437134
1782774497576341000,4.738341064453125,-0.028668642044067383,-0.23312091827392578,-0.15967166423797607
1782774497586412000,4.748412109375,0.2074422836303711,-0.20854949951171875,-0.0026339292526245117
1782774497597372700,4.75937255859375,0.2905116081237793,-0.27011585235595703,0.03583425283432007
1782774497616378600,4.778378662109375,0.1615760326385498,-0.34006500244140625,-0.14442896842956543
1782774497626388500,4.788388427734375,0.03881478309631348,-0.3416252136230469,-0.24502235651016235
1782774497636398000,4.798398193359375,-0.10799717903137207,-0.36325836181640625,-0.31733256578445435
1782774497646377500,4.80837744140625,-0.16727614402770996,-0.3111696243286133,-0.29458850622177124
1782774497656387300,4.81838720703125,-0.14044928550720215,-0.20144367218017578,-0.16079890727996826
1782774497666397200,4.828397216796875,-0.17209959030151367,-0.10312461853027344,-0.028413236141204834
1782774497676376300,4.838376220703125,-0.1285417079925537,-0.032904624938964844,0.050900936126708984
1782774497686386200,4.84838623046875,-0.026874780654907227,0.0045166015625,0.09927868843078613
1782774497696395800,4.858395751953125,0.056751251220703125,0.00411224365234375,0.10285007953643799
1782774497706405600,4.868405517578125,0.0709536075592041,-0.010746002197265625,0.07143253087997437
1782774497716384800,4.878384765625,0.06751346588134766,-0.062218666076660156,-0.011957228183746338
1782774497726394600,4.88839453125,-0.020001888275146484,-0.12897300720214844,-0.04966127872467041
1782774497736404200,4.898404296875,-0.12656021118164062,-0.15604782104492188,-0.08062028884887695
1782774497746383600,4.908383544921875,-0.2741048336029053,-0.19348430633544922,-0.06012153625488281
1782774497756393500,4.9183935546875,-0.4313192367553711,-0.15514087677001953,0.042709290981292725
1782774497766403000,4.928403076171875,-0.5460937023162842,-0.21074962615966797,0.0744023323059082
1782774497776382500,4.938382568359375,-0.5289914608001709,-0.18729877471923828,0.15028995275497437
1782774497786392300,4.948392333984375,-0.4674680233001709,-0.12493133544921875,0.30114680528640747
1782774497796402000,4.95840185546875,-0.36154842376708984,-0.018873214721679688,0.33335018157958984
1782774497806381300,4.96838134765625,-0.28249025344848633,-0.036972999572753906,0.3619624376296997
1782774497816391200,4.97839111328125,-0.22542333602905273,-0.08835601806640625,0.3159220218658447
1782774497826400800,4.98840087890625,-0.22866368293762207,-0.04631519317626953,0.19000661373138428
1782774497836380000,4.9983798828125,-0.14743876457214355,-0.04456520080566406,0.024274349212646484
1782774497846389800,5.0083896484375,-0.05007123947143555,-0.13043785095214844,-0.11922717094421387
1782774497856399600,5.018399658203125,0.08942031860351562,-0.22229385375976562,-0.1671862006187439
1782774497866378800,5.028378662109375,0.22687983512878418,-0.2175617218017578,-0.16211426258087158
1782774497876388600,5.038388671875,0.1920020580291748,-0.18968677520751953,-0.056380629539489746
1782774497886398200,5.048398193359375,0.07600021362304688,-0.2082958221435547,0.06478738784790039
1782774497896377600,5.058377685546875,-0.07173728942871094,-0.2850484848022461,0.06317096948623657
1782774497906387500,5.068387451171875,-0.17873644828796387,-0.36197948455810547,-0.09957778453826904
1782774497916397300,5.078397216796875,-0.23197579383850098,-0.4121427536010742,-0.32575786113739014
1782774497926376400,5.08837646484375,-0.12916350364685059,-0.39447498321533203,-0.35765010118484497
1782774497936386000,5.098385986328125,0.04099559783935547,-0.33269214630126953,-0.24256259202957153
1782774497946395600,5.108395751953125,0.231370210647583,-0.2606534957885742,-0.13345789909362793
1782774497956405500,5.118405517578125,0.28675174713134766,-0.1977701187133789,-0.10362422466278076
1782774497966385000,5.128385009765625,0.28054189682006836,-0.17835426330566406,-0.11588811874389648
1782774497976394800,5.138394775390625,0.13767385482788086,-0.10000896453857422,-0.09707576036453247
1782774497986404400,5.148404296875,0.007375240325927734,-0.1162424087524414,-0.08848965167999268
1782774497996383700,5.1583837890625,0.003474712371826172,-0.013517379760742188,-0.011045277118682861
1782774498006393600,5.1683935546875,0.047130584716796875,0.015162467956542969,0.12109196186065674
1782774498016403200,5.1784033203125,0.04420280456542969,-0.020445823669433594,-0.02097088098526001
1782774498026382600,5.188382568359375,0.012098312377929688,-0.13035011291503906,-0.20338529348373413
1782774498036392200,5.19839208984375,-0.05349445343017578,-0.1686239242553711,-0.35281801223754883
1782774498046401800,5.20840185546875,-0.07054781913757324,-0.21199989318847656,-0.3606017827987671
1782774498056381200,5.218381103515625,-0.11994004249572754,-0.1647176742553711,-0.22655624151229858
1782774498066391000,5.22839111328125,-0.11332440376281738,-0.10076904296875,0.01202315092086792
1782774498076400600,5.238400634765625,-0.20431113243103027,0.008655548095703125,0.14295709133148193
1782774498086380000,5.248380126953125,-0.2168288230895996,0.04166126251220703,0.24549883604049683
1782774498096390000,5.258389892578125,-0.2685563564300537,-0.004086494445800781,0.17938542366027832
1782774498106399700,5.268399658203125,-0.34423375129699707,-0.057220458984375,0.03161740303039551
1782774498116378600,5.278378662109375,-0.3525514602661133,-0.0818929672241211,-0.0932389497756958
1782774498126388500,5.288388427734375,-0.22051429748535156,-0.13253498077392578,-0.1077951192855835
1782774498136398000,5.298398193359375,0.011474609375,-0.08608818054199219,-0.034265875816345215
1782774498146377500,5.30837744140625,0.1788945198059082,-0.07931137084960938,-0.02349698543548584
1782774498156387300,5.31838720703125,0.3314692974090576,-0.14658737182617188,-0.045838236808776855
1782774498166397200,5.328397216796875,0.32723259925842285,-0.14255905151367188,-0.10634613037109375
1782774498176376300,5.338376220703125,0.18433523178100586,-0.1923828125,-0.25943523645401
1782774498186386200,5.34838623046875,0.004327058792114258,-0.2054443359375,-0.2878299951553345
1782774498196395800,5.358395751953125,-0.10795402526855469,-0.047242164611816406,-0.0859760046005249
1782774498206405600,5.368405517578125,-0.15878915786743164,0.19434165954589844,0.18739473819732666
1782774498216384800,5.378384765625,-0.17613482475280762,0.29955291748046875,0.3976975679397583
1782774498226394600,5.38839453125,-0.2824699878692627,0.21813297271728516,0.3356872797012329
1782774498236404200,5.398404296875,-0.3394286632537842,0.06736087799072266,0.0877375602722168
1782774498246383600,5.408383544921875,-0.2820322513580322,-0.07059478759765625,-0.24213629961013794
1782774498256393500,5.4183935546875,-0.06851410865783691,-0.1615133285522461,-0.3346049189567566
1782774498266403000,5.428403076171875,0.18901968002319336,-0.24832725524902344,-0.2363162636756897
1782774498276382500,5.438382568359375,0.28009653091430664,-0.293670654296875,-0.085385262966156
1782774498286392300,5.448392333984375,0.3222639560699463,-0.2173147201538086,0.11878949403762817
1782774498296402000,5.45840185546875,0.11916732788085938,-0.20314884185791016,0.21482878923416138
1782774498306381300,5.46838134765625,-0.1719369888305664,-0.26545047760009766,0.18613028526306152
1782774498316391200,5.47839111328125,-0.42148494720458984,-0.3028421401977539,0.08143842220306396
1782774498326400800,5.48840087890625,-0.585151195526123,-0.342559814453125,-0.04162001609802246
1782774498336380000,5.4983798828125,-0.6121628284454346,-0.37424278259277344,-0.1900653839111328
1782774498346389800,5.5083896484375,-0.4347109794616699,-0.35885143280029297,-0.24485623836517334
1782774498356399600,5.518399658203125,-0.2064807415008545,-0.29607486724853516,-0.15222972631454468
1782774498366378800,5.528378662109375,0.16650009155273438,-0.17890357971191406,0.01271277666091919
1782774498376388600,5.538388671875,0.45706844329833984,0.008267402648925781,0.2719191312789917
1782774498386398200,5.548398193359375,0.5121583938598633,0.0776529312133789,0.46693146228790283
1782774498396377600,5.558377685546875,0.3241615295410156,-0.005366325378417969,0.2223995327949524
1782774498406387500,5.568387451171875,0.12816143035888672,-0.12381649017333984,-0.007575333118438721
1782774498416397300,5.578397216796875,-0.10594391822814941,-0.21003246307373047,-0.12055337429046631
1782774498426376400,5.58837646484375,-0.2716221809387207,-0.2418365478515625,-0.21832340955734253
1782774498436386000,5.598385986328125,-0.38265275955200195,-0.3093118667602539,-0.22338879108428955
1782774498446395600,5.608395751953125,-0.3161938190460205,-0.28957366943359375,-0.10317021608352661
1782774498456405500,5.618405517578125,-0.19971489906311035,-0.29970550537109375,0.010711669921875
1782774498466385000,5.628385009765625,-0.08784723281860352,-0.30166149139404297,0.0927092432975769
1782774498476394800,5.638394775390625,-0.007790327072143555,-0.2602119445800781,0.12182474136352539
1782774498486404400,5.648404296875,0.008041858673095703,-0.2524137496948242,0.15049278736114502
1782774498496383700,5.6583837890625,-0.02024388313293457,-0.23557472229003906,0.13804054260253906
1782774498506393600,5.6683935546875,-0.07589578628540039,-0.2671794891357422,0.06800311803817749
1782774498516403200,5.6784033203125,-0.07651710510253906,-0.37783145904541016,-0.013396203517913818
1782774498526382600,5.688382568359375,-0.05928230285644531,-0.29407215118408203,-0.010334312915802002
1782774498536392200,5.69839208984375,-0.028890609741210938,-0.3319063186645508,-0.12703853845596313
1782774498546401800,5.70840185546875,0.0824594497680664,-0.27134037017822266,-0.09107714891433716
1782774498556381200,5.718381103515625,0.11949563026428223,-0.1866626739501953,0.01774376630783081
1782774498566391000,5.72839111328125,0.07578659057617188,-0.1620168685913086,0.027384519577026367
1782774498576400600,5.738400634765625,0.009714126586914062,-0.12370109558105469,-0.060746729373931885
1782774498586380000,5.748380126953125,-0.002340555191040039,-0.07642555236816406,-0.05254334211349487
1782774498596330200,5.758330322265625,-0.05407905578613281,-0.053485870361328125,-0.023089885711669922
1782774498606460700,5.768460693359375,-0.247528076171875,-0.04087066650390625,0.0009693503379821777
1782774498616379000,5.77837890625,-0.4130434989929199,-0.03845787048339844,0.015086174011230469
1782774498626388500,5.788388427734375,-0.4992489814758301,-0.036223411560058594,-0.041997432708740234
1782774498636398300,5.7983984375,-0.378619909286499,0.021612167358398438,-0.012057244777679443
1782774498646317800,5.80831787109375,-0.1991581916809082,0.018545150756835938,0.00426793098449707
1782774498656448300,5.8184482421875,-0.05637383460998535,0.007144927978515625,-0.01223289966583252
1782774498666397200,5.828397216796875,0.08226275444030762,0.07778263092041016,-0.03739684820175171
1782774498676376300,5.838376220703125,0.10601925849914551,0.05500221252441406,-0.03591257333755493
1782774498686386200,5.84838623046875,0.040023088455200195,-0.028202056884765625,-0.1152145266532898
1782774498696396000,5.85839599609375,0.04716134071350098,-0.06648445129394531,-0.11289453506469727
1782774498706405600,5.868405517578125,-0.033693552017211914,-0.09781837463378906,-0.06759786605834961
1782774498716384800,5.878384765625,-0.014420032501220703,-0.1194143295288086,-0.04127627611160278
1782774498726394600,5.88839453125,0.07097244262695312,-0.09754657745361328,-0.00044596195220947266
1782774498736404200,5.898404296875,0.1607189178466797,-0.13059139251708984,-0.009646832942962646
1782774498746383600,5.908383544921875,0.2047264575958252,-0.17080020904541016,-0.10414767265319824
1782774498756393500,5.9183935546875,0.23902535438537598,-0.15356063842773438,-0.10699409246444702
1782774498766403000,5.928403076171875,0.221160888671875,-0.09105300903320312,-0.09058725833892822
1782774498776382500,5.938382568359375,0.12292909622192383,-0.16539382934570312,-0.0699036717414856
1782774498786332700,5.948332763671875,0.023535490036010742,-0.21626853942871094,-0.011305272579193115
1782774498796464400,5.95846435546875,-0.09123110771179199,-0.20781517028808594,-0.0010780096054077148
1782774498806472700,5.96847265625,-0.17870163917541504,-0.2572145462036133,-0.022026240825653076
1782774498816391200,5.97839111328125,-0.22808480262756348,-0.29456329345703125,-0.05724257230758667
1782774498826400800,5.98840087890625,-0.21117877960205078,-0.2693490982055664,-0.03498595952987671
1782774498836380000,5.9983798828125,-0.19719529151916504,-0.24145984649658203,-0.008588254451751709
1782774498846389800,6.0083896484375,-0.17647027969360352,-0.17503833770751953,0.11317586898803711
1782774498856399400,6.0183994140625,-0.16779136657714844,-0.1348247528076172,0.1884477138519287
1782774498866378800,6.028378662109375,-0.20400786399841309,-0.10201168060302734,0.17006391286849976
1782774498876388600,6.038388671875,-0.15583586692810059,-0.045531272888183594,0.14479809999465942
1782774498886398200,6.048398193359375,-0.14373540878295898,-0.032103538513183594,0.11259883642196655
1782774498896377600,6.058377685546875,-0.12285208702087402,-0.11423206329345703,-0.035707712173461914
1782774498906387500,6.068387451171875,-0.12716364860534668,-0.13377094268798828,-0.18222516775131226
1782774498916397300,6.078397216796875,-0.03283119201660156,-0.09747600555419922,-0.14655280113220215
1782774498926376400,6.08837646484375,0.03580451011657715,-0.055571556091308594,0.003062129020690918
1782774498936386000,6.098385986328125,0.17081928253173828,-0.051616668701171875,0.14462953805923462
1782774498946396000,6.10839599609375,0.24137067794799805,-0.07873916625976562,0.23707902431488037
1782774498956405500,6.118405517578125,0.20773983001708984,-0.03928852081298828,0.22882336378097534
1782774498966325200,6.1283251953125,0.12108373641967773,-0.05342578887939453,0.11593306064605713
1782774498976396000,6.13839599609375,-0.030425310134887695,-0.18590831756591797,-0.024411320686340332
1782774498986406000,6.148406005859375,-0.1397256851196289,-0.3119993209838867,-0.23965394496917725
1782774498997347800,6.159347900390625,-0.1867978572845459,-0.36394786834716797,-0.37499409914016724
1782774499016464400,6.17846435546875,-0.028264284133911133,-0.3056612014770508,-0.12221378087997437
1782774499026382600,6.188382568359375,0.003699064254760742,-0.1405963897705078,0.17247509956359863
1782774499036392200,6.19839208984375,-0.09276962280273438,-0.023596763610839844,0.40317028760910034
1782774499046401800,6.20840185546875,-0.152510404586792,-0.05773448944091797,0.3534051179885864
1782774499056381200,6.218381103515625,-0.2337658405303955,-0.15428447723388672,0.24294763803482056
1782774499066391000,6.22839111328125,-0.26399755477905273,-0.23127460479736328,0.006000876426696777
1782774499076400600,6.238400634765625,-0.2745826244354248,-0.36040496826171875,-0.23317331075668335
1782774499086320400,6.2483203125,-0.10304665565490723,-0.40964221954345703,-0.2708345651626587
1782774499096450800,6.258450927734375,0.04745149612426758,-0.4435720443725586,-0.2527000904083252
1782774499106399500,6.2683994140625,0.17063236236572266,-0.44821834564208984,-0.22887498140335083
1782774499116379000,6.27837890625,0.18883037567138672,-0.3139934539794922,-0.060564517974853516
1782774499126388500,6.288388427734375,0.02725362777709961,-0.28582191467285156,0.01238107681274414
1782774499136398300,6.2983984375,-0.12853407859802246,-0.20145416259765625,0.16048669815063477
1782774499146377500,6.30837744140625,-0.2670555114746094,-0.13256072998046875,0.24782097339630127
1782774499156387300,6.31838720703125,-0.45284461975097656,-0.18845844268798828,0.16081660985946655
1782774499166397200,6.328397216796875,-0.5309815406799316,-0.1487255096435547,0.04919248819351196
1782774499176376300,6.338376220703125,-0.48360657691955566,-0.1037302017211914,-0.06617838144302368
1782774499186386200,6.34838623046875,-0.32113027572631836,-0.13217830657958984,-0.18972861766815186
1782774499196396000,6.35839599609375,-0.06180214881896973,-0.21902751922607422,-0.25263166427612305
1782774499206405600,6.368405517578125,0.1730976104736328,-0.21845149993896484,-0.22968190908432007
1782774499216384800,6.378384765625,0.30016636848449707,-0.16750144958496094,-0.1713268756866455
1782774499226394600,6.38839453125,0.30764079093933105,-0.09354305267333984,-0.04939383268356323
1782774499236404200,6.398404296875,0.16861343383789062,-0.006857872009277344,0.12838619947433472
1782774499246383600,6.408383544921875,-0.1908266544342041,0.02770519256591797,0.21669679880142212
1782774499256393500,6.4183935546875,-0.44972658157348633,0.027597427368164062,0.060051560401916504
1782774499266403000,6.428403076171875,-0.5487477779388428,-0.04200553894042969,-0.11053180694580078
1782774499276322800,6.43832275390625,-0.4543886184692383,-0.05081462860107422,-0.21126967668533325
1782774499286453200,6.448453369140625,-0.2843146324157715,-0.04887962341308594,-0.3029024600982666
1782774499296402000,6.45840185546875,0.058069467544555664,-0.0640859603881836,-0.25322598218917847
1782774499306381300,6.46838134765625,0.4370846748352051,-0.0032501220703125,-0.13774049282073975
1782774499316391200,6.47839111328125,0.635735273361206,0.09398269653320312,0.03861910104751587
1782774499326340900,6.4883408203125,0.6311078071594238,0.10395336151123047,0.11187392473220825
1782774499336471600,6.498471435546875,0.36757326126098633,0.013840675354003906,0.09476268291473389
1782774499346389800,6.5083896484375,0.08967971801757812,-0.09516239166259766,-0.009665727615356445
1782774499356339700,6.518339599609375,-0.1964888572692871,-0.22735977172851562,-0.10830044746398926
1782774499366470400,6.528470458984375,-0.44466280937194824,-0.3245420455932617,-0.19932228326797485
1782774499376388600,6.538388671875,-0.5969719886779785,-0.3954000473022461,-0.20193427801132202
1782774499386398200,6.548398193359375,-0.59328293800354,-0.37430381774902344,-0.052630066871643066
1782774499396377600,6.558377685546875,-0.4580502510070801,-0.2993135452270508,0.14524471759796143
1782774499406387500,6.568387451171875,-0.24937748908996582,-0.19652938842773438,0.27464354038238525
1782774499416397300,6.578397216796875,-0.08203291893005371,-0.1571216583251953,0.3057001829147339
1782774499426316500,6.588316650390625,0.06169533729553223,-0.1696758270263672,0.15153425931930542
1782774499437267700,6.599267822265625,0.1665794849395752,-0.1821880340576172,-0.005547225475311279
1782774499456405500,6.618405517578125,0.1090548038482666,-0.2829561233520508,-0.2076716423034668
1782774499466385000,6.628385009765625,0.021756649017333984,-0.2780275344848633,-0.19000029563903809
1782774499476394800,6.638394775390625,-0.04047727584838867,-0.2734260559082031,-0.13065457344055176
1782774499486404400,6.648404296875,-0.061650753021240234,-0.24488544464111328,-0.032159626483917236
1782774499496324000,6.658323974609375,-0.06375527381896973,-0.17310523986816406,0.07960230112075806
1782774499506454500,6.66845458984375,-0.0468447208404541,-0.0964059829711914,0.20256823301315308
1782774499516403200,6.6784033203125,-0.07316040992736816,-0.05550670623779297,0.23873460292816162
1782774499526382600,6.688382568359375,-0.11835861206054688,-0.06744384765625,0.1700965166091919
1782774499536392200,6.69839208984375,-0.08215785026550293,-0.036391258239746094,0.15762823820114136
1782774499546401800,6.70840185546875,-0.056121110916137695,-0.0913553237915039,0.03813904523849487
1782774499556381200,6.718381103515625,0.03778553009033203,-0.21768665313720703,-0.11767947673797607
1782774499566391000,6.72839111328125,0.09730362892150879,-0.2503976821899414,-0.27465057373046875
1782774499576341000,6.738341064453125,0.12073659896850586,-0.2494649887084961,-0.3028762936592102
1782774499586471400,6.748471435546875,0.12822461128234863,-0.23433780670166016,-0.1820182204246521
1782774499596390000,6.758389892578125,0.04672384262084961,-0.12642383575439453,0.04643595218658447
1782774499606339800,6.76833984375,-0.04267692565917969,-0.09089374542236328,0.14891034364700317
1782774499616470500,6.778470458984375,-0.138319730758667,-0.060547828674316406,0.2155054211616516
1782774499626388500,6.788388427734375,-0.24776339530944824,-0.03285503387451172,0.2536391019821167
1782774499636398000,6.798398193359375,-0.35724759101867676,-0.12018203735351562,0.13258153200149536
1782774499646377500,6.80837744140625,-0.42438387870788574,-0.20012760162353516,-0.023251473903656006
1782774499656387300,6.81838720703125,-0.36627745628356934,-0.23398208618164062,-0.17339998483657837
1782774499666337500,6.828337646484375,-0.22898292541503906,-0.2285757064819336,-0.16345304250717163
1782774499676468000,6.838468017578125,-0.06746077537536621,-0.15993213653564453,-0.05407094955444336
1782774499686386200,6.84838623046875,0.04535627365112305,-0.042916297912597656,0.12563669681549072
1782774499696396000,6.85839599609375,0.10416364669799805,0.07136726379394531,0.3067038059234619
1782774499706405600,6.868405517578125,0.1241464614868164,0.17299747467041016,0.4149548411369324
1782774499716384800,6.878384765625,0.04299497604370117,0.11336803436279297,0.27512943744659424
1782774499726394600,6.88839453125,-0.07488083839416504,0.01680278778076172,-0.014246106147766113
1782774499736404500,6.898404541015625,-0.1400444507598877,-0.0896615982055664,-0.20714008808135986
1782774499746383600,6.908383544921875,-0.09621191024780273,-0.15980148315429688,-0.22460824251174927
1782774499756393500,6.9183935546875,-0.09163832664489746,-0.18634414672851562,-0.14496243000030518
1782774499766403000,6.928403076171875,0.020178794860839844,-0.19817638397216797,-0.004475772380828857
1782774499776382500,6.938382568359375,-0.016704559326171875,-0.25049877166748047,0.08227235078811646
1782774499786392300,6.948392333984375,-0.0774831771850586,-0.2909088134765625,0.08563512563705444
1782774499796402000,6.95840185546875,-0.0923621654510498,-0.3123931884765625,0.03693962097167969
1782774499806381300,6.96838134765625,-0.13808298110961914,-0.34360408782958984,-0.01625514030456543
1782774499816331300,6.978331298828125,-0.14781856536865234,-0.34136295318603516,-0.06904083490371704
1782774499826461700,6.988461669921875,-0.17739462852478027,-0.3005790710449219,-0.2026994824409485
1782774499837452300,6.999452392578125,-0.1292426586151123,-0.28571128845214844,-0.3590707778930664
1782774499856399400,7.0183994140625,0.16050410270690918,-0.14106178283691406,-0.15408337116241455
1782774499866378800,7.028378662109375,0.3160984516143799,-0.03519630432128906,0.05541807413101196
1782774499876388600,7.038388671875,0.3425464630126953,-0.032250404357910156,0.1395014524459839
1782774499886338800,7.0483388671875,0.2843964099884033,-0.03717994689941406,0.12813901901245117
1782774499896469200,7.05846923828125,0.15446019172668457,-0.05997943878173828,0.08413147926330566
1782774499906387500,7.068387451171875,-0.04453158378601074,-0.10797977447509766,-0.0187608003616333
1782774499916397300,7.078397216796875,-0.18433570861816406,-0.14247798919677734,-0.16331303119659424
1782774499926376400,7.08837646484375,-0.21203899383544922,-0.2367267608642578,-0.2208573818206787
1782774499936386000,7.098385986328125,-0.14585590362548828,-0.2056722640991211,-0.10370326042175293
1782774499946395600,7.108395751953125,-0.12896227836608887,-0.1451568603515625,-0.023905932903289795
1782774499956405500,7.118405517578125,-0.04082846641540527,-0.13455677032470703,0.08575785160064697
1782774499966385000,7.128385009765625,0.029835939407348633,-0.18108367919921875,0.11126583814620972
1782774499976394800,7.138394775390625,0.06654572486877441,-0.20831012725830078,0.04386323690414429
1782774499986404400,7.148404296875,-0.010410785675048828,-0.19783496856689453,-0.051445186138153076
1782774499996383700,7.1583837890625,-0.06161308288574219,-0.2407703399658203,-0.07524418830871582
1782774500006393600,7.1683935546875,-0.0588078498840332,-0.23869705200195312,-0.030551373958587646
1782774500016403200,7.1784033203125,-0.06740164756774902,-0.2463541030883789,-0.03230172395706177
1782774500026382600,7.188382568359375,-0.08463335037231445,-0.16103553771972656,0.004256725311279297
1782774500036392200,7.19839208984375,-0.1700458526611328,-0.05225563049316406,0.059415340423583984
1782774500046401800,7.20840185546875,-0.3112761974334717,0.010388374328613281,0.07097268104553223
1782774500056381200,7.218381103515625,-0.4177100658416748,-0.00168609619140625,0.12041735649108887
1782774500066391000,7.22839111328125,-0.48818063735961914,-0.052082061767578125,0.09084194898605347
1782774500076400600,7.238400634765625,-0.45951223373413086,-0.10437774658203125,0.004993736743927002
1782774500086380000,7.248380126953125,-0.307004451751709,-0.12679100036621094,-0.07703918218612671
1782774500096390000,7.258389892578125,-0.020233631134033203,-0.0970449447631836,-0.007624387741088867
1782774500106399700,7.268399658203125,0.19623994827270508,-0.07306385040283203,0.008623659610748291
1782774500116379000,7.27837890625,0.2836465835571289,-0.11142349243164062,-0.13549309968948364
1782774500126388500,7.288388427734375,0.3085505962371826,-0.09085464477539062,-0.16199231147766113
1782774500136398300,7.2983984375,0.3317394256591797,-0.041823387145996094,-0.08572596311569214
1782774500146377500,7.30837744140625,0.2957165241241455,0.011732101440429688,-0.002356231212615967
1782774500156387300,7.31838720703125,0.17335796356201172,-0.021825790405273438,0.030413568019866943
1782774500166397200,7.328397216796875,-0.07982325553894043,-0.14293766021728516,-0.02079230546951294
1782774500176376300,7.338376220703125,-0.29982590675354004,-0.20990657806396484,-0.15750205516815186
1782774500186386200,7.34838623046875,-0.4007730484008789,-0.23356914520263672,-0.25275522470474243
1782774500196395800,7.358395751953125,-0.3024728298187256,-0.16064167022705078,-0.1137431263923645
1782774500206405600,7.368405517578125,-0.179534912109375,-0.041291236877441406,0.19041544198989868
1782774500216384800,7.378384765625,-0.14316391944885254,-0.06766128540039062,0.2173529863357544
1782774500226394600,7.38839453125,-0.08249330520629883,-0.0823221206665039,0.046813905239105225
1782774500236404500,7.398404541015625,-0.1177370548248291,-0.11626148223876953,-0.11202770471572876
1782774500246383600,7.408383544921875,-0.09105420112609863,-0.16453170776367188,-0.16437208652496338
1782774500256393500,7.4183935546875,-0.09318327903747559,-0.15054607391357422,-0.1397871971130371
1782774500266403000,7.428403076171875,-0.01636791229248047,-0.062224388122558594,0.0011310577392578125
1782774500276382500,7.438382568359375,-0.01807546615600586,-0.0074939727783203125,0.18122154474258423
1782774500286392300,7.448392333984375,-0.09517431259155273,-0.03944206237792969,0.1455472707748413
1782774500296402000,7.45840185546875,-0.19285345077514648,-0.08868217468261719,-0.07064777612686157
1782774500306381300,7.46838134765625,-0.19305896759033203,-0.12341499328613281,-0.2013465166091919
1782774500316391200,7.47839111328125,-0.12094521522521973,-0.14304733276367188,-0.21395283937454224
1782774500326400800,7.48840087890625,0.07104110717773438,-0.12096691131591797,-0.04546833038330078
1782774500336380200,7.498380126953125,0.18971657752990723,-0.1053009033203125,0.17163443565368652
1782774500346389800,7.5083896484375,0.2031559944152832,-0.16382598876953125,0.1628483533859253
1782774500356399600,7.518399658203125,0.1269090175628662,-0.25412845611572266,-0.0577702522277832
1782774500366378800,7.528378662109375,-0.016861915588378906,-0.27594852447509766,-0.24551188945770264
1782774500376388600,7.538388671875,-0.11650609970092773,-0.34853172302246094,-0.32731300592422485
1782774500386338800,7.5483388671875,-0.21812152862548828,-0.3134593963623047,-0.2785555124282837
1782774500396469200,7.55846923828125,-0.24068164825439453,-0.27576541900634766,-0.15845966339111328
1782774500406387500,7.568387451171875,-0.23280930519104004,-0.15137767791748047,0.15067309141159058
1782774500416397300,7.578397216796875,-0.22600436210632324,-0.012066841125488281,0.3890928030014038
1782774500426376400,7.58837646484375,-0.23180818557739258,0.043679237365722656,0.3909088969230652
1782774500436386000,7.598385986328125,-0.22948002815246582,-0.01751708984375,0.15129095315933228
1782774500446395600,7.608395751953125,-0.1340627670288086,-0.15451908111572266,-0.16836011409759521
1782774500456405500,7.618405517578125,0.05149984359741211,-0.2807483673095703,-0.3015918433666229
1782774500466325200,7.6283251953125,0.15174102783203125,-0.2554197311401367,-0.24885541200637817
1782774500476426500,7.638426513671875,0.2453935146331787,-0.2661476135253906,-0.1685032844543457
1782774500486465500,7.648465576171875,0.180131196975708,-0.3324851989746094,-0.14660614728927612
1782774500496383700,7.6583837890625,0.027744054794311523,-0.3021249771118164,-0.06456756591796875
1782774500506333700,7.668333740234375,-0.1665346622467041,-0.3090648651123047,0.006131172180175781
1782774500516464400,7.67846435546875,-0.3326594829559326,-0.2424774169921875,0.12850666046142578
1782774500526382600,7.688382568359375,-0.3868556022644043,-0.17801666259765625,0.06400322914123535
1782774500536392200,7.69839208984375,-0.3033449649810791,-0.11789608001708984,0.012017011642456055
1782774500546401800,7.70840185546875,-0.0592496395111084,-0.11668205261230469,0.0605807900428772
1782774500556381200,7.718381103515625,0.0961143970489502,-0.15986061096191406,0.07789444923400879
1782774500566391000,7.72839111328125,0.09478878974914551,-0.16442108154296875,-0.14960896968841553
1782774500576341000,7.738341064453125,0.14621925354003906,-0.15479469299316406,-0.2748033404350281
1782774500586412000,7.748412109375,0.16951727867126465,-0.1046133041381836,-0.15705502033233643
1782774500597407700,7.75940771484375,0.08668637275695801,-0.06688785552978516,0.05165010690689087
1782774500616470500,7.778470458984375,0.11639809608459473,-0.13555622100830078,0.0985875129699707
1782774500626388500,7.788388427734375,0.04589509963989258,-0.14589881896972656,0.09223449230194092
1782774500636398300,7.7983984375,-0.02616119384765625,-0.12318706512451172,-0.03499859571456909
1782774500646377500,7.80837744140625,-0.05372047424316406,-0.2639322280883789,-0.11382877826690674
1782774500656387300,7.81838720703125,-0.11016225814819336,-0.308746337890625,-0.04776662588119507
1782774500666397200,7.828397216796875,0.032343387603759766,-0.22578048706054688,0.01890873908996582
1782774500676376300,7.838376220703125,0.9218556880950928,-0.6103601455688477,0.062133967876434326
1782774500686386200,7.84838623046875,0.5463945865631104,-0.6916990280151367,-0.719563364982605
1782774500696395800,7.858395751953125,0.44644641876220703,-0.1729879379272461,-0.7959855794906616
1782774500706405600,7.868405517578125,-0.13908791542053223,-0.195465087890625,0.06850624084472656
1782774500716384800,7.878384765625,-0.6223816871643066,-0.1489715576171875,0.5777685046195984
1782774500726394600,7.88839453125,-0.8603506088256836,0.01881122589111328,0.372985303401947
1782774500736404500,7.898404541015625,-0.9439358711242676,0.06860542297363281,0.2755470275878906
1782774500746383600,7.908383544921875,-0.7011003494262695,0.10361576080322266,0.08921921253204346
1782774500756393500,7.9183935546875,-0.7768268585205078,0.05322074890136719,0.22750091552734375
1782774500766403000,7.928403076171875,-0.9415829181671143,0.005171775817871094,0.2445177435874939
1782774500776382500,7.938382568359375,-0.7431771755218506,0.044097900390625,0.04343956708908081
1782774500786392300,7.948392333984375,-0.4348938465118408,0.010354995727539062,-0.12105679512023926
1782774500796402000,7.95840185546875,-0.14833474159240723,-0.032227516174316406,-0.0593639612197876
1782774500806381300,7.96838134765625,0.3320455551147461,-0.08306503295898438,0.07283419370651245
1782774500816391200,7.97839111328125,0.7010922431945801,-0.10783004760742188,0.05754494667053223
1782774500826400800,7.98840087890625,0.8438692092895508,0.022054672241210938,-0.11979615688323975
1782774500836380200,7.998380126953125,0.8092257976531982,0.021032333374023438,-0.10886514186859131
1782774500846330000,8.008330078125,0.5177013874053955,0.07463264465332031,0.06695246696472168
1782774500856460500,8.01846044921875,0.1873795986175537,0.10217857360839844,0.01051628589630127
1782774500866378800,8.028378662109375,-0.02859354019165039,-0.0963582992553711,-0.18225347995758057
1782774500876388600,8.038388671875,-0.23239898681640625,-0.333343505859375,-0.28095120191574097
1782774500886398200,8.048398193359375,-0.3965566158294678,-0.4573383331298828,-0.3293321430683136
1782774500896377600,8.058377685546875,-0.3495802879333496,-0.36965370178222656,-0.23790127038955688
1782774500906387500,8.068387451171875,-0.2849717140197754,-0.32659053802490234,-0.06738030910491943
1782774500916397300,8.078397216796875,-0.1377561092376709,-0.4172849655151367,0.07924556732177734
1782774500926376400,8.08837646484375,-0.07042717933654785,-0.4665069580078125,0.11365127563476562
1782774500936386000,8.098385986328125,-0.13208580017089844,-0.4728050231933594,-0.052563250064849854
1782774500946396000,8.10839599609375,-0.20656514167785645,-0.4201507568359375,-0.21860271692276
1782774500956405500,8.118405517578125,-0.1764380931854248,-0.24145984649658203,-0.18210136890411377
1782774500966385000,8.128385009765625,-0.12669038772583008,-0.1104736328125,0.010336458683013916
1782774500976394800,8.138394775390625,0.07403755187988281,-0.016551971435546875,0.09694164991378784
1782774500986404400,8.148404296875,0.320265531539917,0.06758594512939453,0.21140271425247192
1782774500996383700,8.1583837890625,0.4154083728790283,0.10149192810058594,0.3132849335670471
1782774501006393600,8.1683935546875,0.32436132431030273,-0.052692413330078125,0.1777072548866272
1782774501016403200,8.1784033203125,0.10062623023986816,-0.24215984344482422,0.01433950662612915
1782774501026382600,8.188382568359375,-0.20489907264709473,-0.2948474884033203,-0.11878198385238647
1782774501036392200,8.19839208984375,-0.46468424797058105,-0.2720966339111328,-0.1775740385055542
1782774501046401800,8.20840185546875,-0.5167310237884521,-0.30401134490966797,-0.10151880979537964
1782774501056381200,8.218381103515625,-0.5515167713165283,-0.3109865188598633,0.05181342363357544
1782774501066391000,8.22839111328125,-0.5023200511932373,-0.29773426055908203,0.08676350116729736
1782774501076401000,8.23840087890625,-0.34302830696105957,-0.2905750274658203,0.03776580095291138
1782774501086380000,8.248380126953125,-0.2096238136291504,-0.1867818832397461,0.09164696931838989
1782774501096390000,8.258389892578125,-0.06816625595092773,-0.09184741973876953,0.17141193151474
1782774501106399700,8.268399658203125,0.13470244407653809,-0.013257026672363281,0.2531129717826843
1782774501116378600,8.278378662109375,0.21798181533813477,-0.016129493713378906,0.26314663887023926
1782774501126388500,8.288388427734375,0.15087485313415527,-0.10795402526855469,0.06193852424621582
1782774501136398300,8.2983984375,0.018182992935180664,-0.20793914794921875,-0.286532998085022
1782774501146377500,8.30837744140625,0.04878640174865723,-0.27000999450683594,-0.4488026201725006
1782774501156387300,8.31838720703125,0.05502009391784668,-0.27197837829589844,-0.30521345138549805
1782774501166397200,8.328397216796875,-0.0319061279296875,-0.2834196090698242,-0.11583119630813599
1782774501176376300,8.338376220703125,-0.0587306022644043,-0.22062206268310547,-0.11452817916870117
1782774501186326500,8.348326416015626,-0.09268403053283691,-0.2128133773803711,0.0006290674209594727
1782774501196457000,8.35845703125,-0.19298315048217773,-0.1573009490966797,0.14327943325042725
1782774501206405600,8.368405517578125,-0.24730491638183594,-0.08518028259277344,0.14643675088882446
1782774501216384800,8.378384765625,-0.2253267765045166,-0.04408836364746094,0.12134820222854614
1782774501226394600,8.38839453125,-0.18752074241638184,-0.05543041229248047,0.0022786855697631836
1782774501236404500,8.398404541015625,-0.060517311096191406,-0.09965705871582031,-0.06251567602157593
1782774501246383600,8.408383544921875,-0.05463528633117676,-0.08348274230957031,-0.08821433782577515
1782774501256393500,8.4183935546875,-0.021918058395385742,-0.09628582000732422,-0.168701171875
1782774501266403000,8.428403076171875,0.049433231353759766,-0.06372261047363281,-0.13923752307891846
1782774501276382500,8.438382568359375,0.09438490867614746,-0.07178878784179688,-0.05515855550765991
1782774501286392300,8.448392333984375,0.04459261894226074,-0.07064437866210938,0.04962325096130371
1782774501296402000,8.45840185546875,-0.1415407657623291,-0.08014774322509766,0.07249855995178223
1782774501306381300,8.46838134765625,-0.3034968376159668,-0.0596771240234375,0.08803880214691162
1782774501316391200,8.47839111328125,-0.45226168632507324,-0.06842899322509766,0.17735636234283447
1782774501326400800,8.48840087890625,-0.4172961711883545,-0.06254768371582031,0.2045392394065857
1782774501336380200,8.498380126953125,-0.28111743927001953,-0.03678607940673828,0.12922269105911255
1782774501346389800,8.5083896484375,-0.13030099868774414,-0.04136466979980469,-0.009230971336364746
1782774501356399600,8.518399658203125,-0.017687320709228516,-0.11694812774658203,-0.16255241632461548
1782774501366378800,8.528378662109375,0.11734318733215332,-0.08654022216796875,-0.150363028049469
1782774501376388600,8.538388671875,0.1570894718170166,-0.05856609344482422,-0.03454834222793579
1782774501386398500,8.5483984375,0.08000421524047852,-0.04844188690185547,0.13454973697662354
1782774501396377600,8.558377685546875,-0.051923274993896484,-0.08962154388427734,0.2688242793083191
1782774501406387500,8.568387451171875,-0.12523102760314941,-0.12895774841308594,0.21192437410354614
1782774501416397300,8.578397216796875,-0.2818300724029541,-0.1686849594116211,0.09921348094940186
1782774501426376400,8.58837646484375,-0.44304656982421875,-0.23738956451416016,-0.09084445238113403
1782774501436386000,8.598385986328125,-0.4488990306854248,-0.2174386978149414,-0.15834492444992065
1782774501446396000,8.60839599609375,-0.28899168968200684,-0.11275386810302734,0.08177250623703003
1782774501456405500,8.618405517578125,-0.11519336700439453,-0.11433982849121094,0.1691727638244629
1782774501466325200,8.6283251953125,-0.0339665412902832,-0.10566902160644531,0.1610124111175537
1782774501476669200,8.638669189453125,-0.051209449768066406,-0.07066154479980469,0.04406595230102539
1782774501486344700,8.6483447265625,-0.02336907386779785,-0.14339923858642578,-0.10705876350402832
1782774501496415500,8.65841552734375,0.07088708877563477,-0.21117687225341797,-0.1853368878364563
1782774501506454500,8.66845458984375,0.14776992797851562,-0.2690877914428711,-0.23264819383621216
1782774501516403200,8.6784033203125,0.10565471649169922,-0.2482471466064453,-0.24458062648773193
1782774501526382600,8.688382568359375,0.0007555484771728516,-0.17066192626953125,-0.161765456199646
1782774501536392200,8.69839208984375,-0.03533458709716797,-0.060179710388183594,0.0008746981620788574
1782774501546401800,8.70840185546875,-0.028250932693481445,0.05277824401855469,0.21512901782989502
1782774501556381200,8.718381103515625,-0.005341291427612305,0.0847330093383789,0.302608847618103
1782774501566391000,8.72839111328125,-0.0857539176940918,0.037693023681640625,0.1664954423904419
1782774501576400600,8.738400634765625,-0.10149192810058594,-0.05269813537597656,0.03981262445449829
1782774501586380000,8.748380126953125,-0.14676785469055176,-0.15244007110595703,-0.0832262635231018
1782774501596390000,8.758389892578125,-0.13344287872314453,-0.29720115661621094,-0.17907923460006714
1782774501606399500,8.7683994140625,0.015375137329101562,-0.2835073471069336,-0.16240108013153076
1782774501616379000,8.77837890625,0.1751420497894287,-0.15908050537109375,-0.02494335174560547
1782774501626388500,8.788388427734375,0.331707239151001,-0.28562450408935547,-0.007706701755523682
1782774501636398000,8.798398193359375,0.4840230941772461,-0.3250894546508789,-0.04119640588760376
1782774501646377500,8.80837744140625,0.3069186210632324,-0.30512332916259766,-0.04364520311355591
1782774501656387300,8.81838720703125,-0.01806926727294922,-0.2827491760253906,-0.08940774202346802
1782774501666397200,8.828397216796875,-0.47333526611328125,-0.03408241271972656,0.18988162279129028
1782774501676376300,8.838376220703125,-0.0285491943359375,-0.32152366638183594,0.2861940264701843
1782774501686386200,8.84838623046875,-0.5194432735443115,-0.4647331237792969,-0.15580546855926514
1782774501696395800,8.858395751953125,-0.39165425300598145,-0.13101863861083984,-0.4239950180053711
1782774501706405600,8.868405517578125,-0.4946434497833252,-0.04230499267578125,0.16122663021087646
1782774501716384800,8.878384765625,-0.4622371196746826,-0.11926555633544922,0.4917522668838501
1782774501726394600,8.88839453125,-0.3310120105743408,0.038669586181640625,0.3217863440513611
1782774501736404500,8.898404541015625,-0.30301880836486816,0.1124725341796875,0.34515613317489624
1782774501746383600,8.908383544921875,-0.38236141204833984,0.07952594757080078,0.3795841336250305
1782774501756393500,8.9183935546875,-0.2090003490447998,0.05768871307373047,0.1701643466949463
1782774501766403000,8.928403076171875,0.1504197120666504,-0.0960845947265625,-0.22518694400787354
1782774501776382500,8.938382568359375,0.5621943473815918,-0.44037628173828125,-0.41932886838912964
1782774501786392300,8.948392333984375,0.7723784446716309,-0.47986602783203125,-0.35698050260543823
1782774501796402000,8.95840185546875,0.6144933700561523,-0.25775909423828125,-0.2677345871925354
