time,seconds_elapsed,z,y,x
1782774472976417500,0.18041748046875,-0.24022769927978516,-0.035231590270996094,0.052910804748535156
1782774472986427100,0.19042724609375,-0.3621056079864502,-0.051311492919921875,0.004811525344848633
1782774472996406500,0.200406494140625,-0.32758593559265137,0.041701316833496094,0.00334930419921875
1782774473006416400,0.21041650390625,-0.0972285270690918,0.16982364654541016,0.18550705909729004
1782774473016426000,0.220426025390625,-0.023721694946289062,0.09675025939941406,0.3197636604309082
1782774473026405400,0.2304052734375,0.031746864318847656,-0.0024585723876953125,0.19631266593933105
1782774473036415200,0.240415283203125,-0.012326717376708984,-0.10627269744873047,0.014201641082763672
1782774473046424800,0.2504248046875,-0.0720522403717041,-0.3066234588623047,-0.31412243843078613
1782774473056404200,0.260404296875,-0.05307912826538086,-0.4065704345703125,-0.5173826217651367
1782774473066413800,0.270413818359375,0.10727596282958984,-0.23642444610595703,-0.22426748275756836
1782774473076423400,0.28042333984375,0.2186286449432373,0.04210090637207031,0.2993311882019043
1782774473086402800,0.29040283203125,0.25664567947387695,0.2610006332397461,0.6457018852233887
1782774473096412700,0.30041259765625,0.28078603744506836,0.23107624053955078,0.7942111492156982
1782774473106422500,0.310422607421875,0.1160576343536377,0.06638050079345703,0.47808027267456055
1782774473116401700,0.320401611328125,0.06293225288391113,-0.19582080841064453,-0.16956090927124023
1782774473126411500,0.33041162109375,0.15996384620666504,-0.3458547592163086,-0.5923498868942261
1782774473136421400,0.34042138671875,0.3415181636810303,-0.32663440704345703,-0.650357723236084
1782774473146400500,0.350400390625,0.46542954444885254,-0.19535541534423828,-0.3449174165725708
1782774473156410000,0.36041015625,0.5299530029296875,-0.1349802017211914,0.06141304969787598
1782774473166420000,0.370419921875,0.5365197658538818,-0.05757427215576172,0.3459019660949707
1782774473176399000,0.380399169921875,0.21570515632629395,-0.1395883560180664,0.22352075576782227
1782774473186409000,0.390408935546875,-0.06522250175476074,-0.34099483489990234,-0.18538451194763184
1782774473196418600,0.40041845703125,-0.15433239936828613,-0.4337015151977539,-0.44039463996887207
1782774473206428400,0.410428466796875,0.00043511390686035156,-0.4210529327392578,-0.45523202419281006
1782774473216407800,0.42040771484375,0.010756254196166992,-0.33664417266845703,-0.2619854211807251
1782774473226417700,0.430417724609375,-0.056304931640625,-0.27697277069091797,-0.0993185043334961
1782774473236427300,0.44042724609375,-0.3093874454498291,-0.2669992446899414,-0.05199575424194336
1782774473246406400,0.450406494140625,-0.6298496723175049,-0.3235664367675781,-0.20854437351226807
1782774473256416300,0.460416259765625,-0.9095041751861572,-0.3923664093017578,-0.3927117586135864
1782774473266425900,0.47042578125,-0.9404640197753906,-0.33811473846435547,-0.4007977247238159
1782774473276405200,0.4804052734375,-0.8265068531036377,-0.3172636032104492,-0.33875322341918945
1782774473286415000,0.4904150390625,-0.4984142780303955,-0.34043216705322266,-0.25295400619506836
1782774473296424700,0.5004248046875,0.00016355514526367188,-0.2574882507324219,-0.07081210613250732
1782774473306404000,0.510404052734375,0.3794901371002197,-0.21793270111083984,0.09644186496734619
1782774473316414000,0.5204140625,0.4594874382019043,-0.19039058685302734,0.11578178405761719
1782774473326423600,0.530423583984375,0.3138904571533203,-0.23909854888916016,-0.10363101959228516
1782774473336402700,0.540402587890625,0.06594038009643555,-0.4100675582885742,-0.45412778854370117
1782774473346412500,0.55041259765625,-0.1769702434539795,-0.4779987335205078,-0.6752007007598877
1782774473356422400,0.56042236328125,-0.3976280689239502,-0.3967628479003906,-0.6069291830062866
1782774473366401500,0.570401611328125,-0.48247361183166504,-0.24593067169189453,-0.2951829433441162
1782774473376411400,0.580411376953125,-0.3166656494140625,-0.08710384368896484,0.07494449615478516
1782774473386421000,0.5904208984375,-0.17458343505859375,0.11655139923095703,0.5284411907196045
1782774473396400400,0.600400390625,-0.10917949676513672,0.15110111236572266,0.6250617504119873
1782774473406410200,0.61041015625,0.03563714027404785,0.1162557601928711,0.39406561851501465
1782774473416420000,0.620420166015625,0.022649765014648438,-0.04527473449707031,-0.0837554931640625
1782774473426399200,0.630399169921875,-0.08269572257995605,-0.26729774475097656,-0.4571971893310547
1782774473436408800,0.640408935546875,-0.13203167915344238,-0.42439746856689453,-0.6574559211730957
1782774473446418700,0.650418701171875,-0.06748127937316895,-0.4069194793701172,-0.5687415599822998
1782774473456428500,0.660428466796875,-0.09430146217346191,-0.3078727722167969,-0.1905432939529419
1782774473466407700,0.67040771484375,-0.1950211524963379,-0.11304664611816406,0.2584303617477417
1782774473476417500,0.68041748046875,-0.21064305305480957,0.024086952209472656,0.42796826362609863
1782774473486427100,0.69042724609375,-0.17618227005004883,0.08207416534423828,0.373529314994812
1782774473496406500,0.700406494140625,-0.2778615951538086,0.03885936737060547,0.18257451057434082
1782774473506416400,0.71041650390625,-0.3816797733306885,-0.17508220672607422,-0.08679425716400146
1782774473516426000,0.720426025390625,-0.41664624214172363,-0.24072647094726562,-0.26084625720977783
1782774473526405400,0.7304052734375,-0.3073689937591553,-0.31033992767333984,-0.33190619945526123
1782774473536415200,0.740415283203125,-0.10987234115600586,-0.3615121841430664,-0.20386254787445068
1782774473546424800,0.7504248046875,-0.034001827239990234,-0.3011751174926758,-0.008771300315856934
1782774473556404000,0.760404052734375,0.08603763580322266,-0.1777811050415039,0.14708125591278076
1782774473566413800,0.770413818359375,0.11745548248291016,-0.06623172760009766,0.2809000015258789
1782774473576423400,0.78042333984375,0.0493769645690918,-0.11325359344482422,0.2977942228317261
1782774473586402800,0.79040283203125,-0.09619617462158203,-0.2737922668457031,0.07672345638275146
1782774473596412700,0.80041259765625,-0.2052297592163086,-0.34656429290771484,-0.1417369842529297
1782774473606422300,0.81042236328125,-0.11925363540649414,-0.34005165100097656,-0.26036500930786133
1782774473616401700,0.820401611328125,0.07447004318237305,-0.3370676040649414,-0.28150808811187744
1782774473626411500,0.83041162109375,0.2786540985107422,-0.25408267974853516,-0.24174952507019043
1782774473636421000,0.840421142578125,0.34275245666503906,-0.20142555236816406,-0.07130467891693115
1782774473646400500,0.850400390625,0.373140811920166,-0.22751522064208984,-0.17454886436462402
1782774473656410000,0.86041015625,0.3155055046081543,-0.287689208984375,-0.35997843742370605
1782774473666420000,0.870419921875,0.2426142692565918,-0.3151559829711914,-0.3388841152191162
1782774473676399000,0.880399169921875,0.12491989135742188,-0.2644786834716797,-0.1578381061553955
1782774473686409000,0.890408935546875,0.021648883819580078,-0.11960792541503906,0.029232263565063477
1782774473696418800,0.900418701171875,-0.15434741973876953,-0.09590721130371094,0.09710824489593506
1782774473706428400,0.910428466796875,-0.21255207061767578,0.018312454223632812,0.12543988227844238
1782774473716407800,0.92040771484375,-0.06734895706176758,-0.0176544189453125,-0.14284193515777588
1782774473726417700,0.930417724609375,0.03639936447143555,-0.16286182403564453,-0.24773621559143066
1782774473736427300,0.94042724609375,0.10700416564941406,-0.20429420471191406,-0.2346130609512329
1782774473746406400,0.950406494140625,0.09904193878173828,-0.14052963256835938,-0.22178053855895996
1782774473756416300,0.960416259765625,0.11237382888793945,-0.11571884155273438,-0.10302698612213135
1782774473766425900,0.97042578125,0.07357501983642578,-0.12294960021972656,0.07556378841400146
1782774473776405200,0.9804052734375,-0.06319093704223633,-0.23183822631835938,-0.01704084873199463
1782774473786415000,0.9904150390625,-0.15897321701049805,-0.2526559829711914,-0.12446892261505127
1782774473796424700,1.0004248046875,-0.12935829162597656,-0.25151634216308594,-0.17770206928253174
1782774473806404000,1.010404052734375,-0.04638338088989258,-0.21122264862060547,-0.1449223756790161
1782774473816414000,1.0204140625,-0.00684356689453125,-0.16092300415039062,-0.048844218254089355
1782774473826423600,1.030423583984375,-0.007277011871337891,-0.20884037017822266,-0.016509413719177246
1782774473836403000,1.04040283203125,0.061944007873535156,-0.1443033218383789,0.04439866542816162
1782774473846412500,1.05041259765625,0.15891361236572266,-0.06741619110107422,0.21349334716796875
1782774473856422100,1.060422119140625,0.17034339904785156,-0.11179447174072266,0.3274717330932617
1782774473866401500,1.070401611328125,0.10489368438720703,-0.21614456176757812,0.06440532207489014
1782774473876411400,1.080411376953125,0.027007102966308594,-0.30279064178466797,-0.08099055290222168
1782774473886421200,1.090421142578125,-0.12092828750610352,-0.48621463775634766,-0.1680821180343628
1782774473896400400,1.100400390625,-0.25250911712646484,-0.4982156753540039,-0.24068963527679443
1782774473906410200,1.11041015625,-0.3137993812561035,-0.3834991455078125,-0.11816108226776123
1782774473916420000,1.120420166015625,-0.32004737854003906,-0.23713397979736328,0.061577439308166504
1782774473926399200,1.130399169921875,-0.34354424476623535,-0.2218341827392578,0.09329092502593994
1782774473936408800,1.140408935546875,-0.2879014015197754,-0.2843914031982422,0.09107565879821777
1782774473946418700,1.150418701171875,-0.14496660232543945,-0.20894241333007812,0.054047465324401855
1782774473956428500,1.160428466796875,-0.09082508087158203,-0.17069625854492188,0.000960230827331543
1782774473966407700,1.17040771484375,-0.1303400993347168,-0.2568683624267578,-0.06378769874572754
1782774473976417500,1.18041748046875,-0.09067392349243164,-0.30001354217529297,-0.10463547706604004
1782774473986427100,1.19042724609375,0.04396486282348633,-0.28525543212890625,-0.0979146957397461
1782774473996406500,1.200406494140625,0.06306838989257812,-0.2916250228881836,-0.10379290580749512
1782774474006416400,1.21041650390625,0.08791971206665039,-0.2361459732055664,-0.0835881233215332
1782774474016426000,1.220426025390625,0.05988645553588867,-0.212615966796875,-0.042990684509277344
1782774474026405400,1.2304052734375,0.053740501403808594,-0.15897846221923828,0.05592644214630127
1782774474036415200,1.240415283203125,-0.06736278533935547,-0.07279300689697266,0.127671480178833
1782774474046424800,1.2504248046875,-0.2494029998779297,-0.08311748504638672,0.07072103023529053
1782774474056404200,1.260404296875,-0.44606661796569824,-0.1655559539794922,-0.12296032905578613
1782774474066413800,1.270413818359375,-0.3689756393432617,-0.1996135711669922,-0.26259303092956543
1782774474076423400,1.28042333984375,-0.2512092590332031,-0.1630878448486328,-0.2513546943664551
1782774474086402800,1.29040283203125,-0.1640615463256836,-0.1519317626953125,-0.2619708776473999
1782774474096412700,1.30041259765625,0.012720108032226562,-0.11839485168457031,-0.1681891679763794
1782774474106422500,1.310422607421875,0.1187748908996582,0.08840179443359375,0.046384572982788086
1782774474116401700,1.320401611328125,0.18146181106567383,0.24513816833496094,0.10490715503692627
1782774474126411500,1.33041162109375,0.2613096237182617,0.20763111114501953,0.10902714729309082
1782774474136421400,1.34042138671875,0.22447776794433594,0.088134765625,0.07632148265838623
1782774474146400500,1.350400390625,0.14811372756958008,0.022640228271484375,-0.10460186004638672
1782774474156410000,1.36041015625,0.10654783248901367,-0.04394721984863281,-0.3309236764907837
1782774474166420000,1.370419921875,0.03297090530395508,-0.07560443878173828,-0.3667573928833008
1782774474176399000,1.380399169921875,-0.04618215560913086,-0.1080923080444336,-0.36637401580810547
1782774474186409000,1.390408935546875,0.016717910766601562,-0.05214214324951172,-0.19245290756225586
1782774474196418600,1.40041845703125,0.02301025390625,-0.0057373046875,-0.020882368087768555
1782774474206428400,1.410428466796875,-0.15536212921142578,-0.07733345031738281,0.005323648452758789
1782774474216407800,1.42040771484375,-0.2191939353942871,-0.14754676818847656,-0.05444908142089844
1782774474226417700,1.430417724609375,-0.3236818313598633,-0.1867361068725586,-0.03716468811035156
1782774474236427300,1.44042724609375,-0.36470985412597656,-0.25664710998535156,-0.18415534496307373
1782774474246406400,1.450406494140625,-0.302398681640625,-0.19648075103759766,-0.1242520809173584
1782774474256416300,1.460416259765625,-0.20669174194335938,-0.09661674499511719,0.040041327476501465
1782774474266425900,1.47042578125,-0.04395580291748047,-0.09356975555419922,0.1530754566192627
1782774474276405200,1.4804052734375,0.19347190856933594,-0.1136159896850586,0.17556500434875488
1782774474286415000,1.4904150390625,0.29109954833984375,-0.15492725372314453,0.03857779502868652
1782774474296424700,1.5004248046875,0.2552914619445801,-0.24954986572265625,-0.14446568489074707
1782774474306404000,1.510404052734375,0.12302303314208984,-0.3547210693359375,-0.2428685426712036
1782774474316414000,1.5204140625,-0.03291034698486328,-0.4033479690551758,-0.20205426216125488
1782774474326423600,1.530423583984375,-0.10121345520019531,-0.41153907775878906,-0.0917884111404419
1782774474336402700,1.540402587890625,-0.09660720825195312,-0.3431119918823242,0.0467149019241333
1782774474346412500,1.55041259765625,-0.06514453887939453,-0.2363109588623047,0.24811255931854248
1782774474356422400,1.56042236328125,-0.09344053268432617,-0.10296058654785156,0.4241454601287842
1782774474366401500,1.570401611328125,-0.21904897689819336,-0.10648536682128906,0.3392033576965332
1782774474376411400,1.580411376953125,-0.3775815963745117,-0.24468708038330078,0.12192428112030029
1782774474386421000,1.5904208984375,-0.4921433925628662,-0.30594921112060547,-0.04044926166534424
1782774474396400400,1.600400390625,-0.4758260250091553,-0.3276557922363281,-0.21318364143371582
1782774474406410200,1.61041015625,-0.2071237564086914,-0.2541532516479492,-0.20878660678863525
1782774474416420000,1.620420166015625,0.09200477600097656,-0.18109798431396484,0.1331249475479126
1782774474426399200,1.630399169921875,0.08690309524536133,-0.1481170654296875,0.29492437839508057
1782774474436408800,1.640408935546875,0.044243812561035156,-0.03513336181640625,0.3339916467666626
1782774474446418700,1.650418701171875,0.04756927490234375,-0.016962051391601562,0.25116217136383057
1782774474456428500,1.660428466796875,-0.043149471282958984,-0.055108070373535156,-0.016159653663635254
1782774474466407700,1.67040771484375,-0.17357254028320312,-0.16866588592529297,-0.2963975667953491
1782774474476417500,1.68041748046875,-0.13469743728637695,-0.21284770965576172,-0.43084895610809326
1782774474486427100,1.69042724609375,-0.039069175720214844,-0.16313934326171875,-0.41300225257873535
1782774474496406500,1.700406494140625,-0.012636184692382812,-0.1731586456298828,-0.3390014171600342
1782774474506416400,1.71041650390625,0.04051065444946289,-0.1327838897705078,-0.19004511833190918
1782774474516426000,1.720426025390625,0.046384334564208984,-0.035019874572753906,-0.09497463703155518
1782774474526405400,1.7304052734375,-0.0021715164184570312,0.06487846374511719,0.02615964412689209
1782774474536415200,1.740415283203125,-0.1291790008544922,0.08078384399414062,0.029576659202575684
1782774474546424800,1.7504248046875,-0.18450450897216797,0.02951335906982422,-0.03289973735809326
1782774474556404000,1.760404052734375,-0.16890954971313477,-0.07193470001220703,-0.1964787244796753
1782774474566413800,1.770413818359375,-0.07391023635864258,-0.09851455688476562,-0.22901690006256104
1782774474576423400,1.78042333984375,0.10720968246459961,-0.10004234313964844,-0.20363223552703857
1782774474586402800,1.79040283203125,0.28472089767456055,-0.0985260009765625,-0.1570124626159668
1782774474596412700,1.80041259765625,0.30744123458862305,-0.058966636657714844,-0.06565868854522705
1782774474606422300,1.81042236328125,0.3577861785888672,-0.04397773742675781,-0.10117471218109131
1782774474616401700,1.820401611328125,0.33228015899658203,-0.08705425262451172,-0.1712890863418579
1782774474626411500,1.83041162109375,0.2134389877319336,-0.17845821380615234,-0.26058948040008545
1782774474636421000,1.840421142578125,0.08761453628540039,-0.25133705139160156,-0.418715238571167
1782774474646400500,1.850400390625,-0.02447986602783203,-0.2509498596191406,-0.30567681789398193
1782774474656410000,1.86041015625,-0.26355743408203125,-0.14185047149658203,-0.051404714584350586
1782774474666420000,1.870419921875,-0.4243199825286865,0.02602100372314453,0.21219253540039062
1782774474676399000,1.880399169921875,-0.5270693302154541,0.1437397003173828,0.4185624122619629
1782774474686409000,1.890408935546875,-0.5422966480255127,0.046448707580566406,0.27330124378204346
1782774474696418800,1.900418701171875,-0.4972827434539795,-0.08621025085449219,0.03710579872131348
1782774474706428400,1.910428466796875,-0.3254685401916504,-0.25539493560791016,-0.15995502471923828
1782774474716407800,1.92040771484375,-0.01196146011352539,-0.27562713623046875,-0.19709348678588867
1782774474726417700,1.930417724609375,0.19627714157104492,-0.38458251953125,-0.23889446258544922
1782774474736427300,1.94042724609375,0.3605976104736328,-0.4929065704345703,-0.33222436904907227
1782774474746406400,1.950406494140625,0.43961381912231445,-0.46737194061279297,-0.2040250301361084
1782774474756416300,1.960416259765625,0.42899656295776367,-0.3749980926513672,-0.006535887718200684
1782774474766425900,1.97042578125,0.32581520080566406,-0.2598237991333008,0.10961377620697021
1782774474776405200,1.9804052734375,0.21936655044555664,-0.2181377410888672,0.18125498294830322
1782774474786415000,1.9904150390625,-0.0060024261474609375,-0.1612405776977539,0.23615658283233643
1782774474796424700,2.0004248046875,-0.23865461349487305,-0.08423709869384766,0.16124069690704346
1782774474806404000,2.010404052734375,-0.39156246185302734,-0.05359649658203125,-0.05435597896575928
1782774474816414000,2.0204140625,-0.4434506893157959,-0.17305755615234375,-0.17301440238952637
1782774474826423600,2.030423583984375,-0.39526891708374023,-0.2718772888183594,-0.2394866943359375
1782774474836403000,2.04040283203125,-0.23906850814819336,-0.26655006408691406,-0.24709868431091309
1782774474846412500,2.05041259765625,-0.18201637268066406,-0.16943836212158203,-0.12490546703338623
1782774474856422100,2.060422119140625,-0.15820598602294922,-0.15124034881591797,-0.08303177356719971
1782774474866401500,2.070401611328125,-0.1546478271484375,-0.0856618881225586,0.00840294361114502
1782774474876411400,2.080411376953125,-0.12390899658203125,-0.027484893798828125,0.12268936634063721
1782774474886421200,2.090421142578125,-0.07804012298583984,0.01600170135498047,0.20080387592315674
1782774474896400400,2.100400390625,-0.08972501754760742,-0.0005321502685546875,0.1388620138168335
1782774474906410200,2.11041015625,-0.049297332763671875,-0.00045299530029296875,-0.06434214115142822
1782774474916420000,2.120420166015625,-0.038294315338134766,-0.024306297302246094,-0.2058042287826538
1782774474926399200,2.130399169921875,-0.03971147537231445,-0.14147186279296875,-0.30327725410461426
1782774474936409000,2.1404091796875,-0.01447439193725586,-0.2276315689086914,-0.35785484313964844
1782774474946418700,2.150418701171875,0.013882637023925781,-0.22535133361816406,-0.2364485263824463
1782774474956428500,2.160428466796875,0.06026792526245117,-0.19933605194091797,-0.12217462062835693
1782774474966407700,2.17040771484375,0.09229421615600586,-0.1044931411743164,0.04631507396697998
1782774474976417500,2.18041748046875,0.09386968612670898,-0.061148643493652344,0.11991226673126221
1782774474986427100,2.19042724609375,-0.033379554748535156,-0.1364269256591797,0.047089219093322754
1782774474996406500,2.200406494140625,-0.19457054138183594,-0.20586681365966797,-0.1119924783706665
1782774475006416400,2.21041650390625,-0.2934083938598633,-0.16318225860595703,-0.12293028831481934
1782774475016426000,2.220426025390625,-0.43828845024108887,-0.13940143585205078,-0.09297657012939453
1782774475026405400,2.2304052734375,-0.5116879940032959,-0.09147071838378906,0.013442158699035645
1782774475036415200,2.240415283203125,-0.5422608852386475,-0.09825706481933594,0.09952330589294434
1782774475046424800,2.2504248046875,-0.5211279392242432,-0.18587112426757812,0.02942335605621338
1782774475056404200,2.260404296875,-0.35124707221984863,-0.15521240234375,0.0816645622253418
1782774475066413800,2.270413818359375,-0.12733030319213867,-0.10855579376220703,0.17938292026519775
1782774475076423400,2.28042333984375,-0.06689023971557617,-0.09396839141845703,0.12389445304870605
1782774475086402800,2.29040283203125,0.004126548767089844,-0.04786872863769531,0.0747305154800415
1782774475096412700,2.30041259765625,0.1332550048828125,-0.06588268280029297,0.00570070743560791
1782774475106422500,2.310422607421875,0.4112057685852051,-0.08559036254882812,0.01232004165649414
1782774475116401700,2.320401611328125,0.44660472869873047,-0.15534687042236328,-0.0449981689453125
1782774475126411500,2.33041162109375,0.28269004821777344,-0.1805896759033203,-0.14231765270233154
1782774475136421400,2.34042138671875,0.09372520446777344,-0.2100381851196289,-0.198583722114563
1782774475146400500,2.350400390625,-0.0744624137878418,-0.18137645721435547,-0.14084839820861816
1782774475156410400,2.360410400390625,-0.2088027000427246,-0.17758846282958984,-0.06121420860290527
1782774475166420000,2.370419921875,-0.22197961807250977,-0.09908008575439453,0.09476542472839355
1782774475176399000,2.380399169921875,-0.3093128204345703,-0.05310344696044922,0.14368140697479248
1782774475186409000,2.390408935546875,-0.3414618968963623,-0.09255599975585938,0.06033289432525635
1782774475196418600,2.40041845703125,-0.25447607040405273,-0.1595630645751953,0.004628181457519531
1782774475206428400,2.410428466796875,-0.17065143585205078,-0.2874765396118164,-0.11962032318115234
1782774475216407800,2.42040771484375,0.04289579391479492,-0.3450746536254883,-0.2363988161087036
1782774475226417700,2.430417724609375,0.1105647087097168,-0.40003204345703125,-0.21853017807006836
1782774475236427300,2.44042724609375,-0.018750667572021484,-0.4077482223510742,-0.23520421981811523
1782774475246406400,2.450406494140625,0.10165739059448242,-0.3173799514770508,-0.19115495681762695
1782774475256416300,2.460416259765625,0.08605337142944336,-0.2510099411010742,-0.006773710250854492
1782774475266425900,2.47042578125,0.008024215698242188,-0.16404247283935547,0.13629496097564697
1782774475276405200,2.4804052734375,-0.020200729370117188,-0.10420608520507812,0.11346662044525146
1782774475286415000,2.4904150390625,-0.1054377555847168,-0.1501483917236328,0.020080089569091797
1782774475296424700,2.5004248046875,-0.1415419578552246,-0.11925601959228516,-0.01875591278076172
1782774475306404000,2.510404052734375,0.019362926483154297,-0.05412769317626953,-0.04264867305755615
1782774475316414000,2.5204140625,0.1291365623474121,-0.08905601501464844,0.055016517639160156
1782774475326423600,2.530423583984375,0.09374713897705078,-0.1410675048828125,0.04680168628692627
1782774475336402700,2.540402587890625,0.0459589958190918,-0.11750411987304688,-0.044648051261901855
1782774475346412500,2.55041259765625,-0.04541587829589844,-0.06135082244873047,-0.04499340057373047
1782774475356422400,2.56042236328125,-0.1905231475830078,-0.1567087173461914,-0.08579552173614502
1782774475366401500,2.570401611328125,-0.24229049682617188,-0.19704341888427734,-0.1334139108657837
1782774475376411400,2.580411376953125,-0.26863670349121094,-0.1602315902709961,-0.08582794666290283
1782774475386451700,2.59045166015625,-0.24307966232299805,-0.1156606674194336,-0.010733842849731445
1782774475396400400,2.600400390625,-0.09868621826171875,-0.034542083740234375,0.23307716846466064
1782774475406410200,2.61041015625,-0.0027189254760742188,0.05197334289550781,0.45807886123657227
1782774475416420000,2.620420166015625,-0.0598759651184082,0.04271411895751953,0.3524261713027954
1782774475426399200,2.630399169921875,-0.17386150360107422,-0.022485733032226562,0.08972275257110596
1782774475436409000,2.6404091796875,-0.22115087509155273,-0.1120615005493164,-0.11205220222473145
1782774475446418700,2.650418701171875,-0.15979337692260742,-0.20363235473632812,-0.28327322006225586
1782774475456428500,2.660428466796875,-0.025727272033691406,-0.2442340850830078,-0.38486504554748535
1782774475466348000,2.67034814453125,0.11772394180297852,-0.2198200225830078,-0.3181009292602539
1782774475476478500,2.680478515625,0.2375030517578125,-0.14011096954345703,-0.14091622829437256
1782774475486427100,2.69042724609375,0.2671380043029785,-0.07249832153320312,-0.051528215408325195
1782774475496347000,2.700346923828125,0.09171009063720703,-0.03261852264404297,0.0034798383712768555
1782774475506477300,2.710477294921875,-0.09134435653686523,0.06991863250732422,0.08914458751678467
1782774475516366300,2.720366455078125,-0.2326202392578125,0.16372394561767578,0.1479099988937378
1782774475526496800,2.730496826171875,-0.4006311893463135,0.1273784637451172,0.18712258338928223
1782774475536415200,2.740415283203125,-0.49637866020202637,0.10184288024902344,0.2661473751068115
1782774475546424800,2.7504248046875,-0.38570427894592285,0.09781742095947266,0.22918450832366943
1782774475556404000,2.760404052734375,-0.20714759826660156,0.06831836700439453,0.26342225074768066
1782774475566413800,2.770413818359375,-0.31012749671936035,-0.027451515197753906,0.2708233594894409
1782774475576423400,2.78042333984375,-0.37830519676208496,-0.1590118408203125,0.0627831220626831
1782774475586402800,2.79040283203125,-0.2953917980194092,-0.28032493591308594,-0.03793656826019287
1782774475596353000,2.80035302734375,-0.24657344818115234,-0.4603738784790039,-0.1562713384628296
1782774475606483500,2.8104833984375,-0.2016000747680664,-0.5033645629882812,-0.1448296308517456
1782774475616401700,2.820401611328125,-0.16854524612426758,-0.5031156539916992,-0.15110981464385986
1782774475626411500,2.83041162109375,-0.20605897903442383,-0.4219226837158203,-0.14849591255187988
1782774475636421400,2.84042138671875,-0.25623297691345215,-0.3605642318725586,-0.1464747190475464
1782774475646400500,2.850400390625,-0.3079860210418701,-0.33298587799072266,-0.1713956594467163
1782774475656410000,2.86041015625,-0.42186856269836426,-0.2648429870605469,-0.26759934425354004
1782774475666360300,2.8703603515625,-0.459885835647583,-0.22771930694580078,-0.41024816036224365
1782774475676582100,2.88058203125,-0.2042860984802246,-0.09818553924560547,-0.2628355026245117
1782774475686409000,2.890408935546875,0.11127853393554688,0.06719398498535156,-0.15488803386688232
1782774475696418800,2.900418701171875,0.3683629035949707,0.07616519927978516,-0.03290247917175293
1782774475706428400,2.910428466796875,0.5226798057556152,0.05967235565185547,-0.053757667541503906
1782774475716348200,2.92034814453125,0.5585417747497559,0.05043506622314453,-0.13417291641235352
1782774475726478600,2.930478515625,0.603945255279541,0.0887136459350586,-0.14522898197174072
1782774475736427300,2.94042724609375,0.5742654800415039,0.08797550201416016,-0.06996762752532959
1782774475746346800,2.9503466796875,0.4467024803161621,0.04064655303955078,-0.05291450023651123
1782774475756477200,2.960477294921875,0.21872949600219727,-0.08692264556884766,-0.09768736362457275
1782774475766425900,2.97042578125,-0.026519298553466797,-0.20109939575195312,-0.11782300472259521
1782774475776405200,2.9804052734375,-0.13993310928344727,-0.2555255889892578,-0.1712491512298584
1782774475786415000,2.9904150390625,-0.16004228591918945,-0.25698280334472656,0.015546798706054688
1782774475796424700,3.0004248046875,-0.1466817855834961,-0.2603569030761719,0.19481945037841797
1782774475806344400,3.010344482421875,-0.11456012725830078,-0.2943849563598633,0.2645697593688965
1782774475816475000,3.020474853515625,-0.13106393814086914,-0.27300071716308594,0.20499110221862793
1782774475826364000,3.030364013671875,-0.20122623443603516,-0.2850456237792969,0.023139595985412598
1782774475837359400,3.041359375,-0.09867572784423828,-0.3300342559814453,-0.19953429698944092
1782774475856422100,3.060422119140625,0.10950469970703125,-0.36661720275878906,-0.10691666603088379
1782774475866401500,3.070401611328125,0.08828210830688477,-0.3519439697265625,-0.1687312126159668
1782774475876411400,3.080411376953125,0.06453847885131836,-0.20645904541015625,-0.07360184192657471
1782774475886421200,3.090421142578125,-0.08562469482421875,-0.12899494171142578,0.08408784866333008
1782774475896400400,3.100400390625,-0.2619047164916992,-0.15071392059326172,0.04190969467163086
1782774475906410200,3.11041015625,-0.2959120273590088,-0.0987405776977539,0.06712841987609863
1782774475916420000,3.120420166015625,-0.3137047290802002,-0.08961677551269531,0.11632072925567627
1782774475926399200,3.130399169921875,-0.33945631980895996,-0.15908050537109375,0.08372926712036133
1782774475936409000,3.1404091796875,-0.3105752468109131,-0.13747215270996094,0.06617236137390137
1782774475946359000,3.150359130859375,-0.26077985763549805,-0.09882164001464844,0.0654306411743164
1782774475956489500,3.160489501953125,-0.23291778564453125,-0.13663291931152344,0.021746277809143066
1782774475966407700,3.17040771484375,-0.18391752243041992,-0.1863088607788086,-0.021418452262878418
1782774475976417500,3.18041748046875,-0.12026786804199219,-0.1737499237060547,0.016094207763671875
1782774475986367500,3.190367431640625,-0.18692970275878906,-0.15202903747558594,0.12648916244506836
1782774475996498200,3.200498291015625,-0.30327582359313965,-0.1529378890991211,0.12731385231018066
1782774476006416400,3.21041650390625,-0.4036600589752197,-0.12576770782470703,0.15639376640319824
1782774476016426000,3.220426025390625,-0.4368021488189697,-0.11066436767578125,0.10890114307403564
1782774476026405400,3.2304052734375,-0.442305326461792,-0.17425060272216797,-0.016475915908813477
1782774476036415200,3.240415283203125,-0.23981904983520508,-0.1792163848876953,-0.052745938301086426
1782774476046424800,3.2504248046875,-0.06400632858276367,-0.14942264556884766,-0.024275779724121094
1782774476056404200,3.260404296875,0.09110736846923828,-0.10929107666015625,-0.020044922828674316
1782774476066413800,3.270413818359375,0.12452983856201172,-0.0741109848022461,0.003183126449584961
1782774476076423400,3.28042333984375,0.11110401153564453,-0.1401052474975586,-0.092437744140625
1782774476086402800,3.29040283203125,0.1033792495727539,-0.19462871551513672,-0.2378678321838379
1782774476096412700,3.30041259765625,0.11577749252319336,-0.18967437744140625,-0.15144896507263184
1782774476106422500,3.310422607421875,0.05573558807373047,-0.13020801544189453,0.038720011711120605
1782774476116401700,3.320401611328125,-0.11599874496459961,-0.13174915313720703,0.2053689956665039
1782774476126351600,3.3303515625,-0.4089667797088623,-0.11791229248046875,0.27798354625701904
1782774476136482300,3.340482421875,-0.651923656463623,-0.23922061920166016,0.07354593276977539
1782774476146400500,3.350400390625,-0.7305433750152588,-0.2982454299926758,-0.10472619533538818
1782774476156410000,3.36041015625,-0.5481777191162109,-0.28113842010498047,-0.1784350872039795
1782774476166420000,3.370419921875,-0.29299473762512207,-0.32114696502685547,-0.2373051643371582
1782774476176399000,3.380399169921875,-0.030605792999267578,-0.35161399841308594,-0.12489163875579834
1782774476186349300,3.390349365234375,0.23006820678710938,-0.21795177459716797,0.07775890827178955
1782774476196479700,3.400479736328125,0.42511940002441406,-0.07249736785888672,0.3160536289215088
1782774476206428400,3.410428466796875,0.37915849685668945,-0.031228065490722656,0.32324934005737305
1782774476216407800,3.42040771484375,0.11422157287597656,-0.06612873077392578,0.15962648391723633
1782774476226417700,3.430417724609375,-0.14538002014160156,-0.11475944519042969,0.034308552742004395
1782774476236427300,3.44042724609375,-0.28235411643981934,-0.15433597564697266,-0.15162265300750732
1782774476246406400,3.450406494140625,-0.2937276363372803,-0.20057964324951172,-0.1910461187362671
1782774476256416300,3.460416259765625,-0.23291611671447754,-0.21697711944580078,-0.0663079023361206
1782774476266425900,3.47042578125,-0.06954336166381836,-0.22953033447265625,-0.02396535873413086
1782774476276405200,3.4804052734375,0.06277894973754883,-0.21945762634277344,-0.020001649856567383
1782774476286415000,3.4904150390625,0.09092998504638672,-0.22812461853027344,-0.125313401222229
1782774476296424700,3.5004248046875,0.13585948944091797,-0.24891281127929688,-0.2537344694137573
1782774476306404000,3.510404052734375,0.2933320999145508,-0.14279842376708984,-0.10209167003631592
1782774476316414000,3.5204140625,0.41238880157470703,0.028260231018066406,0.13676786422729492
1782774476326423600,3.530423583984375,0.3387331962585449,0.07689285278320312,0.17323732376098633
1782774476336402700,3.540402587890625,0.1604480743408203,0.13817977905273438,0.1059039831161499
1782774476346412500,3.55041259765625,0.029770374298095703,0.0903024673461914,-0.006821036338806152
1782774476356422100,3.560422119140625,-0.1392364501953125,-0.022630691528320312,-0.20819711685180664
1782774476366401500,3.570401611328125,-0.23268938064575195,-0.056511878967285156,-0.3759866952896118
1782774476376411400,3.580411376953125,-0.19815492630004883,-0.12359333038330078,-0.39856159687042236
1782774476386421000,3.5904208984375,-0.038692474365234375,-0.13930892944335938,-0.20904362201690674
1782774476396400400,3.600400390625,0.08537721633911133,-0.0363616943359375,0.013749957084655762
1782774476406410200,3.61041015625,0.20458030700683594,0.1410808563232422,0.16101527214050293
1782774476416420000,3.620420166015625,0.19638776779174805,0.161773681640625,0.18997597694396973
1782774476426399200,3.630399169921875,0.09928369522094727,0.1476573944091797,0.07950472831726074
1782774476436409000,3.6404091796875,-0.029834270477294922,0.30014801025390625,0.17893648147583008
1782774476446359000,3.650359130859375,0.0806889533996582,0.32538700103759766,0.13854777812957764
1782774476456489500,3.660489501953125,0.22449493408203125,0.3673086166381836,0.20935606956481934
1782774476466407700,3.67040771484375,0.23874330520629883,0.27020835876464844,0.09265339374542236
1782774476476417500,3.68041748046875,0.06431961059570312,0.16042041778564453,0.005138039588928223
1782774476486427100,3.69042724609375,-0.01845836639404297,0.011607170104980469,-0.4007836580276489
1782774476496406500,3.700406494140625,-0.07868528366088867,-0.21681785583496094,-0.5974766612052917
1782774476506416400,3.71041650390625,-0.10229921340942383,-0.3062009811401367,-0.28460395336151123
1782774476516426000,3.720426025390625,-0.16156721115112305,-0.4070701599121094,-0.09249734878540039
1782774476526345500,3.730345458984375,-0.3177297115325928,-0.4101829528808594,-0.03547871112823486
1782774476536476200,3.74047607421875,-0.4466683864593506,-0.3825206756591797,-0.06015336513519287
1782774476546424800,3.7504248046875,-0.48456406593322754,-0.47216129302978516,-0.09701311588287354
1782774476556404200,3.760404296875,-0.5063724517822266,-0.5112142562866211,-0.17929863929748535
1782774476566413800,3.770413818359375,-0.44535040855407715,-0.5689096450805664,-0.2834881544113159
1782774476576423400,3.78042333984375,-0.33741021156311035,-0.6068630218505859,-0.30232882499694824
1782774476586402800,3.79040283203125,-0.34232306480407715,-0.6467885971069336,-0.31799864768981934
1782774476596412700,3.80041259765625,-0.315537691116333,-0.6051998138427734,-0.3167673349380493
1782774476606362600,3.810362548828125,-0.19694042205810547,-0.38147735595703125,0.004344940185546875
1782774476616493300,3.820493408203125,-0.2117300033569336,-0.2556447982788086,0.2884194850921631
1782774476626411500,3.83041162109375,-0.20939207077026367,-0.21601390838623047,0.3082336187362671
1782774476636421000,3.840421142578125,-0.1474924087524414,-0.12126922607421875,0.32142674922943115
1782774476646400500,3.850400390625,-0.1792430877685547,-0.09835147857666016,0.25639116764068604
1782774476656410000,3.86041015625,-0.2540872097015381,-0.09474945068359375,0.108551025390625
1782774476666420000,3.870419921875,-0.1818680763244629,-0.1194915771484375,-0.0187075138092041
1782774476676399000,3.880399169921875,-0.04288959503173828,-0.10242080688476562,-0.07832050323486328
1782774476686349300,3.890349365234375,0.12218761444091797,-0.03620719909667969,0.04127681255340576
1782774476696479700,3.900479736328125,0.28822994232177734,-0.028962135314941406,0.2001802921295166
1782774476706428400,3.910428466796875,0.3156294822692871,-0.08871936798095703,0.1620035171508789
1782774476717316000,3.921316162109375,0.2052927017211914,-0.10601425170898438,0.13650798797607422
1782774476736427300,3.94042724609375,-0.0034193992614746094,-0.2752370834350586,-0.2140045166015625
1782774476746406400,3.950406494140625,-0.05919599533081055,-0.2903280258178711,-0.22383606433868408
1782774476756416300,3.960416259765625,-0.13857269287109375,-0.2646522521972656,-0.20859742164611816
1782774476766425900,3.97042578125,-0.12440061569213867,-0.21976566314697266,-0.12711691856384277
1782774476776405200,3.9804052734375,-0.09392690658569336,-0.14817523956298828,0.030040621757507324
1782774476786415000,3.9904150390625,-0.06685829162597656,-0.23165416717529297,-0.06229746341705322
1782774476796424700,4.0004248046875,-0.045703887939453125,-0.29807472229003906,-0.10314059257507324
1782774476806404000,4.010404052734375,-0.00241851806640625,-0.27048397064208984,-0.14289724826812744
1782774476816414000,4.0204140625,0.03912639617919922,-0.1968526840209961,-0.15252292156219482
1782774476826423600,4.030423583984375,0.06356430053710938,-0.228424072265625,-0.21949481964111328
1782774476836403000,4.04040283203125,0.09466934204101562,-0.22237777709960938,-0.19164979457855225
1782774476846412500,4.05041259765625,0.06676054000854492,-0.1639881134033203,-0.1593489646911621
1782774476856422400,4.06042236328125,0.06334733963012695,-0.04126167297363281,-0.08363163471221924
1782774476866401500,4.070401611328125,0.050772666931152344,0.1028604507446289,0.011030435562133789
1782774476876411400,4.080411376953125,0.09218645095825195,0.23450851440429688,0.20567142963409424
1782774476886361600,4.090361572265625,0.09909820556640625,0.29367828369140625,0.33571839332580566
1782774476896432400,4.100432373046875,0.003875732421875,0.21081161499023438,0.1759967803955078
1782774476906471200,4.11047119140625,-0.15075445175170898,0.07921123504638672,-0.14281010627746582
1782774476916420000,4.120420166015625,-0.2433459758758545,-0.045501708984375,-0.34441256523132324
1782774476926399200,4.130399169921875,-0.25009846687316895,-0.0024232864379882812,-0.27563798427581787
1782774476936409000,4.1404091796875,-0.20484352111816406,0.0077610015869140625,-0.0363239049911499
1782774476946418700,4.150418701171875,-0.12929201126098633,-0.029294967651367188,0.07454514503479004
1782774476956428500,4.160428466796875,-0.045053958892822266,-0.025297164916992188,0.18811893463134766
1782774476966407700,4.17040771484375,-0.055235862731933594,-0.14551353454589844,0.123268723487854
1782774476976358000,4.18035791015625,-0.12357234954833984,-0.26342105865478516,-0.02539217472076416
1782774476986428700,4.1904287109375,-0.1871623992919922,-0.43903064727783203,-0.2730339765548706
1782774476997499400,4.20149951171875,-0.2289726734161377,-0.5789222717285156,-0.47221481800079346
1782774477016426000,4.220426025390625,-0.08292150497436523,-0.6152162551879883,-0.45205986499786377
1782774477026405400,4.2304052734375,0.11853170394897461,-0.49402523040771484,-0.1686384677886963
1782774477036415200,4.240415283203125,0.21269607543945312,-0.32211971282958984,0.14922595024108887
1782774477046424800,4.2504248046875,0.1294727325439453,-0.11255645751953125,0.3907907009124756
1782774477056404200,4.260404296875,0.06529808044433594,0.02175426483154297,0.4479410648345947
1782774477066413800,4.270413818359375,-0.07880353927612305,-0.07462501525878906,0.2595217227935791
1782774477076423400,4.28042333984375,-0.1408843994140625,-0.14072608947753906,0.03141641616821289
1782774477086402800,4.29040283203125,-0.19887495040893555,-0.2189474105834961,-0.25131309032440186
1782774477096412700,4.30041259765625,-0.22485852241516113,-0.2894468307495117,-0.382291316986084
1782774477106422300,4.31042236328125,-0.11805009841918945,-0.3065319061279297,-0.2891511917114258
1782774477116401700,4.320401611328125,0.03294658660888672,-0.27946949005126953,-0.047960638999938965
1782774477126411500,4.33041162109375,0.018215656280517578,-0.2542133331298828,0.06901764869689941
1782774477136421000,4.340421142578125,-0.09250593185424805,-0.19393444061279297,0.10638904571533203
1782774477146400500,4.350400390625,-0.33113598823547363,-0.16159915924072266,0.16938471794128418
1782774477156410000,4.36041015625,-0.6109089851379395,-0.14301490783691406,0.20724523067474365
1782774477166420000,4.370419921875,-0.8031880855560303,-0.14281272888183594,0.0604555606842041
1782774477176399000,4.380399169921875,-0.7362892627716064,-0.10722732543945312,-0.1325514316558838
1782774477186409000,4.390408935546875,-0.5245068073272705,-0.14458370208740234,-0.17742228507995605
1782774477196418800,4.400418701171875,-0.1875016689300537,-0.17424774169921875,-0.1815112829208374
1782774477206428400,4.410428466796875,0.1746501922607422,-0.08149433135986328,-0.10188877582550049
1782774477216407800,4.42040771484375,0.4716603755950928,-0.020671844482421875,0.03112959861755371
1782774477226417700,4.430417724609375,0.5453014373779297,-0.05136394500732422,0.14604628086090088
1782774477236427300,4.44042724609375,0.4311032295227051,-0.043071746826171875,0.1079944372177124
1782774477246406400,4.450406494140625,0.15116453170776367,-0.0847930908203125,-0.022182226181030273
1782774477256416300,4.460416259765625,-0.1924121379852295,-0.12951278686523438,-0.20514070987701416
1782774477266425900,4.47042578125,-0.39736056327819824,-0.09375286102294922,-0.19439697265625
1782774477276345600,4.480345703125,-0.5523149967193604,-0.045584678649902344,-0.068123459815979
1782774477286476000,4.49047607421875,-0.5600318908691406,-0.09491157531738281,-0.02873706817626953
1782774477296424700,4.5004248046875,-0.43895769119262695,-0.07814311981201172,0.1605837345123291
1782774477306404000,4.510404052734375,-0.28576040267944336,-0.03322887420654297,0.2343047857284546
1782774477316414000,4.5204140625,-0.032982826232910156,0.00345611572265625,0.17012012004852295
1782774477326423600,4.530423583984375,0.17249274253845215,0.007197380065917969,0.10973966121673584
1782774477336403000,4.54040283203125,0.36266279220581055,-0.029554367065429688,0.03628253936767578
1782774477346412500,4.55041259765625,0.42411327362060547,-0.04756450653076172,-0.024243474006652832
1782774477356422400,4.56042236328125,0.43155789375305176,-0.08054161071777344,-0.09596943855285645
1782774477366401500,4.570401611328125,0.3639712333679199,-0.10226631164550781,-0.10058951377868652
1782774477376411400,4.580411376953125,0.19152331352233887,-0.07482433319091797,0.03257346153259277
1782774477386361600,4.590361572265625,-0.05390000343322754,-0.18290996551513672,0.013840317726135254
1782774477396432400,4.600432373046875,-0.31585049629211426,-0.2515993118286133,-0.13334524631500244
1782774477406471200,4.61047119140625,-0.4100525379180908,-0.20794296264648438,-0.13612163066864014
1782774477416420000,4.620420166015625,-0.4130687713623047,-0.13688182830810547,-0.08436381816864014
1782774477426399200,4.630399169921875,-0.3984370231628418,-0.019536972045898438,0.0792008638381958
1782774477436409000,4.6404091796875,-0.34592604637145996,0.054999351501464844,0.1727447509765625
1782774477446418700,4.650418701171875,-0.24661612510681152,0.1155405044555664,0.1831800937652588
1782774477456428500,4.660428466796875,-0.16123175621032715,0.018700599670410156,0.10643184185028076
1782774477466407700,4.67040771484375,-0.09278273582458496,-0.08941650390625,-0.09449911117553711
1782774477476417500,4.68041748046875,0.062262535095214844,-0.11792182922363281,-0.16442370414733887
1782774477486427100,4.69042724609375,0.18985629081726074,-0.21301841735839844,-0.26753854751586914
1782774477496347000,4.700346923828125,0.3131530284881592,-0.28186607360839844,-0.25888383388519287
1782774477506477300,4.710477294921875,0.35573816299438477,-0.2812995910644531,-0.0772249698638916
1782774477516426000,4.720426025390625,0.30646753311157227,-0.23561668395996094,0.04752051830291748
1782774477526405400,4.7304052734375,0.15459513664245605,-0.21255970001220703,0.010983824729919434
1782774477536415200,4.740415283203125,-0.061185598373413086,-0.20292377471923828,0.1041269302368164
1782774477546424800,4.7504248046875,-0.16521143913269043,-0.11733436584472656,0.2041226625442505
1782774477556404200,4.760404296875,-0.2877647876739502,-0.13989543914794922,0.03447890281677246
1782774477566413800,4.770413818359375,-0.2029709815979004,-0.2676858901977539,-0.12604784965515137
1782774477576423400,4.78042333984375,-0.1949772834777832,-0.3106842041015625,-0.04384410381317139
1782774477586343200,4.79034326171875,-0.16137290000915527,-0.35712432861328125,-0.2463301420211792
1782774477596473600,4.8004736328125,-0.12024784088134766,-0.4027700424194336,-0.33557450771331787
1782774477606422500,4.810422607421875,-0.04690051078796387,-0.32315635681152344,-0.13869452476501465
1782774477616401700,4.820401611328125,0.14124226570129395,-0.1831817626953125,0.043341994285583496
1782774477626351600,4.8303515625,0.21612930297851562,-0.0722513198852539,0.18915319442749023
1782774477637321000,4.841321044921875,0.06648921966552734,-0.012704849243164062,0.26677095890045166
1782774477656410000,4.86041015625,-0.14957833290100098,0.037933349609375,-0.01272130012512207
1782774477666360300,4.8703603515625,-0.13357257843017578,-0.024387359619140625,-0.09204769134521484
1782774477676490800,4.88049072265625,-0.06085205078125,-0.044800758361816406,-0.07446491718292236
1782774477686349300,4.890349365234375,-0.005919218063354492,0.00701141357421875,-0.049327731132507324
1782774477696479700,4.900479736328125,-0.08445429801940918,-0.06350517272949219,-0.03641653060913086
1782774477706368800,4.91036865234375,-0.2097761631011963,-0.20632266998291016,-0.049866676330566406
1782774477717399000,4.92139892578125,-0.32694458961486816,-0.30642223358154297,-0.1617581844329834
1782774477736427300,4.94042724609375,-0.4333338737487793,-0.35344791412353516,-0.13196539878845215
1782774477746406400,4.950406494140625,-0.44220757484436035,-0.37164306640625,0.005047440528869629
1782774477756416300,4.960416259765625,-0.39758992195129395,-0.3865060806274414,0.10209441184997559
1782774477766425900,4.97042578125,-0.08061361312866211,-0.2012786865234375,0.23697102069854736
1782774477776405200,4.9804052734375,0.2911245822906494,-0.1584148406982422,0.3495873212814331
1782774477786415000,4.9904150390625,0.29691481590270996,-0.24508285522460938,0.2114049196243286
1782774477796424700,5.0004248046875,0.16394996643066406,-0.2805347442626953,-0.07522141933441162
1782774477806404000,5.010404052734375,-0.042368173599243164,-0.28415584564208984,-0.26677215099334717
1782774477816414000,5.0204140625,-0.2513086795806885,-0.26712512969970703,-0.25514233112335205
1782774477826423600,5.030423583984375,-0.29268574714660645,-0.2498006820678711,-0.25493133068084717
1782774477836402700,5.040402587890625,-0.25954437255859375,-0.25046730041503906,-0.19888818264007568
1782774477846412500,5.05041259765625,-0.13162922859191895,-0.19212913513183594,-0.10257720947265625
1782774477856422400,5.06042236328125,0.15972542762756348,0.026083946228027344,0.10839676856994629
1782774477866401500,5.070401611328125,0.36506056785583496,0.09935665130615234,0.36402130126953125
1782774477876411400,5.080411376953125,0.3151562213897705,-0.017037391662597656,0.2301771640777588
1782774477886361600,5.090361572265625,0.2298574447631836,-0.08965873718261719,-0.06116783618927002
1782774477896492000,5.100491943359375,0.06302189826965332,-0.20438385009765625,-0.35458600521087646
1782774477906410200,5.11041015625,-0.08532428741455078,-0.29862213134765625,-0.5646232962608337
1782774477916420000,5.120420166015625,-0.06316804885864258,-0.2398662567138672,-0.4585397243499756
1782774477926399200,5.130399169921875,-0.021882057189941406,-0.1591053009033203,-0.2213292121887207
1782774477936409000,5.1404091796875,-0.05711483955383301,-0.14258766174316406,-0.07089102268218994
1782774477946418700,5.150418701171875,-0.046088218688964844,-0.020834922790527344,0.07325196266174316
1782774477956428500,5.160428466796875,-0.09145641326904297,0.12932968139648438,0.23794865608215332
1782774477966407700,5.17040771484375,-0.20530247688293457,0.06358623504638672,0.14175617694854736
1782774477976417500,5.18041748046875,-0.3371901512145996,-0.036482810974121094,0.04052317142486572
1782774477986427100,5.19042724609375,-0.4208369255065918,-0.1202096939086914,-0.11403965950012207
1782774477996406500,5.200406494140625,-0.328092098236084,-0.17500019073486328,-0.23415684700012207
1782774478006416400,5.21041650390625,-0.34856224060058594,-0.2798290252685547,-0.2365267276763916
1782774478016426000,5.220426025390625,-0.25545239448547363,-0.29781436920166016,-0.24173378944396973
1782774478026345500,5.230345458984375,-0.02843499183654785,-0.17803955078125,-0.09246993064880371
1782774478037308700,5.24130859375,0.15996313095092773,0.019838333129882812,0.24628829956054688
1782774478056404200,5.260404296875,0.08963298797607422,0.05682086944580078,0.24895501136779785
1782774478066413800,5.270413818359375,-0.1386098861694336,-0.009548187255859375,0.07165539264678955
1782774478076423400,5.28042333984375,-0.303358793258667,-0.06018638610839844,-0.20055711269378662
1782774478086402800,5.29040283203125,-0.32759785652160645,-0.1611499786376953,-0.3840469717979431
1782774478096412700,5.30041259765625,-0.3085660934448242,-0.2060232162475586,-0.345220685005188
1782774478106422500,5.310422607421875,-0.20479393005371094,-0.20928478240966797,-0.23163533210754395
1782774478116401700,5.320401611328125,-0.04288220405578613,-0.16355133056640625,-0.015189051628112793
1782774478126411500,5.33041162109375,0.11984610557556152,-0.17668914794921875,0.15855884552001953
1782774478136421000,5.340421142578125,0.12978267669677734,-0.19962310791015625,0.24392271041870117
1782774478146400500,5.350400390625,-0.0017397403717041016,-0.223663330078125,0.15075314044952393
1782774478156410000,5.36041015625,-0.1785595417022705,-0.3040580749511719,-0.0586475133895874
1782774478166420000,5.370419921875,-0.22009634971618652,-0.3131523132324219,-0.10283279418945312
1782774478176399000,5.380399169921875,-0.1833934783935547,-0.32416343688964844,-0.14557838439941406
1782774478186409000,5.390408935546875,-0.08460259437561035,-0.27895545959472656,-0.07847368717193604
1782774478196418600,5.40041845703125,-0.012451410293579102,-0.22534465789794922,-0.01650261878967285
1782774478206428400,5.410428466796875,0.03466153144836426,-0.22632408142089844,-0.023954391479492188
1782774478216407800,5.42040771484375,0.14416003227233887,-0.2224712371826172,0.032540082931518555
1782774478226417700,5.430417724609375,0.20412969589233398,-0.16130542755126953,0.09742605686187744
1782774478236427300,5.44042724609375,0.0983419418334961,-0.20629024505615234,0.03547549247741699
1782774478246406400,5.450406494140625,0.015801429748535156,-0.2354269027709961,-0.16658329963684082
1782774478256416300,5.460416259765625,0.0010061264038085938,-0.20268726348876953,-0.15273058414459229
1782774478266425900,5.47042578125,0.005143165588378906,-0.104949951171875,0.04376780986785889
1782774478276405200,5.4804052734375,0.05004072189331055,-0.033351898193359375,0.2028491497039795
1782774478286415000,5.4904150390625,-0.0426638126373291,-0.0699148178100586,0.219854474067688
1782774478296424700,5.5004248046875,-0.19326400756835938,-0.14563369750976562,0.17222845554351807
1782774478306404000,5.510404052734375,-0.3855869770050049,-0.10950279235839844,0.16828763484954834
1782774478316354300,5.520354248046875,-0.48832249641418457,-0.0545806884765625,0.15913021564483643
1782774478326484700,5.530484619140625,-0.46128010749816895,-0.0763406753540039,0.1467149257659912
1782774478336402700,5.540402587890625,-0.3462488651275635,-0.0880889892578125,0.2457059621810913
1782774478346412500,5.55041259765625,-0.22354936599731445,-0.10616493225097656,0.21046149730682373
1782774478356422400,5.56042236328125,-0.09898996353149414,-0.13772869110107422,0.038881778717041016
1782774478366401500,5.570401611328125,-0.019845247268676758,-0.10647010803222656,-0.02941727638244629
1782774478376411400,5.580411376953125,-0.0012199878692626953,-0.13012981414794922,-0.051325321197509766
1782774478386421200,5.590421142578125,-0.10082244873046875,-0.18072032928466797,-0.09026134014129639
1782774478396400400,5.600400390625,-0.1575794219970703,-0.1627025604248047,-0.08193409442901611
1782774478406410200,5.61041015625,-0.23737859725952148,-0.16892147064208984,-0.1292496919631958
1782774478416420000,5.620420166015625,-0.21947383880615234,-0.23010826110839844,-0.22141289710998535
1782774478426399200,5.630399169921875,-0.07219386100769043,-0.17548465728759766,-0.12856197357177734
1782774478436409000,5.6404091796875,-0.02504897117614746,-0.1941394805908203,-0.11300015449523926
1782774478446418700,5.650418701171875,-0.10185670852661133,-0.22741127014160156,-0.21939682960510254
1782774478456428500,5.660428466796875,-0.07814192771911621,-0.1276569366455078,-0.1819058656692505
1782774478466407700,5.67040771484375,-0.005582571029663086,-0.05452728271484375,-0.09727966785430908
1782774478476417500,5.68041748046875,0.030205488204956055,-0.0121612548828125,-0.06290817260742188
1782774478486427100,5.69042724609375,0.10529875755310059,-0.0627756118774414,-0.14215540885925293
1782774478496406500,5.700406494140625,0.2928316593170166,-0.1365823745727539,-0.22418642044067383
1782774478506416400,5.71041650390625,0.17199468612670898,-0.1715679168701172,-0.2946949005126953
1782774478516426000,5.720426025390625,0.16793227195739746,-0.12266159057617188,-0.23978114128112793
1782774478526405400,5.7304052734375,0.17651081085205078,-0.02105998992919922,-0.06955671310424805
1782774478536415200,5.740415283203125,0.127777099609375,-0.003916740417480469,0.1338139772415161
1782774478546424800,5.7504248046875,0.014219999313354492,-0.01861858367919922,0.18488454818725586
1782774478556404200,5.760404296875,-0.07728195190429688,-0.06247520446777344,0.07927978038787842
1782774478566413800,5.770413818359375,-0.08562660217285156,-0.10158920288085938,0.038010358810424805
1782774478576423400,5.78042333984375,-0.051389455795288086,-0.05683422088623047,-0.002314448356628418
1782774478586402800,5.79040283203125,-0.021952390670776367,-0.11262798309326172,-0.04263746738433838
1782774478596412700,5.80041259765625,-0.016270875930786133,-0.16137218475341797,-0.08019459247589111
1782774478606422500,5.810422607421875,0.04936814308166504,-0.16943836212158203,-0.08676350116729736
1782774478616401700,5.820401611328125,-0.021134138107299805,-0.1584157943725586,-0.11775898933410645
1782774478626411500,5.83041162109375,-0.05967593193054199,-0.14050769805908203,0.04478776454925537
1782774478636421400,5.84042138671875,-0.08329176902770996,-0.1297607421875,0.2535066604614258
1782774478646400500,5.850400390625,-0.28312087059020996,-0.17905330657958984,0.24288904666900635
1782774478656410000,5.86041015625,-0.4139838218688965,-0.1695079803466797,0.17134547233581543
1782774478666420000,5.870419921875,-0.4217092990875244,-0.074066162109375,0.24254357814788818
1782774478676399000,5.880399169921875,-0.36336684226989746,-0.13619709014892578,0.1674809455871582
1782774478686409000,5.890408935546875,-0.32856059074401855,-0.21936893463134766,-0.03222775459289551
1782774478696418600,5.90041845703125,-0.27500367164611816,-0.2992582321166992,-0.16295325756072998
1782774478706428400,5.910428466796875,-0.23111414909362793,-0.4021472930908203,-0.29295194149017334
1782774478716407800,5.92040771484375,-0.11181998252868652,-0.4565887451171875,-0.36104023456573486
1782774478726417700,5.930417724609375,0.06227421760559082,-0.30468082427978516,-0.14883434772491455
1782774478736427300,5.94042724609375,0.23261070251464844,-0.12399768829345703,0.11285078525543213
1782774478746406400,5.950406494140625,0.2708709239959717,-0.05168724060058594,0.34200143814086914
1782774478756416300,5.960416259765625,0.20543122291564941,-0.09496307373046875,0.30758821964263916
1782774478766366200,5.9703662109375,0.08616352081298828,-0.18950748443603516,0.03684401512145996
1782774478776496600,5.98049658203125,-0.09458184242248535,-0.3280935287475586,-0.33512699604034424
1782774478786415000,5.9904150390625,-0.14458441734313965,-0.4427375793457031,-0.5943050384521484
1782774478796424700,6.0004248046875,-0.13956451416015625,-0.47971534729003906,-0.5615010857582092
1782774478806404000,6.010404052734375,-0.026630401611328125,-0.3333253860473633,-0.32593679428100586
1782774478816414000,6.0204140625,0.11175251007080078,-0.1308279037475586,0.07037103176116943
1782774478826423600,6.030423583984375,0.21149802207946777,0.017351150512695312,0.38359248638153076
1782774478836402700,6.040402587890625,0.20387053489685059,0.11049747467041016,0.5447477102279663
1782774478846412500,6.05041259765625,0.06098031997680664,0.1406402587890625,0.3963080644607544
1782774478856422400,6.06042236328125,-0.13283729553222656,0.03530311584472656,0.08947932720184326
1782774478866401500,6.070401611328125,-0.22590231895446777,-0.106689453125,-0.19859445095062256
1782774478876351700,6.080351806640625,-0.11426115036010742,-0.24367713928222656,-0.3434741497039795
1782774478886482200,6.090482177734375,-0.023730039596557617,-0.29595279693603516,-0.27102410793304443
1782774478896400400,6.100400390625,-0.020563364028930664,-0.33321094512939453,-0.2881675958633423
1782774478906410200,6.11041015625,0.021550655364990234,-0.24606990814208984,-0.18435001373291016
1782774478916420000,6.120420166015625,-0.010674476623535156,-0.14270305633544922,0.09611308574676514
1782774478926399200,6.130399169921875,-0.18347406387329102,-0.12397098541259766,0.25848817825317383
1782774478936409000,6.1404091796875,-0.3699359893798828,-0.04418754577636719,0.32193267345428467
1782774478946359000,6.150359130859375,-0.3738441467285156,-0.012722015380859375,0.22381269931793213
1782774478957232000,6.161232177734375,-0.3238866329193115,-0.03586769104003906,0.2218531370162964
1782774478976417500,6.18041748046875,-0.36292433738708496,-0.02372455596923828,0.14423978328704834
1782774478986427100,6.19042724609375,-0.3986029624938965,-0.11187267303466797,-0.014856219291687012
1782774478996406500,6.200406494140625,-0.4219512939453125,-0.20034217834472656,-0.1560361385345459
1782774479006356700,6.210356689453125,-0.36272740364074707,-0.2380542755126953,-0.1988133192062378
1782774479016427500,6.220427490234375,-0.23431611061096191,-0.21703815460205078,-0.12768709659576416
1782774479026497000,6.2304970703125,-0.08034658432006836,-0.18010330200195312,-0.019736647605895996
1782774479036415200,6.240415283203125,0.05369114875793457,-0.12343788146972656,0.12487459182739258
1782774479046424800,6.2504248046875,0.029468297958374023,-0.10330390930175781,0.3226586580276489
1782774479056404200,6.260404296875,-0.09929966926574707,-0.11548519134521484,0.2944241762161255
1782774479066413800,6.270413818359375,-0.21422743797302246,-0.17896080017089844,0.10731101036071777
1782774479076423400,6.28042333984375,-0.2669944763183594,-0.20204830169677734,-0.03436553478240967
1782774479086343200,6.29034326171875,-0.2774531841278076,-0.18911170959472656,-0.12671661376953125
1782774479096473600,6.3004736328125,-0.22414898872375488,-0.2141590118408203,-0.23072075843811035
1782774479106422500,6.310422607421875,-0.1809535026550293,-0.21253681182861328,-0.16067063808441162
1782774479116401700,6.320401611328125,-0.016976118087768555,-0.14564132690429688,-0.09591233730316162
1782774479126411500,6.33041162109375,0.14487314224243164,-0.1089935302734375,-0.09089887142181396
1782774479136421000,6.340421142578125,0.28127503395080566,-0.11498546600341797,-0.11828100681304932
1782774479146400500,6.350400390625,0.29789066314697266,-0.11151409149169922,-0.19738900661468506
1782774479156410000,6.36041015625,0.23249459266662598,-0.08493423461914062,-0.23762166500091553
1782774479166420000,6.370419921875,0.048700571060180664,-0.016587257385253906,-0.11172652244567871
1782774479176399000,6.380399169921875,-0.11672186851501465,0.04799652099609375,-0.009331822395324707
1782774479186409000,6.390408935546875,-0.20356011390686035,0.061562538146972656,-0.01037585735321045
1782774479196418600,6.40041845703125,-0.2240431308746338,0.02025604248046875,-0.020349860191345215
1782774479206428400,6.410428466796875,-0.1085515022277832,-0.015352249145507812,-0.13373661041259766
1782774479216407800,6.42040771484375,0.07237100601196289,-0.15036487579345703,-0.33004653453826904
1782774479226417700,6.430417724609375,0.28746914863586426,-0.16200542449951172,-0.36543798446655273
1782774479236427300,6.44042724609375,0.35912418365478516,-0.07945442199707031,-0.2565493583679199
1782774479246406400,6.450406494140625,0.38794994354248047,-0.06630229949951172,-0.17250657081604004
1782774479256416300,6.460416259765625,0.28302597999572754,-0.04921913146972656,-0.06868994235992432
1782774479266425900,6.47042578125,0.1641983985900879,-0.09782886505126953,-0.06394696235656738
1782774479276405200,6.4804052734375,0.02592754364013672,-0.08034992218017578,-0.08025991916656494
1782774479286415000,6.4904150390625,-0.05471348762512207,-0.1229696273803711,-0.1791975498199463
1782774479296424700,6.5004248046875,-0.07699155807495117,-0.19867706298828125,-0.2385629415512085
1782774479306404000,6.510404052734375,0.011497020721435547,-0.1731576919555664,-0.1825953722000122
1782774479316414000,6.5204140625,0.13952374458312988,-0.17328166961669922,-0.048980712890625
1782774479326423600,6.530423583984375,0.1337432861328125,-0.1827993392944336,0.04675137996673584
1782774479336403000,6.54040283203125,0.17670392990112305,-0.1591033935546875,0.05596268177032471
1782774479346412500,6.55041259765625,0.15111112594604492,-0.1789379119873047,-0.03252065181732178
1782774479356422400,6.56042236328125,0.02195596694946289,-0.23308753967285156,-0.0679471492767334
1782774479366401500,6.570401611328125,-0.13064312934875488,-0.27645111083984375,-0.17526745796203613
1782774479376411400,6.580411376953125,-0.06523847579956055,-0.23608112335205078,-0.15799641609191895
1782774479386421000,6.5904208984375,-0.15828919410705566,-0.24557876586914062,-0.07042407989501953
1782774479396400400,6.600400390625,-0.23660016059875488,-0.20240306854248047,0.028105616569519043
1782774479406410200,6.61041015625,-0.31717753410339355,-0.19037914276123047,0.09054803848266602
1782774479416420000,6.620420166015625,-0.3383626937866211,-0.15181732177734375,0.08592641353607178
1782774479426399200,6.630399169921875,-0.4722936153411865,-0.15141677856445312,0.10008394718170166
1782774479436409000,6.6404091796875,-0.5347766876220703,-0.15327835083007812,0.011466622352600098
1782774479446419000,6.6504189453125,-0.35756373405456543,-0.09924125671386719,0.035648345947265625
1782774479456428500,6.660428466796875,-0.09557390213012695,-0.11542606353759766,0.0786430835723877
1782774479466407700,6.67040771484375,0.0537257194519043,-0.16406536102294922,0.15744328498840332
1782774479476417500,6.68041748046875,0.09568309783935547,-0.18642425537109375,0.209203839302063
1782774479486427100,6.69042724609375,0.0704195499420166,-0.209716796875,0.1438220739364624
1782774479496406500,6.700406494140625,-0.07219123840332031,-0.2819957733154297,0.06738293170928955
1782774479506416400,6.71041650390625,-0.14455080032348633,-0.37879085540771484,-0.11277389526367188
1782774479516426000,6.720426025390625,-0.18606066703796387,-0.4013843536376953,-0.23698556423187256
1782774479526405400,6.7304052734375,-0.2590768337249756,-0.4069232940673828,-0.2112877368927002
1782774479536415200,6.740415283203125,-0.26026248931884766,-0.3522157669067383,-0.0422208309173584
1782774479546424800,6.7504248046875,-0.26774168014526367,-0.12974834442138672,0.3028087615966797
1782774479556404000,6.760404052734375,-0.21373414993286133,0.0760183334350586,0.6429609060287476
1782774479566413800,6.770413818359375,-0.2401447296142578,0.05200481414794922,0.5586978197097778
1782774479576423400,6.78042333984375,-0.15779757499694824,-0.0677938461303711,0.2198326587677002
1782774479586402800,6.79040283203125,-0.1173858642578125,-0.18710041046142578,-0.15078139305114746
1782774479596412700,6.80041259765625,0.03168630599975586,-0.2911357879638672,-0.3876296281814575
1782774479606422300,6.81042236328125,0.13543915748596191,-0.2937202453613281,-0.34424805641174316
1782774479616401700,6.820401611328125,0.2822558879852295,-0.23851394653320312,-0.2191324234008789
1782774479626351600,6.8303515625,0.31472206115722656,-0.21193695068359375,-0.1321197748184204
1782774479636422400,6.84042236328125,0.2695431709289551,-0.22890758514404297,-0.10566234588623047
1782774479646492200,6.8504921875,0.190643310546875,-0.18680858612060547,-0.010534882545471191
1782774479656410000,6.86041015625,0.017052888870239258,-0.06690120697021484,0.17648816108703613
1782774479666420000,6.870419921875,-0.1644458770751953,0.06345939636230469,0.28349947929382324
1782774479676399000,6.880399169921875,-0.41682887077331543,0.027352333068847656,0.3563811779022217
1782774479686409000,6.890408935546875,-0.6580531597137451,-0.10289764404296875,0.11651384830474854
1782774479696418800,6.900418701171875,-0.6446034908294678,-0.21874618530273438,-0.24400544166564941
1782774479706428400,6.910428466796875,-0.4312725067138672,-0.31841564178466797,-0.4542796015739441
1782774479716407800,6.92040771484375,-0.1751563549041748,-0.29795265197753906,-0.44034343957901
1782774479726417700,6.930417724609375,0.1690049171447754,-0.22954559326171875,-0.2390505075454712
1782774479736427300,6.94042724609375,0.35144567489624023,-0.1455707550048828,0.07531070709228516
1782774479746406400,6.950406494140625,0.29042553901672363,-0.10552978515625,0.14736974239349365
1782774479756416300,6.960416259765625,0.1531062126159668,-0.11066913604736328,0.0589756965637207
1782774479766425900,6.97042578125,0.07963132858276367,-0.06494998931884766,0.06746768951416016
1782774479776405200,6.9804052734375,-0.05087852478027344,-0.037344932556152344,0.03172600269317627
1782774479786415000,6.9904150390625,-0.1587047576904297,-0.02708148956298828,-0.0032476186752319336
1782774479796424700,7.0004248046875,-0.1682724952697754,-0.004974365234375,-0.040038108825683594
1782774479806404000,7.010404052734375,-0.23589634895324707,-0.023438453674316406,-0.07367956638336182
1782774479816414000,7.0204140625,-0.2424774169921875,-0.02955913543701172,-0.1137012243270874
1782774479826423600,7.030423583984375,-0.17225360870361328,-0.06587600708007812,-0.04854178428649902
1782774479836403000,7.04040283203125,-0.10913252830505371,-0.13475322723388672,-0.02894878387451172
1782774479846412500,7.05041259765625,-0.05413699150085449,-0.176971435546875,-0.07836174964904785
1782774479856422400,7.06042236328125,-0.02564239501953125,-0.21187305450439453,-0.0396343469619751
1782774479866401800,7.07040185546875,0.0611271858215332,-0.20150279998779297,0.06061255931854248
1782774479876411400,7.080411376953125,0.058270931243896484,-0.17007923126220703,0.055123209953308105
1782774479886421200,7.090421142578125,-0.02207660675048828,-0.22556304931640625,-0.021588563919067383
1782774479896400400,7.100400390625,-0.11348891258239746,-0.15226268768310547,-0.008878469467163086
1782774479906410200,7.11041015625,-0.20462489128112793,-0.16047382354736328,-0.03449523448944092
1782774479916420000,7.120420166015625,-0.3198251724243164,-0.19739341735839844,-0.04555702209472656
1782774479926399200,7.130399169921875,-0.34494709968566895,-0.2196187973022461,0.008278489112854004
1782774479936409000,7.1404091796875,-0.25478148460388184,-0.24341392517089844,-0.00249326229095459
1782774479946419000,7.1504189453125,-0.19282269477844238,-0.28572559356689453,-0.09859311580657959
1782774479956428500,7.160428466796875,-0.14892840385437012,-0.3348579406738281,-0.2797513008117676
1782774479966407700,7.17040771484375,-0.07733917236328125,-0.3573436737060547,-0.2949463129043579
1782774479976417500,7.18041748046875,-0.08030438423156738,-0.31010913848876953,-0.26561689376831055
1782774479986427100,7.19042724609375,-0.14647984504699707,-0.17711448669433594,-0.20376956462860107
1782774479996406500,7.200406494140625,-0.272799015045166,-0.07824230194091797,-0.007175564765930176
1782774480006416400,7.21041650390625,-0.28061485290527344,0.05624198913574219,0.12114214897155762
1782774480016426000,7.220426025390625,-0.04089164733886719,0.08358383178710938,0.1608983278274536
1782774480026405400,7.2304052734375,0.10445976257324219,0.12648487091064453,0.16611504554748535
1782774480036415200,7.240415283203125,0.22526335716247559,0.08881759643554688,-0.039055705070495605
1782774480046424800,7.2504248046875,0.2565348148345947,0.036782264709472656,-0.24872839450836182
1782774480056404200,7.260404296875,0.22890639305114746,0.0059051513671875,-0.04895222187042236
1782774480066413800,7.270413818359375,0.132171630859375,-0.1183156967163086,-0.1925727128982544
1782774480076423400,7.28042333984375,0.07948660850524902,-0.09002971649169922,-0.1496208906173706
1782774480086402800,7.29040283203125,-0.06460285186767578,-0.05982685089111328,0.03473258018493652
1782774480096412700,7.30041259765625,-0.29326462745666504,-0.12109947204589844,0.033538222312927246
1782774480106422500,7.310422607421875,-0.3055553436279297,-0.20672225952148438,-0.012918829917907715
1782774480116401700,7.320401611328125,-0.24523019790649414,-0.2079153060913086,0.18275892734527588
1782774480126411500,7.33041162109375,-0.2534921169281006,-0.1794881820678711,0.2954500913619995
1782774480136421400,7.34042138671875,-0.12171673774719238,-0.24397850036621094,0.09254372119903564
1782774480146400500,7.350400390625,-0.04169130325317383,-0.32010936737060547,-0.04607653617858887
1782774480156410000,7.36041015625,-0.03926873207092285,-0.40313053131103516,-0.13825440406799316
1782774480166420000,7.370419921875,0.025235414505004883,-0.4047355651855469,-0.1652991771697998
1782774480176399000,7.380399169921875,0.06378626823425293,-0.3441162109375,-0.19317293167114258
1782774480186409000,7.390408935546875,0.14932751655578613,-0.33658313751220703,-0.14352190494537354
1782774480196418600,7.40041845703125,0.23424029350280762,-0.15236473083496094,0.1030271053314209
1782774480206428400,7.410428466796875,0.2783091068267822,-0.10069847106933594,0.06405603885650635
1782774480216407800,7.42040771484375,0.42244863510131836,-0.2883110046386719,0.037518978118896484
1782774480226417700,7.430417724609375,0.17903947830200195,-0.3971548080444336,-0.24689197540283203
1782774480236427300,7.44042724609375,-0.15365123748779297,-0.11582374572753906,-0.3610653281211853
1782774480246406400,7.450406494140625,-0.28087401390075684,-0.29218578338623047,-0.1308145523071289
1782774480256416300,7.460416259765625,-0.6533565521240234,-0.2527456283569336,0.2803748846054077
1782774480266425900,7.47042578125,-0.6486649513244629,-0.26710987091064453,-0.07503283023834229
1782774480276405200,7.4804052734375,-0.6738438606262207,-0.23540782928466797,-0.18237555027008057
1782774480286415000,7.4904150390625,-0.6519014835357666,-0.24371719360351562,-0.2257460355758667
1782774480296424700,7.5004248046875,-0.491196870803833,-0.038102149963378906,0.0025311708450317383
1782774480306404000,7.510404052734375,-0.22211217880249023,0.08446598052978516,0.3741244077682495
1782774480316414000,7.5204140625,0.026471853256225586,0.08520984649658203,0.4459918737411499
1782774480326423600,7.530423583984375,0.12610125541687012,0.08203411102294922,0.31475329399108887
1782774480336403000,7.54040283203125,0.21332526206970215,0.014249801635742188,0.0939410924911499
1782774480346412500,7.55041259765625,0.23533153533935547,-0.1118307113647461,-0.0567021369934082
1782774480356422400,7.56042236328125,0.3162074089050293,-0.24428176879882812,-0.15238428115844727
