time,seconds_elapsed,z,y,x
1782774444996339000,0.1853388671875,0.28449368476867676,-0.3306303024291992,-0.26310861110687256
1782774445006406700,0.19540673828125,0.4350440502166748,-0.16852474212646484,0.11969625949859619
1782774445016416300,0.205416259765625,0.36215639114379883,0.01900768280029297,0.5644640922546387
1782774445026395600,0.215395751953125,0.15793132781982422,0.12566375732421875,0.7387676239013672
1782774445036405500,0.225405517578125,-0.024694442749023438,0.05128765106201172,0.3835747241973877
1782774445046415000,0.2354150390625,-0.164093017578125,-0.036403656005859375,0.011841058731079102
1782774445056394500,0.24539453125,-0.3048076629638672,-0.11800289154052734,-0.281929612159729
1782774445066404400,0.255404296875,-0.3217301368713379,-0.21947669982910156,-0.4823417663574219
1782774445076414000,0.2654140625,-0.254117488861084,-0.27231884002685547,-0.4485163688659668
1782774445086393000,0.27539306640625,-0.15012097358703613,-0.25017547607421875,-0.27840566635131836
1782774445096403000,0.28540283203125,-0.0076122283935546875,-0.15695858001708984,0.09073960781097412
1782774445106412500,0.29541259765625,0.0664663314819336,-0.0788278579711914,0.2505991458892822
1782774445116392000,0.305391845703125,0.024301528930664062,-0.10868644714355469,0.23500072956085205
1782774445126401800,0.31540185546875,0.014031410217285156,-0.05787086486816406,0.063606858253479
1782774445136411400,0.325411376953125,-0.021719694137573242,-0.09455394744873047,-0.06696224212646484
1782774445146390800,0.335390869140625,-0.12096619606018066,-0.19168949127197266,-0.22536325454711914
1782774445156400600,0.345400634765625,-0.2241525650024414,-0.20538616180419922,-0.27097272872924805
1782774445166410500,0.355410400390625,-0.17651891708374023,-0.27872562408447266,-0.3726692199707031
1782774445176389600,0.3653896484375,-0.15114593505859375,-0.36844444274902344,-0.3815723657608032
1782774445186399200,0.375399169921875,-0.12220239639282227,-0.3498115539550781,-0.3051379919052124
1782774445196409000,0.3854091796875,-0.038031578063964844,-0.2751026153564453,-0.22492635250091553
1782774445206418700,0.395418701171875,0.0037162303924560547,-0.17787742614746094,-0.05542325973510742
1782774445216398000,0.405398193359375,-0.06429123878479004,-0.13068771362304688,0.0906379222869873
1782774445226408000,0.415407958984375,-0.17398357391357422,-0.13660049438476562,0.10940802097320557
1782774445236417500,0.42541748046875,-0.13711190223693848,-0.1837472915649414,-0.05925643444061279
1782774445246397000,0.43539697265625,0.04192519187927246,-0.24029064178466797,-0.23090875148773193
1782774445256406800,0.44540673828125,0.1464676856994629,-0.27930164337158203,-0.2914133071899414
1782774445266416400,0.45541650390625,0.2038865089416504,-0.2219257354736328,-0.1844174861907959
1782774445276395500,0.4653955078125,0.18109774589538574,-0.12887954711914062,-0.102303147315979
1782774445286405400,0.4754052734375,0.19093632698059082,-0.09393024444580078,-0.13226938247680664
1782774445296415000,0.4854150390625,0.21799540519714355,-0.11920833587646484,-0.2115001678466797
1782774445306394400,0.495394287109375,0.2776601314544678,-0.1062631607055664,-0.3221311569213867
1782774445316404200,0.505404296875,0.3481025695800781,-0.10754108428955078,-0.2540700435638428
1782774445326413800,0.515413818359375,0.34647393226623535,-0.1496410369873047,-0.24955320358276367
1782774445336393200,0.525393310546875,0.28406548500061035,-0.13262081146240234,-0.2583765983581543
1782774445346403000,0.535403076171875,0.12027549743652344,-0.06929969787597656,-0.2881413698196411
1782774445356412700,0.54541259765625,-0.08014678955078125,0.008463859558105469,-0.2583792209625244
1782774445366392000,0.55539208984375,-0.2863500118255615,0.1610708236694336,-0.08274829387664795
1782774445376402000,0.56540185546875,-0.43681764602661133,0.2794027328491211,0.048012495040893555
1782774445386411500,0.57541162109375,-0.4563765525817871,0.2467937469482422,-0.11116337776184082
1782774445396391000,0.585390869140625,-0.5023772716522217,0.19994449615478516,-0.24458003044128418
1782774445406400500,0.595400390625,-0.4531381130218506,0.17729568481445312,-0.4861764907836914
1782774445416410400,0.605410400390625,-0.2600219249725342,0.14844322204589844,-0.5588449239730835
1782774445426389500,0.615389404296875,0.06830263137817383,0.1558074951171875,-0.3084303140640259
1782774445436399400,0.6253994140625,0.284682035446167,0.23091697692871094,0.2041701078414917
1782774445446409200,0.6354091796875,0.3616816997528076,0.19472694396972656,0.4358903169631958
1782774445456418800,0.645418701171875,0.36484360694885254,0.030137062072753906,0.27047884464263916
1782774445466398200,0.655398193359375,0.2604100704193115,-0.12577152252197266,-0.05792593955993652
1782774445476408000,0.665407958984375,0.13337445259094238,-0.2746849060058594,-0.3496636152267456
1782774445486417700,0.675417724609375,0.009589195251464844,-0.40963172912597656,-0.446605920791626
1782774445496396800,0.685396728515625,-0.11334729194641113,-0.4619102478027344,-0.3398478031158447
1782774445506406700,0.69540673828125,-0.18508291244506836,-0.38084888458251953,-0.10417318344116211
1782774445516416300,0.705416259765625,-0.18082308769226074,-0.33061695098876953,0.1905834674835205
1782774445526395600,0.715395751953125,-0.17215967178344727,-0.2429513931274414,0.40320074558258057
1782774445536405500,0.725405517578125,-0.18430471420288086,-0.13105106353759766,0.5078490972518921
1782774445546415000,0.7354150390625,-0.234694242477417,-0.1408405303955078,0.42900729179382324
1782774445556394500,0.74539453125,-0.27997756004333496,-0.2924518585205078,0.12528479099273682
1782774445566404400,0.755404296875,-0.33925437927246094,-0.3865804672241211,-0.2150512933731079
1782774445576414000,0.7654140625,-0.20794272422790527,-0.43200016021728516,-0.4525700807571411
1782774445586393000,0.77539306640625,-0.08917593955993652,-0.38028717041015625,-0.3301842212677002
1782774445596403000,0.78540283203125,0.008684635162353516,-0.279327392578125,0.02027273178100586
1782774445606412500,0.79541259765625,0.09436583518981934,-0.1967620849609375,0.23033678531646729
1782774445616392000,0.805391845703125,0.1065816879272461,-0.1524944305419922,0.29511260986328125
1782774445626401800,0.81540185546875,0.06755852699279785,-0.14946556091308594,0.21634376049041748
1782774445636411400,0.825411376953125,-0.006743192672729492,-0.18133258819580078,0.07452607154846191
1782774445646390800,0.835390869140625,-0.16093993186950684,-0.13120651245117188,0.0067909955978393555
1782774445656400600,0.845400634765625,-0.381030797958374,-0.09217548370361328,-0.14573466777801514
1782774445666410500,0.855410400390625,-0.48247313499450684,-0.02515888214111328,-0.2631183862686157
1782774445676389600,0.8653896484375,-0.43009495735168457,-0.00075531005859375,-0.31720614433288574
1782774445686399200,0.875399169921875,-0.22691774368286133,-0.04633331298828125,-0.22585034370422363
1782774445696409000,0.8854091796875,0.05295205116271973,-0.1056814193725586,-0.08921122550964355
1782774445706418700,0.895418701171875,0.2520942687988281,-0.0874795913696289,0.040778160095214844
1782774445716398000,0.905398193359375,0.2901194095611572,0.004324913024902344,0.19719505310058594
1782774445726408000,0.915407958984375,0.2542452812194824,0.04951190948486328,0.20126891136169434
1782774445736417500,0.92541748046875,0.17815351486206055,-0.03599834442138672,-0.012687921524047852
1782774445746397000,0.93539697265625,0.11145496368408203,-0.0962991714477539,-0.16002607345581055
1782774445756406800,0.94540673828125,-0.03005361557006836,-0.0805816650390625,-0.07296168804168701
1782774445766416400,0.95541650390625,-0.16507315635681152,-0.1372051239013672,-0.09651374816894531
1782774445776395500,0.9653955078125,-0.3439295291900635,-0.11534976959228516,-0.019756436347961426
1782774445786405400,0.9754052734375,-0.6172988414764404,-0.06978130340576172,0.09411656856536865
1782774445796415000,0.9854150390625,-0.6476984024047852,-0.10590553283691406,0.04220700263977051
1782774445806394400,0.995394287109375,-0.6006453037261963,-0.13674449920654297,-0.01409006118774414
1782774445816404200,1.005404296875,-0.3978235721588135,-0.18274307250976562,-0.07492554187774658
1782774445826413800,1.015413818359375,-0.21475625038146973,-0.24844741821289062,-0.07325053215026855
1782774445836393200,1.025393310546875,-0.018924474716186523,-0.23360252380371094,0.052051663398742676
1782774445846403000,1.035403076171875,0.09699487686157227,-0.2205486297607422,0.12054955959320068
1782774445856412700,1.04541259765625,0.12874627113342285,-0.2727546691894531,0.08077239990234375
1782774445866392000,1.05539208984375,0.04378962516784668,-0.26137542724609375,0.09132063388824463
1782774445876402000,1.06540185546875,-0.019672155380249023,-0.2220468521118164,0.11599934101104736
1782774445886411500,1.07541162109375,-0.1107323169708252,-0.1950244903564453,0.1211707592010498
1782774445896391000,1.085390869140625,-0.16333365440368652,-0.17998123168945312,0.11173808574676514
1782774445906400500,1.095400390625,-0.16680383682250977,-0.15974712371826172,0.09989452362060547
1782774445916410400,1.105410400390625,-0.0928349494934082,-0.1483621597290039,0.17315495014190674
1782774445926389500,1.115389404296875,-0.024298429489135742,-0.1939239501953125,0.2063349485397339
1782774445936399400,1.1253994140625,-0.015286684036254883,-0.2682924270629883,0.09566009044647217
1782774445946409200,1.1354091796875,-0.05853414535522461,-0.3166971206665039,-0.05195498466491699
1782774445956418800,1.145418701171875,-0.041948795318603516,-0.3198575973510742,-0.1716916561126709
1782774445966398200,1.155398193359375,0.03130531311035156,-0.28211498260498047,-0.14253556728363037
1782774445976408000,1.165407958984375,0.4116683006286621,-0.15725135803222656,-0.012395858764648438
1782774445986417700,1.175417724609375,0.7865102291107178,-0.16711139678955078,0.05869102478027344
1782774445996396800,1.185396728515625,0.8702301979064941,-0.3069190979003906,0.041181325912475586
1782774446006406700,1.19540673828125,0.5221316814422607,-0.26126766204833984,0.08792459964752197
1782774446016416300,1.205416259765625,0.04171180725097656,-0.13034343719482422,0.10238921642303467
1782774446026395600,1.215395751953125,-0.4167451858520508,-0.09054946899414062,0.07953596115112305
1782774446036405500,1.225405517578125,-0.8179931640625,-0.1456136703491211,0.04718601703643799
1782774446046415000,1.2354150390625,-1.0717546939849854,-0.20025253295898438,-0.011467814445495605
1782774446056394500,1.24539453125,-1.1248369216918945,-0.1908731460571289,-0.12474119663238525
1782774446066404400,1.255404296875,-1.0852530002593994,-0.18369102478027344,-0.2254478931427002
1782774446076414000,1.2654140625,-0.6998035907745361,-0.14287853240966797,-0.14696359634399414
1782774446086393000,1.27539306640625,-0.27211856842041016,-0.09332847595214844,-0.06690239906311035
1782774446096403000,1.28540283203125,0.04242396354675293,-0.08002471923828125,0.05902671813964844
1782774446106412500,1.29541259765625,0.21651983261108398,-0.1211404800415039,0.0525360107421875
1782774446116392000,1.305391845703125,0.2833435535430908,-0.08611583709716797,-0.05253255367279053
1782774446126401800,1.31540185546875,0.30187010765075684,-0.11178112030029297,-0.14678287506103516
1782774446136411400,1.325411376953125,0.37576866149902344,-0.1717844009399414,-0.17184877395629883
1782774446146390800,1.335390869140625,0.4314389228820801,-0.18721389770507812,-0.1474757194519043
1782774446156400600,1.345400634765625,0.32919931411743164,-0.21998882293701172,-0.06982338428497314
1782774446166410500,1.355410400390625,0.15448212623596191,-0.14086341857910156,0.09373867511749268
1782774446176389600,1.3653896484375,-0.13005375862121582,-0.036540985107421875,0.16382193565368652
1782774446186399200,1.375399169921875,-0.263718843460083,-0.12215423583984375,0.05928945541381836
1782774446196409000,1.3854091796875,-0.3263981342315674,-0.23013687133789062,-0.14155340194702148
1782774446206418700,1.395418701171875,-0.3632838726043701,-0.28595733642578125,-0.29525089263916016
1782774446216398000,1.405398193359375,-0.2955052852630615,-0.21508216857910156,-0.16872262954711914
1782774446226408000,1.415407958984375,-0.15735316276550293,-0.12542343139648438,0.04671835899353027
1782774446236417500,1.42541748046875,0.027125835418701172,-0.09997844696044922,0.17154526710510254
1782774446246397000,1.43539697265625,0.20914959907531738,-0.11380195617675781,0.19670093059539795
1782774446256406800,1.44540673828125,0.32688188552856445,-0.19186115264892578,0.060613155364990234
1782774446266416400,1.45541650390625,0.42087864875793457,-0.2527446746826172,-0.1263364553451538
1782774446276395500,1.4653955078125,0.46753931045532227,-0.22946929931640625,-0.1752845048904419
1782774446286405400,1.4754052734375,0.5055568218231201,-0.23444175720214844,-0.1331174373626709
1782774446296415000,1.4854150390625,0.5166735649108887,-0.21983051300048828,0.0011830329895019531
1782774446306394400,1.495394287109375,0.4593172073364258,-0.18837547302246094,0.19075000286102295
1782774446316404200,1.505404296875,0.2993319034576416,-0.1888427734375,0.10203957557678223
1782774446326413800,1.515413818359375,0.19521760940551758,-0.2172536849975586,-0.158319354057312
1782774446336393200,1.525393310546875,0.13941168785095215,-0.2252817153930664,-0.14686763286590576
1782774446346403000,1.535403076171875,0.06422805786132812,-0.27939510345458984,-0.15297210216522217
1782774446356412700,1.54541259765625,0.0287935733795166,-0.2717142105102539,-0.17604315280914307
1782774446366392000,1.55539208984375,0.14225363731384277,-0.17789554595947266,-0.08237016201019287
1782774446376402000,1.56540185546875,0.04229283332824707,-0.029229164123535156,0.259928822517395
1782774446386411500,1.57541162109375,-0.002537250518798828,0.006333351135253906,0.3134223222732544
1782774446396391000,1.585390869140625,0.01776742935180664,-0.026311874389648438,0.12862634658813477
1782774446406400500,1.595400390625,-0.07921910285949707,-0.07670402526855469,0.08847594261169434
1782774446416410400,1.605410400390625,-0.24852919578552246,-0.0656270980834961,0.022872209548950195
1782774446426389500,1.615389404296875,-0.3870687484741211,-0.02827739715576172,0.049347877502441406
1782774446436399400,1.6253994140625,-0.3975389003753662,-0.07909488677978516,0.00641477108001709
1782774446446409200,1.6354091796875,-0.3372774124145508,-0.15576934814453125,-0.020377159118652344
1782774446456418800,1.645418701171875,-0.2708721160888672,-0.21044349670410156,-0.05252337455749512
1782774446466398200,1.655398193359375,-0.22021269798278809,-0.23105812072753906,-0.06357347965240479
1782774446476408000,1.665407958984375,-0.1709604263305664,-0.19371604919433594,0.011415243148803711
1782774446486417700,1.675417724609375,-0.1797468662261963,-0.13453006744384766,0.12172472476959229
1782774446496396800,1.685396728515625,-0.15055346488952637,-0.20218372344970703,-0.019026756286621094
1782774446506406700,1.69540673828125,-0.1596229076385498,-0.17669105529785156,0.03539133071899414
1782774446516416300,1.705416259765625,-0.20211172103881836,-0.09370708465576172,0.14689147472381592
1782774446526395600,1.715395751953125,-0.37246012687683105,-0.1284160614013672,0.02324235439300537
1782774446536405500,1.725405517578125,-0.47271227836608887,-0.0997457504272461,-0.06539511680603027
1782774446546415000,1.7354150390625,-0.4503145217895508,-0.08086585998535156,-0.1322486400604248
1782774446556394500,1.74539453125,-0.32480478286743164,-0.14500999450683594,-0.10593259334564209
1782774446566404400,1.755404296875,-0.1933610439300537,-0.1263408660888672,0.036449551582336426
1782774446576414000,1.7654140625,-0.08214831352233887,-0.13996028900146484,0.027469277381896973
1782774446586393000,1.77539306640625,-0.013117074966430664,-0.16524982452392578,-0.030750036239624023
1782774446596403000,1.78540283203125,-0.022602319717407227,-0.11884784698486328,0.06411147117614746
1782774446606412500,1.79541259765625,-0.061295270919799805,-0.03703022003173828,0.13189911842346191
1782774446616392000,1.805391845703125,-0.10553741455078125,-0.09716033935546875,0.03298068046569824
1782774446626401800,1.81540185546875,-0.13051366806030273,-0.22222232818603516,-0.1459101438522339
1782774446636411400,1.825411376953125,-0.10808253288269043,-0.29225826263427734,-0.37156879901885986
1782774446646390800,1.835390869140625,-0.09551835060119629,-0.31430721282958984,-0.3913586139678955
1782774446656400600,1.845400634765625,-0.044207096099853516,-0.13023662567138672,-0.06606769561767578
1782774446666410500,1.855410400390625,-0.08063244819641113,0.03973865509033203,0.33512818813323975
1782774446676389600,1.8653896484375,-0.20605111122131348,0.05360984802246094,0.3954005241394043
1782774446686399200,1.875399169921875,-0.3460574150085449,0.1048126220703125,0.2560899257659912
1782774446696409000,1.8854091796875,-0.3608231544494629,0.08347702026367188,-0.026559114456176758
1782774446706418700,1.895418701171875,-0.23668313026428223,-0.045345306396484375,-0.26797235012054443
1782774446716398000,1.905398193359375,-0.042231082916259766,-0.1155080795288086,-0.2408287525177002
1782774446726408000,1.915407958984375,0.08432292938232422,-0.08616352081298828,-0.09562361240386963
1782774446736417500,1.92541748046875,0.09970688819885254,-0.04194831848144531,0.02707350254058838
1782774446746397000,1.93539697265625,0.03244781494140625,-0.03401470184326172,0.06355249881744385
1782774446756406800,1.94540673828125,0.03175067901611328,-0.03151416778564453,0.030717015266418457
1782774446766416400,1.95541650390625,0.05379962921142578,-0.07976055145263672,0.029464125633239746
1782774446776395500,1.9653955078125,0.1264805793762207,-0.049160003662109375,0.09790539741516113
1782774446786405400,1.9754052734375,0.21616077423095703,-0.0281219482421875,0.13709378242492676
1782774446796415000,1.9854150390625,0.2090141773223877,0.009360313415527344,0.29770922660827637
1782774446806394400,1.995394287109375,0.1085350513458252,0.0078125,0.2999361753463745
1782774446816404200,2.005404296875,0.015613079071044922,-0.028371810913085938,0.14781033992767334
1782774446826413800,2.015413818359375,-0.1351451873779297,-0.13024330139160156,0.007579445838928223
1782774446836393200,2.025393310546875,-0.24976658821105957,-0.19887542724609375,-0.07393276691436768
1782774446846403000,2.035403076171875,-0.24394869804382324,-0.24559402465820312,-0.11608457565307617
1782774446856412700,2.04541259765625,-0.1933445930480957,-0.31520748138427734,-0.10582232475280762
1782774446866392000,2.05539208984375,-0.1314246654510498,-0.4339876174926758,-0.11071944236755371
1782774446876402000,2.06540185546875,-0.09953641891479492,-0.5067138671875,-0.1882936954498291
1782774446886411500,2.07541162109375,-0.0201570987701416,-0.48099803924560547,-0.2069031000137329
1782774446896391000,2.085390869140625,0.03299117088317871,-0.35211753845214844,0.02922356128692627
1782774446906400500,2.095400390625,0.0319061279296875,-0.31406116485595703,0.1383826732635498
1782774446916410400,2.105410400390625,-0.02931499481201172,-0.2861175537109375,0.1366121768951416
1782774446926389500,2.115389404296875,-0.1362147331237793,-0.23981285095214844,0.030040860176086426
1782774446936399400,2.1253994140625,-0.28220367431640625,-0.23729991912841797,-0.13765645027160645
1782774446946409200,2.1354091796875,-0.34675145149230957,-0.23972320556640625,-0.23750507831573486
1782774446956418800,2.145418701171875,-0.3468010425567627,-0.2747335433959961,-0.2949714660644531
1782774446966398200,2.155398193359375,-0.24945998191833496,-0.2177419662475586,-0.27836477756500244
1782774446976408000,2.165407958984375,-0.1077420711517334,-0.13305282592773438,-0.07172369956970215
1782774446986417700,2.175417724609375,0.019909143447875977,-0.02820873260498047,0.1736307144165039
1782774446996396800,2.185396728515625,0.04325079917907715,0.054965972900390625,0.3938795328140259
1782774447006406700,2.19540673828125,-0.0398404598236084,0.09636974334716797,0.4866701364517212
1782774447016416300,2.205416259765625,-0.2123851776123047,0.028695106506347656,0.36460280418395996
1782774447026395600,2.215395751953125,-0.3903388977050781,-0.0999755859375,0.0519791841506958
1782774447036405500,2.225405517578125,-0.4256885051727295,-0.20501232147216797,-0.30003345012664795
1782774447046415000,2.2354150390625,-0.32497072219848633,-0.33823490142822266,-0.5782597064971924
1782774447056394500,2.24539453125,-0.15238547325134277,-0.3460826873779297,-0.5436567068099976
1782774447066404400,2.255404296875,0.05141592025756836,-0.17535686492919922,-0.13709402084350586
1782774447076414000,2.2654140625,0.17303681373596191,0.09936904907226562,0.4443713426589966
1782774447086393000,2.27539306640625,0.11731314659118652,0.25875091552734375,0.7417398691177368
1782774447096403000,2.28540283203125,-0.14047694206237793,0.23471736907958984,0.5593534708023071
1782774447106412500,2.29541259765625,-0.3165016174316406,0.12034320831298828,0.18099749088287354
1782774447116392000,2.305391845703125,-0.406282901763916,0.0697927474975586,-0.094582200050354
1782774447126401800,2.31540185546875,-0.4261744022369385,-0.047684669494628906,-0.37203359603881836
1782774447136411400,2.325411376953125,-0.2778139114379883,-0.21683692932128906,-0.5902893543243408
1782774447146390800,2.335390869140625,-0.11070394515991211,-0.37223148345947266,-0.5796188116073608
1782774447156400600,2.345400634765625,0.15485119819641113,-0.3269767761230469,-0.3755906820297241
1782774447166410500,2.355410400390625,0.3270726203918457,-0.18658447265625,0.16725468635559082
1782774447176389600,2.3653896484375,0.4145071506500244,-0.08669662475585938,0.5795642137527466
1782774447186399200,2.375399169921875,0.32758641242980957,-0.10238838195800781,0.6601804494857788
1782774447196409000,2.3854091796875,0.24422049522399902,-0.1747264862060547,0.2598557472229004
1782774447206418700,2.395418701171875,0.15905380249023438,-0.3161907196044922,-0.26074421405792236
1782774447216398000,2.405398193359375,0.07010173797607422,-0.47783565521240234,-0.5904339551925659
1782774447226408000,2.415407958984375,0.05705451965332031,-0.6227712631225586,-0.8035370111465454
1782774447236417500,2.42541748046875,0.03626108169555664,-0.6596603393554688,-0.6630004048347473
1782774447246397000,2.43539697265625,-0.036272287368774414,-0.4541015625,-0.22627949714660645
1782774447256406800,2.44540673828125,-0.06846141815185547,-0.2649650573730469,0.16388118267059326
1782774447266416400,2.45541650390625,-0.11304664611816406,-0.12858963012695312,0.43834519386291504
1782774447276395500,2.4653955078125,-0.1616497039794922,0.014704704284667969,0.49747025966644287
1782774447286405400,2.4754052734375,-0.31294846534729004,0.009046554565429688,0.2694547176361084
1782774447296415200,2.485415283203125,-0.4093286991119385,-0.05951118469238281,-0.11484670639038086
1782774447306394400,2.495394287109375,-0.44864988327026367,-0.11173152923583984,-0.46238064765930176
1782774447316404200,2.505404296875,-0.3029942512512207,-0.17086410522460938,-0.5591903924942017
1782774447326413800,2.515413818359375,-0.10847926139831543,-0.09926795959472656,-0.35809504985809326
1782774447336393200,2.525393310546875,0.05553770065307617,-0.06879425048828125,-0.04837799072265625
1782774447346403000,2.535403076171875,0.09794831275939941,-0.06357574462890625,0.09331405162811279
1782774447356412700,2.54541259765625,0.10999441146850586,0.010904312133789062,0.09336912631988525
1782774447366392000,2.55539208984375,0.14097857475280762,0.07497501373291016,0.18764221668243408
1782774447376402000,2.56540185546875,0.1927950382232666,0.18318557739257812,0.3780127763748169
1782774447386411500,2.57541162109375,0.15200519561767578,0.13945674896240234,0.3247387409210205
1782774447396391000,2.585390869140625,-0.0676424503326416,0.03922843933105469,0.05383265018463135
1782774447406400500,2.595400390625,-0.27408909797668457,-0.021218299865722656,-0.19475901126861572
1782774447416410400,2.605410400390625,-0.3473963737487793,-0.06475353240966797,-0.3562382459640503
1782774447426389500,2.615389404296875,-0.2746119499206543,-0.09543132781982422,-0.3341718912124634
1782774447436399400,2.6253994140625,-0.15699410438537598,-0.09604358673095703,-0.12038159370422363
1782774447446409200,2.6354091796875,0.03646683692932129,-0.07844352722167969,0.16970443725585938
1782774447456418800,2.645418701171875,0.1313471794128418,-0.029275894165039062,0.41245388984680176
1782774447466398200,2.655398193359375,0.0660400390625,-0.07181262969970703,0.42232537269592285
1782774447476408000,2.665407958984375,-0.060529232025146484,-0.11559200286865234,0.2776215076446533
1782774447486417700,2.675417724609375,-0.2278127670288086,-0.18925952911376953,-0.022675752639770508
1782774447496396800,2.685396728515625,-0.24178481101989746,-0.3089418411254883,-0.22898733615875244
1782774447506406700,2.69540673828125,-0.2595951557159424,-0.34670352935791016,-0.24650371074676514
1782774447516416300,2.705416259765625,-0.21694111824035645,-0.4794931411743164,-0.3440821170806885
1782774447526395600,2.715395751953125,-0.05428481101989746,-0.49645519256591797,-0.22764480113983154
1782774447536405500,2.725405517578125,0.10709142684936523,-0.3472871780395508,0.05079543590545654
1782774447546415000,2.7354150390625,0.1735398769378662,-0.32970428466796875,0.21455419063568115
1782774447556394500,2.74539453125,0.04607057571411133,-0.26728153228759766,0.28427672386169434
1782774447566404400,2.755404296875,-0.08398604393005371,-0.2487478256225586,0.16788291931152344
1782774447576414000,2.7654140625,-0.19867610931396484,-0.2907590866088867,-0.058768391609191895
1782774447586393000,2.77539306640625,-0.29877352714538574,-0.2899618148803711,-0.22425556182861328
1782774447596403000,2.78540283203125,-0.31113219261169434,-0.3031911849975586,-0.3350958824157715
1782774447606412500,2.79541259765625,-0.2843630313873291,-0.17205333709716797,-0.1408076286315918
1782774447616392000,2.805391845703125,-0.17870187759399414,-0.032611846923828125,0.07781243324279785
1782774447626401800,2.81540185546875,0.02945566177368164,0.03131103515625,0.16114819049835205
1782774447636411400,2.825411376953125,0.17847514152526855,0.13646602630615234,0.37854039669036865
1782774447646390800,2.835390869140625,0.2386319637298584,0.08128738403320312,0.26802897453308105
1782774447656400600,2.845400634765625,0.22558379173278809,-0.08256340026855469,-0.07347965240478516
1782774447666410500,2.855410400390625,0.2064521312713623,-0.1251821517944336,-0.17963266372680664
1782774447676389600,2.8653896484375,0.17329096794128418,-0.07460975646972656,-0.17998719215393066
1782774447686399200,2.875399169921875,0.1054389476776123,-0.1176919937133789,-0.12108933925628662
1782774447696409000,2.8854091796875,-0.013284921646118164,-0.17315006256103516,-0.10864758491516113
1782774447706418700,2.895418701171875,-0.12260699272155762,-0.12150382995605469,-0.04867243766784668
1782774447716398000,2.905398193359375,-0.18988275527954102,-0.07264518737792969,0.03506577014923096
1782774447726408000,2.915407958984375,-0.22611236572265625,-0.15302181243896484,-0.0178072452545166
1782774447736417500,2.92541748046875,-0.21542119979858398,-0.24997520446777344,-0.1609424352645874
1782774447746397000,2.93539697265625,-0.1990675926208496,-0.2603874206542969,-0.16206514835357666
1782774447756406800,2.94540673828125,-0.16966605186462402,-0.23202991485595703,-0.1155998706817627
1782774447766416400,2.95541650390625,-0.07857251167297363,-0.16507244110107422,-0.03872394561767578
1782774447776395500,2.9653955078125,-0.052985429763793945,-0.04028511047363281,0.1405167579650879
1782774447786405400,2.9754052734375,0.06622576713562012,-0.06571197509765625,0.03753483295440674
1782774447796415200,2.985415283203125,0.21679329872131348,-0.07106876373291016,-0.1701427698135376
1782774447806394400,2.995394287109375,0.36544299125671387,-0.08064556121826172,-0.140555739402771
1782774447816404200,3.005404296875,0.44254517555236816,-0.04695606231689453,0.04559326171875
1782774447826413800,3.015413818359375,0.3351461887359619,-0.032848358154296875,0.20377230644226074
1782774447836393200,3.025393310546875,0.2061319351196289,-0.07933235168457031,0.1943812370300293
1782774447846403000,3.035403076171875,0.048197031021118164,-0.13872623443603516,0.09306013584136963
1782774447856412700,3.04541259765625,-0.10994863510131836,-0.2757148742675781,-0.1262592077255249
1782774447866392000,3.05539208984375,-0.142045259475708,-0.33193302154541016,-0.21545171737670898
1782774447876402000,3.06540185546875,-0.11884450912475586,-0.27788829803466797,-0.15500867366790771
1782774447886411500,3.07541162109375,-0.06706786155700684,-0.209136962890625,0.016219377517700195
1782774447896391000,3.085390869140625,-0.0796670913696289,-0.20976924896240234,0.08607470989227295
1782774447906400500,3.095400390625,-0.17294716835021973,-0.28492164611816406,0.0031499862670898438
1782774447916410400,3.105410400390625,-0.24931621551513672,-0.23817157745361328,-0.045319437980651855
1782774447926389500,3.115389404296875,-0.2778623104095459,-0.22740840911865234,-0.12675440311431885
1782774447936399400,3.1253994140625,-0.2283926010131836,-0.23542499542236328,-0.15108346939086914
1782774447946409200,3.1354091796875,-0.16333365440368652,-0.192596435546875,-0.03294050693511963
1782774447956418800,3.145418701171875,-0.11343598365783691,-0.19721031188964844,-0.05241692066192627
1782774447966398200,3.155398193359375,-0.08984231948852539,-0.1132049560546875,0.0451502799987793
1782774447976408000,3.165407958984375,-0.09679841995239258,-0.053157806396484375,0.17283713817596436
1782774447986417700,3.175417724609375,-0.13613605499267578,-0.05569171905517578,0.11603033542633057
1782774447996396800,3.185396728515625,-0.1176595687866211,-0.1088552474975586,-0.0063745975494384766
1782774448006406700,3.19540673828125,-0.08307480812072754,-0.15477561950683594,-0.08002865314483643
1782774448016416300,3.205416259765625,-0.04619097709655762,-0.21503353118896484,-0.13929390907287598
1782774448026395600,3.215395751953125,0.0027239322662353516,-0.1914806365966797,-0.12215101718902588
1782774448036405500,3.225405517578125,0.016478300094604492,-0.05788612365722656,0.09523665904998779
1782774448046415000,3.2354150390625,-0.06174492835998535,0.013224601745605469,0.19647133350372314
1782774448056394500,3.24539453125,-0.1958332061767578,-0.033621788024902344,0.09027087688446045
1782774448066404400,3.255404296875,-0.2957603931427002,-0.10971736907958984,-0.10498166084289551
1782774448076414000,3.2654140625,-0.2933361530303955,-0.09967517852783203,-0.17427170276641846
1782774448086393000,3.27539306640625,-0.2370738983154297,-0.12035369873046875,-0.17183291912078857
1782774448096403000,3.28540283203125,-0.1773080825805664,-0.1859750747680664,-0.14631319046020508
1782774448106412500,3.29541259765625,-0.04974484443664551,-0.14809322357177734,-0.08515095710754395
1782774448116392000,3.305391845703125,0.020987987518310547,-0.1526927947998047,-0.10578083992004395
1782774448126401800,3.31540185546875,0.026624441146850586,-0.21469402313232422,-0.16182076930999756
1782774448136411400,3.325411376953125,0.05870699882507324,-0.133087158203125,-0.002325773239135742
1782774448146390800,3.335390869140625,0.06012225151062012,-0.008332252502441406,0.14162755012512207
1782774448156400600,3.345400634765625,0.08122992515563965,0.03007793426513672,0.15859413146972656
1782774448166410500,3.355410400390625,0.07626199722290039,-0.02750873565673828,0.09745323657989502
1782774448176389600,3.3653896484375,0.05121588706970215,-0.09219932556152344,-0.0031145811080932617
1782774448186399200,3.375399169921875,0.13187575340270996,-0.19961833953857422,-0.21935582160949707
1782774448196409000,3.3854091796875,0.18404150009155273,-0.24419498443603516,-0.18606054782867432
1782774448206418700,3.395418701171875,0.1884324550628662,-0.2885866165161133,-0.12297272682189941
1782774448216398000,3.405398193359375,0.06954455375671387,-0.24517440795898438,-0.016537189483642578
1782774448226408000,3.415407958984375,-0.042973995208740234,-0.1806631088256836,0.05847656726837158
1782774448236417500,3.42541748046875,-0.10799980163574219,-0.13518905639648438,0.11916840076446533
1782774448246397000,3.43539697265625,-0.1186363697052002,-0.16129016876220703,0.12933480739593506
1782774448256406800,3.44540673828125,-0.13402271270751953,-0.1778249740600586,0.1227574348449707
1782774448266416400,3.45541650390625,-0.09880566596984863,-0.22804832458496094,0.05671560764312744
1782774448276395500,3.4653955078125,-0.09456229209899902,-0.23775577545166016,-0.07549417018890381
1782774448286405400,3.4754052734375,-0.11433935165405273,-0.2690887451171875,-0.17594802379608154
1782774448296415200,3.485415283203125,-0.10823345184326172,-0.24995803833007812,-0.11624622344970703
1782774448306394400,3.495394287109375,-0.09987092018127441,-0.2641592025756836,-0.08139193058013916
1782774448316404200,3.505404296875,-0.10779762268066406,-0.2975893020629883,-0.18342792987823486
1782774448326413800,3.515413818359375,-0.11732912063598633,-0.31211185455322266,-0.17775368690490723
1782774448336393200,3.525393310546875,-0.1379683017730713,-0.3459329605102539,-0.13216865062713623
1782774448346403000,3.535403076171875,-0.1933300495147705,-0.2770204544067383,-0.08994925022125244
1782774448356412700,3.54541259765625,-0.21383953094482422,-0.11984920501708984,0.04028666019439697
1782774448366392000,3.55539208984375,-0.2764284610748291,-0.10659503936767578,0.057686686515808105
1782774448376402000,3.56540185546875,-0.34791111946105957,-0.1823415756225586,-0.06253707408905029
1782774448386411500,3.57541162109375,-0.37694764137268066,-0.17676925659179688,-0.2671527862548828
1782774448396391000,3.585390869140625,-0.3239777088165283,-0.11105155944824219,-0.3551708459854126
1782774448406400500,3.595400390625,-0.16391730308532715,-0.0850667953491211,-0.24695062637329102
1782774448416410400,3.605410400390625,0.07911419868469238,-0.004982948303222656,0.009479045867919922
1782774448426389500,3.615389404296875,0.27742719650268555,0.059311866760253906,0.23670446872711182
1782774448436399400,3.6253994140625,0.3210780620574951,0.1256399154663086,0.2991369962692261
1782774448446409200,3.6354091796875,0.311779260635376,0.17427349090576172,0.28185272216796875
1782774448456418800,3.645418701171875,0.16347908973693848,0.1525726318359375,0.2561842203140259
1782774448466398200,3.655398193359375,0.01058053970336914,0.024394989013671875,-0.006908059120178223
1782774448476408000,3.665407958984375,-0.10287880897521973,-0.07098102569580078,-0.2366112470626831
1782774448486417700,3.675417724609375,-0.06725001335144043,-0.08441638946533203,-0.14299654960632324
1782774448496396800,3.685396728515625,0.032500505447387695,-0.10859394073486328,0.04918873310089111
1782774448506406700,3.69540673828125,0.10436654090881348,-0.1583251953125,0.2562812566757202
1782774448516416300,3.705416259765625,0.07829785346984863,-0.2773714065551758,0.16530883312225342
1782774448526395600,3.715395751953125,-0.005739450454711914,-0.4284534454345703,-0.11757683753967285
1782774448536405500,3.725405517578125,-0.1094517707824707,-0.38885974884033203,-0.16410911083221436
1782774448546415000,3.7354150390625,-0.20712637901306152,-0.4094572067260742,-0.285203218460083
1782774448556394500,3.74539453125,-0.2561228275299072,-0.42301464080810547,-0.29441797733306885
1782774448566404400,3.755404296875,-0.2719767093658447,-0.3044567108154297,-0.07816791534423828
1782774448576414000,3.7654140625,-0.2030353546142578,-0.23779869079589844,0.05933976173400879
1782774448586393300,3.775393310546875,-0.09736323356628418,-0.1681203842163086,0.16966164112091064
1782774448596403000,3.78540283203125,-0.054810285568237305,-0.08373832702636719,0.24365806579589844
1782774448606412800,3.795412841796875,-0.04866623878479004,-0.011264801025390625,0.15783286094665527
1782774448616392000,3.805391845703125,-0.023485660552978516,-0.010912895202636719,-0.04560554027557373
1782774448626401800,3.81540185546875,0.010800838470458984,-0.02745342254638672,-0.21139883995056152
1782774448636411600,3.82541162109375,0.07484602928161621,0.0018949508666992188,-0.23333358764648438
1782774448646390800,3.835390869140625,0.21240830421447754,0.010025978088378906,-0.20329535007476807
1782774448656400600,3.845400634765625,0.25004148483276367,0.027782440185546875,0.05504727363586426
1782774448666410500,3.855410400390625,0.14839720726013184,0.03548717498779297,0.1903846263885498
1782774448676389600,3.8653896484375,0.04404926300048828,0.01834392547607422,0.10225260257720947
1782774448686399200,3.875399169921875,-0.08010029792785645,-0.03797435760498047,-0.0556873083114624
1782774448696409000,3.8854091796875,-0.2056891918182373,-0.1307382583618164,-0.19537734985351562
1782774448706418700,3.895418701171875,-0.2496964931488037,-0.19490623474121094,-0.27708959579467773
1782774448716398000,3.905398193359375,-0.2295515537261963,-0.1822195053100586,-0.21806955337524414
1782774448726408000,3.915407958984375,-0.16678929328918457,-0.22665786743164062,-0.16500544548034668
1782774448736417500,3.92541748046875,-0.16920161247253418,-0.23729515075683594,-0.09831249713897705
1782774448746397000,3.93539697265625,-0.14160919189453125,-0.25467681884765625,-0.09923315048217773
1782774448756406800,3.94540673828125,-0.09911990165710449,-0.23563575744628906,-0.08292233943939209
1782774448766416400,3.95541650390625,-0.029567718505859375,-0.17526912689208984,-0.03618311882019043
1782774448776395500,3.9653955078125,0.00147247314453125,-0.1865081787109375,0.007177233695983887
1782774448786405400,3.9754052734375,-0.004541873931884766,-0.14779281616210938,0.06924855709075928
1782774448796415200,3.985415283203125,-0.030957460403442383,-0.15727615356445312,0.042474985122680664
1782774448806394400,3.995394287109375,-0.04523134231567383,-0.22918128967285156,-0.06493747234344482
1782774448816404200,4.005404296875,-0.06446647644042969,-0.27239036560058594,-0.12151026725769043
1782774448826413800,4.015413818359375,-0.035797834396362305,-0.29878807067871094,-0.20478379726409912
1782774448836393200,4.025393310546875,-0.00897359848022461,-0.2653999328613281,-0.1187293529510498
1782774448846403000,4.035403076171875,0.027737140655517578,-0.09059619903564453,0.11173057556152344
1782774448856413000,4.045412841796875,0.05258965492248535,0.09390830993652344,0.345975399017334
1782774448866392000,4.05539208984375,0.02026987075805664,0.13949203491210938,0.38609445095062256
1782774448876342000,4.065342041015625,-0.041966915130615234,0.05996990203857422,0.20501136779785156
1782774448886472400,4.075472412109375,-0.13442730903625488,-0.02738189697265625,0.02150094509124756
1782774448896331000,4.0853310546875,-0.17444872856140137,-0.07899284362792969,-0.15565061569213867
1782774448906432300,4.095432373046875,-0.09179568290710449,-0.19714832305908203,-0.17909204959869385
1782774448917376800,4.106376708984375,0.00738072395324707,-0.2448892593383789,-0.033612608909606934
1782774448936399400,4.1253994140625,0.1087026596069336,-0.3338956832885742,0.0694812536239624
1782774448946409200,4.1354091796875,0.03589773178100586,-0.3311471939086914,0.07633447647094727
1782774448956418800,4.145418701171875,-0.08193612098693848,-0.31017017364501953,0.018798351287841797
1782774448966398200,4.155398193359375,-0.1665024757385254,-0.18219470977783203,0.026380181312561035
1782774448976408000,4.165407958984375,-0.16661739349365234,-0.013691902160644531,0.1774301528930664
1782774448986417700,4.175417724609375,-0.19300460815429688,0.04731559753417969,0.2957042455673218
1782774448996396800,4.185396728515625,-0.24069881439208984,0.07957649230957031,0.2819279432296753
1782774449006406700,4.19540673828125,-0.2904934883117676,0.0013875961303710938,0.05893588066101074
1782774449016416300,4.205416259765625,-0.3072340488433838,-0.0651254653930664,-0.13249588012695312
1782774449026395600,4.215395751953125,-0.21396541595458984,-0.1574869155883789,-0.29093992710113525
1782774449036405500,4.225405517578125,-0.024549007415771484,-0.2581052780151367,-0.3150743246078491
1782774449046415000,4.2354150390625,0.10866165161132812,-0.29514217376708984,-0.18752658367156982
1782774449056394500,4.24539453125,0.18349885940551758,-0.3339557647705078,-0.07890069484710693
1782774449066404400,4.255404296875,0.16173887252807617,-0.2845878601074219,0.026857733726501465
1782774449076414000,4.2654140625,0.15134072303771973,-0.24532604217529297,0.043884992599487305
1782774449086393000,4.27539306640625,0.0730898380279541,-0.18748092651367188,0.03749382495880127
1782774449096403000,4.28540283203125,0.08648467063903809,-0.14419078826904297,0.09804332256317139
1782774449106412500,4.29541259765625,0.0843973159790039,-0.10117912292480469,0.19134247303009033
1782774449116392000,4.305391845703125,-0.028184890747070312,-0.11147594451904297,0.10989630222320557
1782774449126401800,4.31540185546875,-0.1031184196472168,-0.17289161682128906,-0.11800849437713623
1782774449136411400,4.325411376953125,-0.0879812240600586,-0.26297569274902344,-0.29897820949554443
1782774449146390800,4.335390869140625,-0.037169694900512695,-0.3330698013305664,-0.4657261371612549
1782774449156400600,4.345400634765625,-0.03325223922729492,-0.29964447021484375,-0.35322248935699463
1782774449166410500,4.355410400390625,-0.06042671203613281,-0.19878292083740234,-0.09016335010528564
1782774449176389600,4.3653896484375,-0.08481192588806152,-0.08090972900390625,0.163260817527771
1782774449186399200,4.375399169921875,-0.08002924919128418,-0.01337432861328125,0.2773478031158447
1782774449196409000,4.3854091796875,-0.03606104850769043,-0.07319927215576172,0.05753374099731445
1782774449206418700,4.395418701171875,-0.07452249526977539,-0.18640899658203125,-0.13646376132965088
1782774449216398000,4.405398193359375,-0.181685209274292,-0.2401418685913086,-0.2600339651107788
1782774449226408000,4.415407958984375,-0.2595229148864746,-0.2078857421875,-0.23023176193237305
1782774449236417500,4.42541748046875,-0.3418583869934082,-0.11570072174072266,-0.06741619110107422
1782774449246397000,4.43539697265625,-0.26912760734558105,-0.08784961700439453,-0.020414233207702637
1782774449256406800,4.44540673828125,-0.2165076732635498,-0.054907798767089844,-0.030908584594726562
1782774449266416400,4.45541650390625,-0.1815330982208252,-0.02899456024169922,-0.08613336086273193
1782774449276395800,4.465395751953125,-0.12087321281433105,-0.09640789031982422,-0.18824899196624756
1782774449286405400,4.4754052734375,-0.07954883575439453,-0.1303396224975586,-0.2682234048843384
1782774449296415200,4.485415283203125,-0.128645658493042,-0.12128257751464844,-0.18099629878997803
1782774449306394400,4.495394287109375,-0.229323148727417,-0.11006927490234375,-0.1470726728439331
1782774449316404200,4.505404296875,-0.14110350608825684,-0.08921623229980469,-0.12025797367095947
1782774449326413800,4.515413818359375,0.018701791763305664,-0.04833984375,-0.05075955390930176
1782774449336393200,4.525393310546875,0.22351408004760742,-0.06647968292236328,-0.1294163465499878
1782774449346403000,4.535403076171875,0.3170738220214844,-0.09890270233154297,-0.24467706680297852
1782774449356412700,4.54541259765625,0.31746435165405273,-0.0741739273071289,-0.24815773963928223
1782774449366392000,4.55539208984375,0.2879068851470947,-0.028321266174316406,-0.1985558271408081
1782774449376402000,4.56540185546875,0.2620718479156494,-0.0043354034423828125,-0.08486199378967285
1782774449386411500,4.57541162109375,0.19759893417358398,0.03116893768310547,0.10421466827392578
1782774449396391000,4.585390869140625,0.07751655578613281,-0.02965259552001953,-0.02279651165008545
1782774449406340900,4.5953408203125,0.017392635345458984,-0.19629287719726562,-0.300106406211853
1782774449416471300,4.60547119140625,0.017665386199951172,-0.257537841796875,-0.43028128147125244
1782774449426329900,4.615329833984375,0.01119542121887207,-0.24874114990234375,-0.3401939868927002
1782774449436490800,4.62549072265625,-0.0008544921875,-0.22011470794677734,-0.121285080909729
1782774449446349600,4.635349609375,-0.00004649162292480469,-0.1983957290649414,0.05564010143280029
1782774449456480000,4.64547998046875,-0.07435798645019531,-0.17195796966552734,0.25625526905059814
1782774449466398200,4.655398193359375,-0.15712475776672363,-0.1625986099243164,0.22445225715637207
1782774449476348200,4.66534814453125,-0.3024725914001465,-0.1799182891845703,0.01848900318145752
1782774449486478800,4.675478759765625,-0.289029598236084,-0.18736648559570312,-0.11665856838226318
1782774449496396800,4.685396728515625,-0.14893245697021484,-0.22031021118164062,-0.16100692749023438
1782774449506406700,4.69540673828125,0.03684282302856445,-0.2307109832763672,0.017576932907104492
1782774449516416300,4.705416259765625,0.12392759323120117,-0.14731884002685547,0.2088170051574707
1782774449526395600,4.715395751953125,0.15713000297546387,-0.056891441345214844,0.4201352596282959
1782774449536405500,4.725405517578125,0.12273287773132324,-0.02659893035888672,0.4691077470779419
1782774449546415000,4.7354150390625,0.011769771575927734,-0.06648635864257812,0.3791600465774536
1782774449556394500,4.74539453125,-0.08320498466491699,-0.15750598907470703,0.1575099229812622
1782774449566404400,4.755404296875,-0.11634516716003418,-0.25127410888671875,-0.07285487651824951
1782774449576414000,4.7654140625,-0.04525923728942871,-0.2466869354248047,-0.11305713653564453
1782774449586333400,4.77533349609375,-0.01255655288696289,-0.1842641830444336,0.12213027477264404
1782774449597278000,4.78627783203125,-0.04530644416809082,-0.1457815170288086,0.25340378284454346
1782774449616392000,4.805391845703125,-0.10849905014038086,-0.13980960845947266,0.04019951820373535
1782774449626401800,4.81540185546875,-0.19826984405517578,-0.07367515563964844,0.09143531322479248
1782774449636411600,4.82541162109375,-0.2566232681274414,-0.0721597671508789,0.1514962911605835
1782774449646390800,4.835390869140625,-0.22694706916809082,-0.08960628509521484,0.12762463092803955
1782774449656400600,4.845400634765625,-0.18886137008666992,-0.1331491470336914,-0.02231466770172119
1782774449666410500,4.855410400390625,-0.16153430938720703,-0.23874759674072266,-0.13519501686096191
1782774449676330000,4.865330078125,-0.1872270107269287,-0.29400157928466797,-0.19750535488128662
1782774449686431200,4.87543115234375,-0.19584393501281738,-0.3684539794921875,-0.33920061588287354
1782774449696470000,4.885469970703125,-0.24842238426208496,-0.3882284164428711,-0.36412227153778076
1782774449706418700,4.895418701171875,-0.3302426338195801,-0.3723917007446289,-0.22809112071990967
1782774449716398000,4.905398193359375,-0.4317588806152344,-0.31375789642333984,-0.15127980709075928
1782774449726408000,4.915407958984375,-0.4744598865509033,-0.27936267852783203,-0.10396313667297363
1782774449736417500,4.92541748046875,-0.4685690402984619,-0.2139759063720703,-0.0331723690032959
1782774449746397000,4.93539697265625,-0.5246491432189941,-0.14386749267578125,-0.027065396308898926
1782774449756347100,4.94534716796875,-0.44572949409484863,0.010466575622558594,0.04387068748474121
1782774449766477600,4.9554775390625,-0.21982741355895996,0.1348562240600586,0.10279452800750732
1782774449776395800,4.965395751953125,0.12327790260314941,0.1322612762451172,0.21142315864562988
1782774449786284500,4.975284423828125,0.5367071628570557,0.22724246978759766,0.22264528274536133
1782774449797404400,4.986404296875,0.6803488731384277,0.16451358795166016,0.21125900745391846
1782774449816404200,5.005404296875,0.5626773834228516,-0.0908651351928711,-0.16916954517364502
1782774449826413800,5.015413818359375,0.39585399627685547,-0.12356758117675781,-0.21913301944732666
1782774449836393200,5.025393310546875,0.20638203620910645,-0.05442619323730469,-0.05618250370025635
1782774449846403000,5.035403076171875,0.07787108421325684,-0.03408050537109375,0.06976377964019775
1782774449856412700,5.04541259765625,-0.09743714332580566,-0.041062355041503906,0.03479814529418945
1782774449866392000,5.05539208984375,-0.21052861213684082,-0.08238983154296875,-0.01621866226196289
1782774449876402000,5.06540185546875,-0.2822301387786865,-0.0929250717163086,-0.07118761539459229
1782774449886352000,5.075351806640625,-0.27617907524108887,-0.1366891860961914,-0.15658438205718994
1782774449896482300,5.085482421875,-0.21892142295837402,-0.18898773193359375,-0.2147427797317505
1782774449906400500,5.095400390625,-0.14955520629882812,-0.16636371612548828,-0.22510874271392822
1782774449916410400,5.105410400390625,-0.043966054916381836,-0.1837625503540039,-0.23099100589752197
1782774449926389500,5.115389404296875,0.06948161125183105,-0.12630653381347656,-0.1106882095336914
1782774449936399400,5.1253994140625,0.17982172966003418,-0.027753829956054688,0.061104774475097656
1782774449946349600,5.135349609375,0.19736599922180176,-0.09455299377441406,0.038810133934020996
1782774449956420400,5.14542041015625,0.17055916786193848,-0.2313985824584961,-0.14930236339569092
1782774449966369300,5.155369384765625,0.11560487747192383,-0.31125354766845703,-0.33066654205322266
1782774449976499500,5.16549951171875,0.04483675956726074,-0.29091835021972656,-0.3630424737930298
1782774449986417700,5.175417724609375,-0.07642412185668945,-0.23263263702392578,-0.18672871589660645
1782774449996396800,5.185396728515625,-0.20706582069396973,-0.1100006103515625,0.06293320655822754
1782774450006406700,5.19540673828125,-0.2861325740814209,0.031661033630371094,0.3276054859161377
1782774450016416300,5.205416259765625,-0.34163737297058105,0.09915351867675781,0.3413459062576294
1782774450026395600,5.215395751953125,-0.3048362731933594,-0.02966594696044922,0.05312669277191162
1782774450036405500,5.225405517578125,-0.21316266059875488,-0.10065460205078125,-0.1629166603088379
1782774450046415000,5.2354150390625,-0.07677412033081055,-0.10850334167480469,-0.19179761409759521
1782774450056394500,5.24539453125,0.15056109428405762,-0.18010234832763672,-0.20740234851837158
1782774450066404400,5.255404296875,0.3152964115142822,-0.21070289611816406,-0.08303070068359375
1782774450076414000,5.2654140625,0.320467472076416,-0.16467571258544922,0.1257230043411255
1782774450086393000,5.27539306640625,0.277371883392334,-0.08562564849853516,0.18289852142333984
1782774450096403000,5.28540283203125,0.15390515327453613,-0.02190685272216797,0.23486053943634033
1782774450106412500,5.29541259765625,-0.09250020980834961,0.004767417907714844,0.34393107891082764
1782774450116392000,5.305391845703125,-0.3241114616394043,0.02582550048828125,0.34758150577545166
1782774450126401800,5.31540185546875,-0.4165489673614502,0.0059814453125,0.22038888931274414
1782774450136411400,5.325411376953125,-0.4342172145843506,-0.10938549041748047,-0.014812946319580078
1782774450146390800,5.335390869140625,-0.3288753032684326,-0.25025272369384766,-0.15687143802642822
1782774450156400600,5.345400634765625,-0.1513521671295166,-0.31320858001708984,-0.18629074096679688
1782774450166410500,5.355410400390625,0.07735896110534668,-0.3269481658935547,-0.1116180419921875
1782774450176389600,5.3653896484375,0.26352691650390625,-0.3542947769165039,0.05499601364135742
1782774450186399200,5.375399169921875,0.4010961055755615,-0.37632274627685547,0.1931133270263672
1782774450196408800,5.385408935546875,0.4341449737548828,-0.35509586334228516,0.29738545417785645
1782774450206418700,5.395418701171875,0.19577503204345703,-0.31572818756103516,0.2880932092666626
1782774450216398000,5.405398193359375,-0.08906817436218262,-0.31916141510009766,0.11535358428955078
1782774450226408000,5.415407958984375,-0.30918073654174805,-0.3339567184448242,-0.014365673065185547
1782774450236417500,5.42541748046875,-0.4961221218109131,-0.3256196975708008,-0.13543593883514404
1782774450246397000,5.43539697265625,-0.519207239151001,-0.3288707733154297,-0.23715674877166748
1782774450256406800,5.44540673828125,-0.40366530418395996,-0.2880716323852539,-0.19161748886108398
1782774450266416400,5.45541650390625,-0.36059021949768066,-0.2532539367675781,0.009860992431640625
1782774450276395800,5.465395751953125,-0.32436347007751465,-0.15763282775878906,0.1850583553314209
1782774450286405400,5.4754052734375,-0.22467875480651855,-0.08300590515136719,0.2463550567626953
1782774450296415200,5.485415283203125,-0.18339276313781738,-0.15416336059570312,0.11383414268493652
1782774450306394600,5.49539453125,-0.1218411922454834,-0.20367813110351562,-0.033570289611816406
1782774450316404200,5.505404296875,-0.035828590393066406,-0.18104171752929688,-0.11963343620300293
1782774450326413800,5.515413818359375,0.05498099327087402,-0.2702951431274414,-0.28905999660491943
1782774450336393200,5.525393310546875,0.1597144603729248,-0.37617969512939453,-0.4058030843734741
1782774450346403000,5.535403076171875,0.27477216720581055,-0.2642040252685547,-0.25093984603881836
1782774450356412700,5.54541259765625,0.2721428871154785,-0.16205215454101562,0.023737072944641113
1782774450366392000,5.55539208984375,0.19408416748046875,-0.06314277648925781,0.17736434936523438
1782774450376402000,5.56540185546875,0.06749176979064941,-0.003787994384765625,0.19238674640655518
1782774450386411500,5.57541162109375,-0.1491703987121582,-0.04142189025878906,0.05346882343292236
1782774450396391000,5.585390869140625,-0.33348655700683594,-0.03904438018798828,-0.15981531143188477
1782774450406400500,5.595400390625,-0.38495874404907227,-0.08925628662109375,-0.3640553951263428
1782774450416410400,5.605410400390625,-0.3317549228668213,-0.18907546997070312,-0.43992650508880615
1782774450426389500,5.615389404296875,-0.18654155731201172,-0.15855789184570312,-0.3455507755279541
1782774450436399400,5.6253994140625,0.06719374656677246,-0.10280323028564453,-0.24007344245910645
1782774450446409000,5.635408935546875,0.2800107002258301,-0.0076274871826171875,0.06421208381652832
1782774450456418800,5.645418701171875,0.3780832290649414,0.07100772857666016,0.2566312551498413
1782774450466398200,5.655398193359375,0.3869795799255371,0.07231807708740234,0.15577948093414307
1782774450476408000,5.665407958984375,0.27161550521850586,0.04124259948730469,-0.006523609161376953
1782774450486417700,5.675417724609375,0.12030339241027832,-0.0028171539306640625,-0.149932861328125
1782774450496396800,5.685396728515625,-0.01273036003112793,0.007502555847167969,-0.2630122900009155
1782774450506406700,5.69540673828125,-0.1336209774017334,-0.08526039123535156,-0.30370616912841797
1782774450516416300,5.705416259765625,-0.14789056777954102,-0.17053794860839844,-0.3322643041610718
1782774450526395600,5.715395751953125,-0.025803089141845703,-0.22634315490722656,-0.3106132745742798
1782774450536405500,5.725405517578125,0.056233882904052734,-0.16888141632080078,-0.09416401386260986
1782774450546415000,5.7354150390625,0.0164034366607666,-0.14938735961914062,0.057352304458618164
1782774450556334800,5.7453349609375,-0.07402205467224121,-0.10152149200439453,0.24075603485107422
1782774450566465300,5.75546533203125,-0.14559197425842285,-0.09499263763427734,0.2352064847946167
1782774450576414000,5.7654140625,-0.2261056900024414,-0.12004852294921875,0.02797865867614746
1782774450586393300,5.775393310546875,-0.17601609230041504,-0.16428756713867188,-0.16501832008361816
1782774450596403000,5.78540283203125,-0.13500332832336426,-0.23208045959472656,-0.2827141284942627
1782774450606412800,5.795412841796875,-0.08606529235839844,-0.27311229705810547,-0.3377794027328491
1782774450616392000,5.805391845703125,0.03114032745361328,-0.26102638244628906,-0.27624058723449707
1782774450626401800,5.81540185546875,0.10918283462524414,-0.2220754623413086,-0.0657355785369873
1782774450636411600,5.82541162109375,0.12772250175476074,-0.11587047576904297,0.185754656791687
1782774450646390800,5.835390869140625,0.13611364364624023,-0.060393333435058594,0.3074207305908203
1782774450656400600,5.845400634765625,0.022655248641967773,-0.09195518493652344,0.2644047737121582
1782774450666410500,5.855410400390625,-0.14061355590820312,-0.18449783325195312,0.007883548736572266
1782774450676389600,5.8653896484375,-0.24768590927124023,-0.2753734588623047,-0.29142308235168457
1782774450686399200,5.875399169921875,-0.28438448905944824,-0.3372344970703125,-0.39103245735168457
1782774450696409000,5.8854091796875,-0.23223114013671875,-0.3312835693359375,-0.3145308494567871
1782774450706418700,5.895418701171875,-0.07948851585388184,-0.32187652587890625,-0.12568116188049316
1782774450716398000,5.905398193359375,-0.019580364227294922,-0.16547203063964844,0.1680901050567627
1782774450726408000,5.915407958984375,0.029935121536254883,-0.08769035339355469,0.2501649856567383
1782774450736417500,5.92541748046875,0.07902312278747559,-0.017090797424316406,0.2540684938430786
1782774450746397000,5.93539697265625,0.09462547302246094,-0.08324813842773438,0.0707395076751709
1782774450756406800,5.94540673828125,0.09911775588989258,-0.13312911987304688,-0.11100828647613525
1782774450766416400,5.95541650390625,0.14674139022827148,-0.13280105590820312,-0.14151227474212646
1782774450776395800,5.965395751953125,0.186722993850708,-0.08429718017578125,-0.010277271270751953
1782774450786405400,5.9754052734375,0.203413724899292,-0.08360958099365234,0.17906761169433594
1782774450796415200,5.985415283203125,0.05939602851867676,-0.16233158111572266,0.2640256881713867
1782774450806394600,5.99539453125,-0.103515625,-0.20841312408447266,0.18213069438934326
1782774450816404200,6.005404296875,-0.2763528823852539,-0.20505046844482422,0.07550346851348877
1782774450826413800,6.015413818359375,-0.3909871578216553,-0.2043914794921875,0.03418469429016113
1782774450836393200,6.025393310546875,-0.4336674213409424,-0.18215274810791016,0.07382452487945557
1782774450846403000,6.035403076171875,-0.47856688499450684,-0.21015167236328125,0.03624451160430908
1782774450856413000,6.045412841796875,-0.49286508560180664,-0.261962890625,-0.032282352447509766
1782774450866392000,6.05539208984375,-0.4232196807861328,-0.35638999938964844,-0.23850131034851074
1782774450876402000,6.06540185546875,-0.3782634735107422,-0.41176319122314453,-0.33829689025878906
1782774450886411800,6.075411865234375,-0.189192533493042,-0.4227790832519531,-0.3591729402542114
1782774450896391000,6.085390869140625,-0.005666255950927734,-0.3942842483520508,-0.24795925617218018
1782774450906400500,6.095400390625,0.05793452262878418,-0.26955223083496094,0.0065457820892333984
1782774450916410400,6.105410400390625,0.0900423526763916,-0.133056640625,0.25130701065063477
1782774450926389500,6.115389404296875,0.06741166114807129,-0.01884937286376953,0.31377875804901123
1782774450936399400,6.1253994140625,-0.010005474090576172,0.010646820068359375,0.16891443729400635
1782774450946409000,6.135408935546875,-0.08856415748596191,-0.010844230651855469,-0.02391970157623291
1782774450956418800,6.145418701171875,-0.11290144920349121,-0.0969991683959961,-0.274772047996521
1782774450966398200,6.155398193359375,0.0020241737365722656,-0.12526321411132812,-0.3809260129928589
1782774450976408000,6.165407958984375,0.16532182693481445,-0.0738515853881836,-0.26278185844421387
1782774450986417700,6.175417724609375,0.2848522663116455,-0.08659744262695312,-0.1585463285446167
1782774450996396800,6.185396728515625,0.3265204429626465,0.0059223175048828125,0.11393547058105469
1782774451006406700,6.19540673828125,0.27264904975891113,0.12668132781982422,0.33425891399383545
1782774451016416300,6.205416259765625,0.14595985412597656,0.1457500457763672,0.2937566041946411
1782774451026395600,6.215395751953125,-0.044374942779541016,0.0796823501586914,0.11913406848907471
1782774451037371600,6.22637158203125,-0.3307609558105469,-0.0017766952514648438,-0.19394540786743164
1782774451056334800,6.2453349609375,-0.23974227905273438,0.02755451202392578,-0.1246342658996582
1782774451066465300,6.25546533203125,-0.03280019760131836,0.02251720428466797,0.06414532661437988
1782774451076414000,6.2654140625,0.10280323028564453,0.008623123168945312,0.20631444454193115
1782774451086393000,6.27539306640625,0.10180044174194336,-0.08429813385009766,0.1357889175415039
1782774451096403000,6.28540283203125,0.10173892974853516,-0.194488525390625,-0.10552084445953369
1782774451106412500,6.29541259765625,0.039083242416381836,-0.3437919616699219,-0.18020081520080566
1782774451116392000,6.305391845703125,-0.04712700843811035,-0.3357505798339844,-0.08818554878234863
1782774451126401800,6.31540185546875,-0.15635228157043457,-0.21349716186523438,0.15058064460754395
1782774451136411400,6.325411376953125,-0.36324191093444824,-0.1636066436767578,0.26530683040618896
1782774451146390800,6.335390869140625,-0.4656345844268799,-0.2003164291381836,0.18117332458496094
1782774451156400600,6.345400634765625,-0.42986083030700684,-0.26806068420410156,0.08114731311798096
1782774451166410500,6.355410400390625,-0.4139132499694824,-0.28005313873291016,-0.13723289966583252
1782774451176389600,6.3653896484375,-0.4123878479003906,-0.23444271087646484,-0.07629561424255371
1782774451186399200,6.375399169921875,-0.3119320869445801,-0.1688060760498047,0.04177665710449219
1782774451196409000,6.3854091796875,-0.09927654266357422,-0.059009552001953125,0.25367116928100586
1782774451206418700,6.395418701171875,0.08481788635253906,0.0037784576416015625,0.3921278715133667
1782774451216398000,6.405398193359375,0.09827971458435059,-0.05285835266113281,0.4149888753890991
1782774451226408000,6.415407958984375,0.12801480293273926,-0.1312713623046875,0.17695701122283936
1782774451236417500,6.42541748046875,0.1909012794494629,-0.1453542709350586,0.023078322410583496
1782774451246397000,6.43539697265625,0.18491029739379883,-0.17162132263183594,0.013252496719360352
1782774451256406800,6.44540673828125,0.10889053344726562,-0.20546817779541016,0.036234498023986816
1782774451266416400,6.45541650390625,-0.010437726974487305,-0.2302379608154297,0.15906691551208496
1782774451276395800,6.465395751953125,-0.09744930267333984,-0.21458911895751953,0.10682499408721924
1782774451286405400,6.4754052734375,-0.19123458862304688,-0.1799631118774414,0.15799379348754883
1782774451296415200,6.485415283203125,-0.2820255756378174,-0.12384319305419922,0.23239493370056152
1782774451306394600,6.49539453125,-0.36749911308288574,-0.17554950714111328,0.17719292640686035
1782774451316404200,6.505404296875,-0.3269009590148926,-0.23444175720214844,0.013404369354248047
1782774451326413800,6.515413818359375,-0.2601006031036377,-0.29764366149902344,-0.11543059349060059
1782774451336393200,6.525393310546875,-0.20016884803771973,-0.3029041290283203,-0.17183828353881836
1782774451346403000,6.535403076171875,-0.18699264526367188,-0.29337215423583984,-0.17128896713256836
1782774451356412700,6.54541259765625,-0.12653183937072754,-0.29790210723876953,-0.06148040294647217
1782774451366392000,6.55539208984375,-0.013987064361572266,-0.10577583312988281,0.09272217750549316
1782774451376402000,6.56540185546875,0.06756067276000977,0.04096508026123047,0.26522326469421387
1782774451386411500,6.57541162109375,0.13596010208129883,0.2114248275756836,0.46813106536865234
1782774451396391000,6.585390869140625,0.14127159118652344,0.13236045837402344,0.31498074531555176
1782774451406400500,6.595400390625,0.15036654472351074,0.03314018249511719,0.026880383491516113
1782774451416410400,6.605410400390625,0.028656482696533203,-0.1099538803100586,-0.15482378005981445
1782774451426389500,6.615389404296875,-0.1018686294555664,-0.2582359313964844,-0.34965574741363525
1782774451436399400,6.6253994140625,-0.2626056671142578,-0.3397045135498047,-0.4344758987426758
1782774451446409000,6.635408935546875,-0.34656238555908203,-0.40424346923828125,-0.3171120882034302
1782774451456418800,6.645418701171875,-0.3571896553039551,-0.32932186126708984,-0.10621273517608643
1782774451466398200,6.655398193359375,-0.34264612197875977,-0.2035074234008789,0.11476337909698486
1782774451476408000,6.665407958984375,-0.30744504928588867,-0.101287841796875,0.23451614379882812
1782774451486417700,6.675417724609375,-0.19927096366882324,-0.0035715103149414062,0.2708168029785156
1782774451496396800,6.685396728515625,-0.08422088623046875,-0.0682229995727539,0.004889965057373047
1782774451506406700,6.69540673828125,0.020791292190551758,-0.21649551391601562,-0.3793574571609497
1782774451516416300,6.705416259765625,0.20418834686279297,-0.27823829650878906,-0.6432449221611023
1782774451526395600,6.715395751953125,0.3862125873565674,-0.3081951141357422,-0.6605527997016907
1782774451536405500,6.725405517578125,0.5310711860656738,-0.27257442474365234,-0.4570913314819336
1782774451546415000,6.7354150390625,0.5718486309051514,-0.16196441650390625,-0.11997854709625244
1782774451556394500,6.74539453125,0.4660778045654297,-0.10394859313964844,0.1128469705581665
1782774451566404400,6.755404296875,0.28342676162719727,-0.018100738525390625,0.22857260704040527
1782774451576414000,6.7654140625,0.08226156234741211,0.023275375366210938,0.20703601837158203
1782774451586393000,6.77539306640625,-0.07593035697937012,0.019878387451171875,0.09226703643798828
1782774451596403000,6.78540283203125,-0.14753103256225586,-0.07970809936523438,-0.1162337064743042
1782774451606412500,6.79541259765625,-0.07848143577575684,-0.15002727508544922,-0.2749166488647461
1782774451616392000,6.805391845703125,0.11976242065429688,-0.2455434799194336,-0.3842802047729492
1782774451626401800,6.81540185546875,0.3085615634918213,-0.3375225067138672,-0.40878772735595703
1782774451636411400,6.825411376953125,0.43761634826660156,-0.3498191833496094,-0.3208746910095215
1782774451646390800,6.835390869140625,0.3672492504119873,-0.2951946258544922,-0.12987041473388672
1782774451656400600,6.845400634765625,0.23945999145507812,-0.18407535552978516,0.020297884941101074
1782774451666410500,6.855410400390625,0.0031278133392333984,-0.10323810577392578,0.08504796028137207
1782774451676389600,6.8653896484375,-0.28124046325683594,-0.13144302368164062,-0.03214311599731445
1782774451686399200,6.875399169921875,-0.46683526039123535,-0.1743183135986328,-0.15077292919158936
1782774451696409000,6.8854091796875,-0.5016953945159912,-0.22368335723876953,-0.17118310928344727
1782774451706418700,6.895418701171875,-0.45050668716430664,-0.27710723876953125,-0.21565818786621094
1782774451716398000,6.905398193359375,-0.219557523727417,-0.20536518096923828,-0.224595308303833
1782774451726408000,6.915407958984375,-0.022356033325195312,-0.16616153717041016,-0.11551296710968018
1782774451736417500,6.92541748046875,0.017360925674438477,-0.19093704223632812,-0.043312907218933105
1782774451746397000,6.93539697265625,0.0754237174987793,-0.1197052001953125,-0.03580498695373535
1782774451756406800,6.94540673828125,0.10936760902404785,-0.03157997131347656,0.10762512683868408
1782774451766416400,6.95541650390625,0.01799774169921875,0.022670745849609375,0.2672281265258789
1782774451776395800,6.965395751953125,-0.034786224365234375,0.009085655212402344,0.22604620456695557
1782774451786405400,6.9754052734375,-0.11530518531799316,-0.08400535583496094,0.04268217086791992
1782774451796415200,6.985415283203125,-0.10343265533447266,-0.18195247650146484,-0.21013343334197998
1782774451806394600,6.99539453125,-0.016179561614990234,-0.18869781494140625,-0.28967905044555664
1782774451816404200,7.005404296875,0.013769865036010742,-0.14980125427246094,-0.13830459117889404
1782774451826413800,7.015413818359375,-0.021763324737548828,-0.05118274688720703,0.06122159957885742
1782774451836393200,7.025393310546875,-0.044013023376464844,0.05206584930419922,0.2329195737838745
1782774451846403000,7.035403076171875,-0.08420991897583008,-0.012575149536132812,0.24626195430755615
1782774451856412700,7.04541259765625,-0.12095046043395996,-0.09441280364990234,0.14084935188293457
1782774451866392000,7.05539208984375,-0.1528003215789795,-0.15256023406982422,-0.027654170989990234
1782774451876402000,7.06540185546875,-0.17728900909423828,-0.22524452209472656,-0.14507365226745605
1782774451886411500,7.07541162109375,-0.27710604667663574,-0.27666282653808594,-0.11938357353210449
1782774451896391000,7.085390869140625,-0.30687856674194336,-0.28978443145751953,-0.17620670795440674
1782774451906400500,7.095400390625,-0.27782297134399414,-0.25941944122314453,-0.10205686092376709
1782774451916410400,7.105410400390625,-0.18404412269592285,-0.2425527572631836,0.05681812763214111
1782774451926389500,7.115389404296875,-0.08745336532592773,-0.1961679458618164,0.2213040590286255
1782774451936399400,7.1253994140625,-0.06279206275939941,-0.17593765258789062,0.2362765073776245
1782774451946409000,7.135408935546875,-0.18471050262451172,-0.24256134033203125,0.01759815216064453
1782774451956418800,7.145418701171875,-0.25455355644226074,-0.30760765075683594,-0.2707897424697876
1782774451966398200,7.155398193359375,-0.22181200981140137,-0.26015758514404297,-0.24700605869293213
1782774451976408000,7.165407958984375,-0.12150430679321289,-0.17600440979003906,-0.06940770149230957
1782774451986417700,7.175417724609375,-0.0444180965423584,-0.09828567504882812,0.13503873348236084
1782774451996396800,7.185396728515625,0.04155611991882324,-0.05370140075683594,0.22569072246551514
1782774452006406700,7.19540673828125,0.13497328758239746,-0.018955230712890625,0.22906124591827393
1782774452016416300,7.205416259765625,0.09716296195983887,-0.08755111694335938,0.037888169288635254
1782774452026395600,7.215395751953125,0.04832768440246582,-0.1495809555053711,-0.19879114627838135
1782774452036405500,7.225405517578125,-0.05700254440307617,-0.24541378021240234,-0.2941516637802124
1782774452046415000,7.2354150390625,-0.13585901260375977,-0.25982666015625,-0.2893286943435669
1782774452056394500,7.24539453125,-0.1793656349182129,-0.18766212463378906,-0.1687302589416504
1782774452066404400,7.255404296875,-0.1991884708404541,-0.07445526123046875,0.017096519470214844
1782774452076414000,7.2654140625,-0.190108060836792,0.024585723876953125,0.21802520751953125
1782774452086393000,7.27539306640625,-0.1385796070098877,0.11904335021972656,0.31586551666259766
1782774452096403000,7.28540283203125,-0.07659912109375,0.11809158325195312,0.4046441316604614
1782774452106412500,7.29541259765625,-0.028018951416015625,0.047898292541503906,0.2387152910232544
1782774452116392000,7.305391845703125,0.08901238441467285,-0.039307594299316406,-0.03857529163360596
1782774452126401800,7.31540185546875,0.12218666076660156,-0.122039794921875,-0.20347464084625244
1782774452136411400,7.325411376953125,0.034040212631225586,-0.22891521453857422,-0.2871142625808716
1782774452146390800,7.335390869140625,0.0731966495513916,-0.17058372497558594,-0.12256932258605957
1782774452156400600,7.345400634765625,0.102203369140625,-0.17176151275634766,-0.07655036449432373
1782774452166410500,7.355410400390625,0.033621788024902344,-0.12513065338134766,0.10774564743041992
1782774452176389600,7.3653896484375,0.01904439926147461,-0.07638835906982422,0.1932131052017212
1782774452186399200,7.375399169921875,-0.02802896499633789,-0.1597442626953125,0.09276020526885986
1782774452196409000,7.3854091796875,0.012618541717529297,-0.24550151824951172,0.003611445426940918
1782774452206418700,7.395418701171875,0.7765724658966064,-0.30578041076660156,0.19547653198242188
1782774452216398000,7.405398193359375,0.41005921363830566,-0.3612642288208008,-0.17453455924987793
1782774452226408000,7.415407958984375,0.13982510566711426,-0.13568401336669922,-0.43566280603408813
1782774452236417500,7.42541748046875,-0.26096677780151367,-0.0964651107788086,-0.021643996238708496
1782774452246397000,7.43539697265625,-0.43056344985961914,-0.17890071868896484,0.004259586334228516
1782774452256406800,7.44540673828125,-0.45760631561279297,-0.16407012939453125,-0.18124663829803467
1782774452266416400,7.45541650390625,-0.5043342113494873,-0.15906143188476562,-0.15327656269073486
1782774452276395800,7.465395751953125,-0.5669188499450684,-0.08499622344970703,-0.062410831451416016
1782774452286405400,7.4754052734375,-0.6497983932495117,0.11546707153320312,0.30446600914001465
1782774452296415200,7.485415283203125,-0.662764310836792,0.19598007202148438,0.4777848720550537
1782774452306394600,7.49539453125,-0.46276426315307617,0.1420135498046875,0.4407052993774414
1782774452316404200,7.505404296875,-0.28812241554260254,0.022603988647460938,0.30892086029052734
1782774452326413800,7.515413818359375,-0.17778468132019043,-0.1993722915649414,0.04938948154449463
1782774452336393200,7.525393310546875,-0.007776498794555664,-0.2921743392944336,-0.12735247611999512
1782774452346403000,7.535403076171875,-0.05557513236999512,-0.3904895782470703,-0.4089930057525635
