time,seconds_elapsed,z,y,x
1782774929386491600,0.17249169921875,0.018325956538319588,-0.05192354694008827,0.25473082065582275
1782774929396449500,0.182449462890625,0.06841690838336945,-0.029932396486401558,0.34208452701568604
1782774929406482700,0.192482666015625,0.13988813757896423,0.015271631069481373,0.4331034719944
1782774929416469200,0.20246923828125,0.24617868661880493,0.08857546001672745,0.5467243790626526
1782774929426472000,0.212471923828125,0.3628539443016052,0.18631389737129211,0.7006624341011047
1782774929436458000,0.2224580078125,0.3384193480014801,0.12095131725072861,0.8283332586288452
1782774929446488600,0.232488525390625,0.22663100063800812,-0.01038470957428217,0.8692612648010254
1782774929456447000,0.242447021484375,0.0861319974064827,-0.0959058403968811,0.7782423496246338
1782774929466477600,0.2524775390625,-0.00733038317412138,-0.05497787147760391,0.5858197808265686
1782774929476466700,0.262466796875,-0.08429940044879913,0.06719517707824707,0.3597996234893799
1782774929486497500,0.27249755859375,-0.10262536257505417,0.10690141469240189,0.15515977144241333
1782774929496455700,0.28245556640625,-0.06291911751031876,0.07024950534105301,-0.0555887371301651
1782774929506486800,0.29248681640625,-0.04948008432984352,0.06352998316287994,-0.17959438264369965
1782774929516475400,0.302475341796875,-0.059864792972803116,0.0354301854968071,-0.2590068578720093
1782774929526475800,0.312475830078125,-0.07208210229873657,0.01038470957428217,-0.30482175946235657
1782774929536464100,0.322464111328125,-0.07941248267889023,0.015882495790719986,-0.3170390725135803
1782774929546495500,0.33249560546875,-0.07330382615327835,0.019547687843441963,-0.31520646810531616
1782774929556453000,0.342453125,-0.06108652427792549,0.0024434609804302454,-0.29504790902137756
1782774929566484500,0.352484375,-0.06719517707824707,-0.03420845419168472,-0.2583959996700287
1782774929576472600,0.36247265625,-0.07941248267889023,-0.059864792972803116,-0.2217440903186798
1782774929586473200,0.37247314453125,-0.08429940044879913,-0.02382374368607998,-0.18325957655906677
1782774929596461800,0.3824619140625,-0.08918632566928864,0.018936822190880775,-0.1368338167667389
1782774929606493000,0.392492919921875,-0.08002334833145142,0.02076941914856434,-0.08368854224681854
1782774929616450800,0.402450927734375,-0.06902777403593063,0.003054326167330146,-0.013439035043120384
1782774929626482200,0.412482177734375,-0.07208210229873657,-0.029932396486401558,0.039706241339445114
1782774929636470300,0.42247021484375,-0.07452555745840073,-0.03787364438176155,0.056810468435287476
1782774929646471200,0.43247119140625,-0.06658431142568588,-0.025045474991202354,0.0403171069920063
1782774929656459300,0.442459228515625,-0.05192354694008827,-0.01771509274840355,0.0024434609804302454
1782774929666490600,0.45249072265625,-0.03726277872920036,-0.015271631069481373,-0.039095375686883926
1782774929676448300,0.4624482421875,-0.024434609338641167,-0.0006108652451075613,-0.0757472887635231
1782774929686479600,0.472479736328125,-0.02076941914856434,0.013439035043120384,-0.10384709388017654
1782774929696468000,0.482468017578125,-0.018325956538319588,0.029932396486401558,-0.11789698898792267
1782774929706468600,0.492468505859375,-0.025656340643763542,0.02321287989616394,-0.13011430203914642
1782774929716457000,0.50245703125,-0.04459316283464432,0.003054326167330146,-0.12461651116609573
1782774929726488300,0.51248828125,-0.06291911751031876,-0.00366519158706069,-0.10323622822761536
1782774929736476400,0.522476318359375,-0.06352998316287994,0.012828170321881771,-0.08246681094169617
1782774929746477000,0.53247705078125,-0.048258353024721146,0.022602014243602753,-0.06536258012056351
1782774929756465400,0.54246533203125,-0.02076941914856434,0.021380282938480377,-0.04581489413976669
1782774929766496500,0.55249658203125,-0.0006108652451075613,0.00855211354792118,-0.02321287989616394
1782774929776454400,0.562454345703125,-0.013439035043120384,-0.00855211354792118,-0.042760565876960754
1782774929786485500,0.572485595703125,-0.025656340643763542,-0.0006108652451075613,-0.09651670604944229
1782774929796474000,0.58247412109375,-0.03848451003432274,0.05009094998240471,-0.13500121235847473
1782774929806474800,0.592474853515625,-0.06169738993048668,0.07024950534105301,-0.14049901068210602
1782774929816462000,0.602462158203125,-0.08552113175392151,0.05192354694008827,-0.11728613078594208
1782774929826493400,0.612493408203125,-0.09224065393209457,0.03420845419168472,-0.0861319974064827
1782774929836451300,0.622451416015625,-0.06963863968849182,0.0354301854968071,-0.07024950534105301
1782774929846482700,0.632482666015625,-0.0354301854968071,0.04703662544488907,-0.06902777403593063
1782774929856471000,0.642470947265625,-0.01038470957428217,0.06291911751031876,-0.07757988572120667
1782774929866471700,0.6524716796875,-0.013439035043120384,0.09346238523721695,-0.09834930300712585
1782774929876460000,0.6624599609375,-0.03726277872920036,0.12339477986097336,-0.11972958594560623
1782774929886491100,0.6724912109375,-0.05009094998240471,0.14294247329235077,-0.1417207419872284
1782774929896449000,0.682448974609375,-0.05192354694008827,0.1362229436635971,-0.16249015927314758
1782774929906480000,0.692480224609375,-0.04642575979232788,0.11728613078594208,-0.17959438264369965
1782774929916469200,0.70246923828125,-0.03726277872920036,0.09162978827953339,-0.19364428520202637
1782774929926470000,0.712469970703125,-0.03481931984424591,0.06291911751031876,-0.2028072625398636
1782774929936458000,0.7224580078125,-0.02687807008624077,0.04886921867728233,-0.20891591906547546
1782774929946489000,0.732489013671875,-0.014049900695681572,0.05009094998240471,-0.20891591906547546
1782774929956447000,0.742447021484375,-0.003054326167330146,0.06169738993048668,-0.2125810980796814
1782774929966478000,0.75247802734375,0.00366519158706069,0.07819075137376785,-0.2064724564552307
1782774929976466700,0.762466796875,-0.018936822190880775,0.10018189996480942,-0.2015855312347412
1782774929986497800,0.772497802734375,-0.06108652427792549,0.10995574295520782,-0.192422553896904
1782774929996455700,0.78245556640625,-0.09285151958465576,0.1270599663257599,-0.17287486791610718
1782774930006486800,0.79248681640625,-0.0959058403968811,0.1313360333442688,-0.1569923609495163
1782774930016475400,0.802475341796875,-0.06414084881544113,0.15821409225463867,-0.13866640627384186
1782774930026475800,0.812475830078125,-0.018325956538319588,0.16310101747512817,-0.11667526513338089
1782774930036464400,0.82246435546875,0.016493361443281174,0.15332718193531036,-0.0861319974064827
1782774930046495500,0.83249560546875,0.04153883829712868,0.10934487730264664,-0.05009094998240471
1782774930056453000,0.842453125,0.04092797264456749,0.08552113175392151,-0.014049900695681572
1782774930066484200,0.852484130859375,0.02076941914856434,0.06230825558304787,0.005497787147760391
1782774930076472600,0.86247265625,0.009773843921720982,0.06108652427792549,0
1782774930086473200,0.87247314453125,0.016493361443281174,0.08796459436416626,-0.012828170321881771
1782774930096461800,0.8824619140625,0.022602014243602753,0.10445795953273773,-0.030543262138962746
1782774930106493000,0.892492919921875,0.016493361443281174,0.09407325088977814,-0.059864792972803116
1782774930116450800,0.902450927734375,0.013439035043120384,0.08307767659425735,-0.0910189226269722
1782774930126482200,0.912482177734375,0.024434609338641167,0.08674286305904388,-0.11667526513338089
1782774930136470000,0.922469970703125,0.03420845419168472,0.08979719132184982,-0.13561208546161652
1782774930146471200,0.93247119140625,0.0403171069920063,0.08796459436416626,-0.1472185254096985
1782774930156459300,0.942459228515625,0.04092797264456749,0.08674286305904388,-0.14416420459747314
1782774930166490600,0.95249072265625,0.04948008432984352,0.08124507963657379,-0.14049901068210602
1782774930176448300,0.9624482421875,0.04092797264456749,0.08124507963657379,-0.12400564551353455
1782774930186479400,0.972479248046875,0.021991148591041565,0.05375614017248154,-0.11667526513338089
1782774930196468000,0.982468017578125,0.030543262138962746,0.02687807008624077,-0.11545353382825851
1782774930206468600,0.992468505859375,0.04337143152952194,-0.004886921960860491,-0.11728613078594208
1782774930216457000,1.00245703125,0.05864306539297104,-0.027488935738801956,-0.11545353382825851
1782774930226488000,1.012488037109375,0.04337143152952194,-0.05497787147760391,-0.10567969083786011
1782774930236476400,1.022476318359375,0.012217304669320583,-0.08674286305904388,-0.09224065393209457
1782774930246476800,1.032476806640625,-0.01710422709584236,-0.06963863968849182,-0.07880161702632904
1782774930256465400,1.04246533203125,-0.045204028487205505,-0.03420845419168472,-0.07391469180583954
1782774930266496500,1.05249658203125,-0.0555887371301651,0.007941247895359993,-0.06841690838336945
1782774930276454400,1.062454345703125,-0.03481931984424591,0.02687807008624077,-0.04764748737215996
1782774930286485800,1.07248583984375,0.005497787147760391,0.01038470957428217,-0.009162978269159794
1782774930296473900,1.082473876953125,0.0354301854968071,-0.01466076634824276,0.036041051149368286
1782774930306474500,1.092474609375,0.05009094998240471,-0.019547687843441963,0.07452555745840073
1782774930316463000,1.102463134765625,0.05009094998240471,-0.004886921960860491,0.09834930300712585
1782774930326494000,1.112493896484375,0.042760565876960754,0.005497787147760391,0.10751228034496307
1782774930336452000,1.1224521484375,0.031154127791523933,0.010995574295520782,0.10567969083786011
1782774930346483200,1.132483154296875,0.007941247895359993,0.006108652334660292,0.08002334833145142
1782774930356471600,1.142471435546875,-0.004886921960860491,0.003054326167330146,0.03176499158143997
1782774930366472000,1.152471923828125,-0.003054326167330146,0.02626720629632473,-0.01038470957428217
1782774930376460500,1.16246044921875,-0.003054326167330146,0.033597588539123535,-0.036651913076639175
1782774930386491600,1.17249169921875,-0.003054326167330146,0.025656340643763542,-0.04703662544488907
1782774930396449500,1.182449462890625,0.012217304669320583,0.03298672288656235,-0.03726277872920036
1782774930406481000,1.19248095703125,0.024434609338641167,0.03176499158143997,-0.015271631069481373
1782774930416469200,1.20246923828125,0.03848451003432274,0.021991148591041565,0.016493361443281174
1782774930426469600,1.2124697265625,0.04337143152952194,0.02871066704392433,0.05619960278272629
1782774930436458200,1.222458251953125,0.02626720629632473,0.012828170321881771,0.08002334833145142
1782774930446489000,1.232489013671875,0.016493361443281174,-0.001832595793530345,0.07696902006864548
1782774930456447000,1.242447021484375,0.02321287989616394,0.02321287989616394,0.05619960278272629
1782774930466478300,1.252478271484375,0.029932396486401558,0.03420845419168472,0.03176499158143997
1782774930476466700,1.262466796875,0.027488935738801956,0.02015855349600315,0.015882495790719986
1782774930486497800,1.272497802734375,0.02321287989616394,0.003054326167330146,0.009162978269159794
1782774930496455700,1.28245556640625,0.02626720629632473,-0.006719517521560192,0.005497787147760391
1782774930506486800,1.29248681640625,0.036651913076639175,-0.015271631069481373,0.009162978269159794
1782774930516475400,1.302475341796875,0.04337143152952194,-0.015882495790719986,0.018325956538319588
1782774930526476000,1.31247607421875,0.04398229718208313,-0.02076941914856434,0.021991148591041565
1782774930536464100,1.322464111328125,0.04642575979232788,-0.012217304669320583,0.02321287989616394
1782774930546495500,1.33249560546875,0.05253441259264946,-0.0012217304902151227,0.030543262138962746
1782774930556453000,1.342453125,0.05803219974040985,-0.006108652334660292,0.045204028487205505
1782774930566486800,1.35248681640625,0.07391469180583954,-0.018936822190880775,0.07147123664617538
1782774930576472600,1.36247265625,0.08918632566928864,-0.021380282938480377,0.10323622822761536
1782774930586473700,1.3724736328125,0.07941248267889023,-0.02076941914856434,0.13439035415649414
1782774930596461800,1.3824619140625,0.05314527451992035,-0.030543262138962746,0.15027284622192383
1782774930606493000,1.392492919921875,0.024434609338641167,-0.02687807008624077,0.15515977144241333
1782774930616450800,1.402450927734375,0.006108652334660292,-0.01710422709584236,0.10567969083786011
1782774930626482000,1.41248193359375,0.015271631069481373,-0.006719517521560192,0.0555887371301651
1782774930636500500,1.42250048828125,0.029932396486401558,0,0.00366519158706069
1782774930646471000,1.432470947265625,0.042760565876960754,0.00855211354792118,-0.033597588539123535
1782774930656459300,1.442459228515625,0.04948008432984352,0.02015855349600315,-0.04214970022439957
1782774930666490400,1.452490478515625,0.04214970022439957,0.013439035043120384,-0.01710422709584236
1782774930676448300,1.4624482421875,0.025045474991202354,-0.00366519158706069,0.018325956538319588
1782774930686479400,1.472479248046875,0.02076941914856434,-0.005497787147760391,0.0403171069920063
1782774930696468000,1.482468017578125,0.036651913076639175,0.00733038317412138,0.036651913076639175
1782774930706468600,1.492468505859375,0.05192354694008827,0.022602014243602753,0.02687807008624077
1782774930716456700,1.502456787109375,0.06352998316287994,0.031154127791523933,0.015271631069481373
1782774930726488300,1.51248828125,0.06719517707824707,0.0403171069920063,0.006719517521560192
1782774930736476400,1.522476318359375,0.06658431142568588,0.04703662544488907,0.00366519158706069
1782774930746477600,1.5324775390625,0.06291911751031876,0.04398229718208313,0.00427605677396059
1782774930756465400,1.54246533203125,0.06108652427792549,0.03848451003432274,0.004886921960860491
1782774930766497000,1.5524970703125,0.05864306539297104,0.04092797264456749,0.001832595793530345
1782774930776454400,1.562454345703125,0.05375614017248154,0.04398229718208313,-0.004886921960860491
1782774930786485500,1.572485595703125,0.04459316283464432,0.04581489413976669,-0.006719517521560192
1782774930796473900,1.582473876953125,0.031154127791523933,0.031154127791523933,-0.01466076634824276
1782774930806474800,1.592474853515625,0.025045474991202354,0.02871066704392433,-0.028099801391363144
1782774930816462000,1.602462158203125,0.018936822190880775,0.04092797264456749,-0.030543262138962746
1782774930826493700,1.61249365234375,0.00855211354792118,0.036041051149368286,-0.02321287989616394
1782774930836451600,1.62245166015625,0.0012217304902151227,0.033597588539123535,-0.004886921960860491
1782774930846482700,1.632482666015625,0.004886921960860491,0.03237585723400116,0.013439035043120384
1782774930856471000,1.642470947265625,0.012217304669320583,0.016493361443281174,0.03176499158143997
1782774930866471700,1.6524716796875,0.00855211354792118,0.003054326167330146,0.051312681287527084
1782774930876460000,1.6624599609375,0.006719517521560192,-0.0006108652451075613,0.05925392732024193
1782774930886491100,1.6724912109375,0.013439035043120384,0.004886921960860491,0.06291911751031876
1782774930896449000,1.682448974609375,0.015882495790719986,0.013439035043120384,0.0757472887635231
1782774930906480000,1.692480224609375,0.01710422709584236,0.0024434609804302454,0.08491026610136032
1782774930916469200,1.70246923828125,0.01038470957428217,-0.005497787147760391,0.10018189996480942
1782774930926469600,1.7124697265625,-0.00427605677396059,-0.01038470957428217,0.10812314599752426
1782774930936458000,1.7224580078125,-0.016493361443281174,-0.012828170321881771,0.10262536257505417
1782774930946489300,1.7324892578125,-0.013439035043120384,-0.005497787147760391,0.09162978827953339
1782774930956447000,1.742447021484375,-0.00855211354792118,0.0024434609804302454,0.08979719132184982
1782774930966478000,1.75247802734375,-0.015882495790719986,-0.004886921960860491,0.0910189226269722
1782774930976466700,1.762466796875,-0.019547687843441963,-0.012828170321881771,0.08735372871160507
1782774930986497800,1.772497802734375,-0.018325956538319588,0.0024434609804302454,0.07941248267889023
1782774930996455700,1.78245556640625,-0.02321287989616394,0.012217304669320583,0.06963863968849182
1782774931006487000,1.792487060546875,-0.028099801391363144,0.02321287989616394,0.06352998316287994
1782774931016475400,1.802475341796875,-0.02321287989616394,0.021991148591041565,0.06108652427792549
1782774931026475800,1.812475830078125,-0.01466076634824276,0.009773843921720982,0.06108652427792549
1782774931036464000,1.822464111328125,-0.006719517521560192,0.01466076634824276,0.04581489413976669
1782774931046495500,1.83249560546875,-0.005497787147760391,0.012217304669320583,0.019547687843441963
1782774931056453000,1.842453125,0.0006108652451075613,0.021991148591041565,-0.00366519158706069
1782774931066484500,1.852484375,0.004886921960860491,0.014049900695681572,-0.019547687843441963
1782774931076472800,1.862472900390625,0.012828170321881771,0.013439035043120384,-0.02687807008624077
1782774931086473500,1.872473388671875,0.02687807008624077,0.014049900695681572,-0.025045474991202354
1782774931096461800,1.8824619140625,0.0354301854968071,0.0012217304902151227,-0.015271631069481373
1782774931106493000,1.892492919921875,0.03176499158143997,-0.015271631069481373,0.0012217304902151227
1782774931116450800,1.902450927734375,0.006108652334660292,-0.02687807008624077,0.012217304669320583
1782774931126482200,1.912482177734375,-0.019547687843441963,-0.018936822190880775,0.00855211354792118
1782774931136470300,1.92247021484375,-0.024434609338641167,0.0006108652451075613,-0.01710422709584236
1782774931146471000,1.932470947265625,-0.009773843921720982,0.03298672288656235,-0.04764748737215996
1782774931156459300,1.942459228515625,0.01160643994808197,0.048258353024721146,-0.06475171446800232
1782774931166490400,1.952490478515625,0.028099801391363144,0.05253441259264946,-0.05192354694008827
1782774931176448300,1.9624482421875,0.03848451003432274,0.03848451003432274,-0.009162978269159794
1782774931186479600,1.972479736328125,0.03726277872920036,0.016493361443281174,0.0507018156349659
1782774931196468000,1.982468017578125,0.022602014243602753,-0.006719517521560192,0.10873401165008545
1782774931206468600,1.992468505859375,0.0006108652451075613,-0.015271631069481373,0.14355333149433136
1782774931216457000,2.00245703125,-0.009162978269159794,-0.007941247895359993,0.13988813757896423
1782774931226488000,2.012488037109375,-0.001832595793530345,0.02015855349600315,0.10751228034496307
1782774931236476400,2.022476318359375,0.013439035043120384,0.04764748737215996,0.06108652427792549
1782774931246477300,2.032477294921875,0.025656340643763542,0.06658431142568588,0.021991148591041565
1782774931256465400,2.04246533203125,0.02871066704392433,0.07330382615327835,0.00733038317412138
1782774931266496500,2.05249658203125,0.02015855349600315,0.0555887371301651,0.015882495790719986
1782774931276454400,2.062454345703125,0.00733038317412138,0.02321287989616394,0.039706241339445114
1782774931286485200,2.0724853515625,0.005497787147760391,0,0.05925392732024193
1782774931296473900,2.082473876953125,0.006108652334660292,-0.009162978269159794,0.06352998316287994
1782774931306474500,2.092474609375,0.003054326167330146,-0.005497787147760391,0.04581489413976669
1782774931316463000,2.102463134765625,0.01160643994808197,0.014049900695681572,0.010995574295520782
1782774931326494200,2.112494140625,0.01771509274840355,0.036041051149368286,-0.02626720629632473
1782774931336452000,2.1224521484375,0.01038470957428217,0.04092797264456749,-0.0507018156349659
1782774931346483000,2.13248291015625,-0.003054326167330146,0.04153883829712868,-0.059864792972803116
1782774931356471300,2.14247119140625,-0.012217304669320583,0.039095375686883926,-0.04764748737215996
1782774931366472200,2.15247216796875,-0.015271631069481373,0.025656340643763542,-0.02015855349600315
1782774931376460500,2.16246044921875,-0.015271631069481373,0.004886921960860491,0.00855211354792118
1782774931386491600,2.17249169921875,-0.00733038317412138,-0.007941247895359993,0.027488935738801956
1782774931396449500,2.182449462890625,-0.00366519158706069,-0.016493361443281174,0.028099801391363144
1782774931406481000,2.19248095703125,0.0012217304902151227,-0.016493361443281174,0.01160643994808197
1782774931416469200,2.20246923828125,0.00427605677396059,0.0012217304902151227,-0.00733038317412138
1782774931426470000,2.212469970703125,0.004886921960860491,0.012217304669320583,-0.02321287989616394
1782774931436458000,2.2224580078125,0.01160643994808197,0.018325956538319588,-0.03298672288656235
1782774931446489000,2.232489013671875,0.02687807008624077,0.01710422709584236,-0.027488935738801956
1782774931456447200,2.242447265625,0.04398229718208313,0.009773843921720982,-0.009162978269159794
1782774931466478000,2.25247802734375,0.06475171446800232,-0.001832595793530345,0.02626720629632473
1782774931476466700,2.262466796875,0.07208210229873657,-0.00733038317412138,0.048258353024721146
1782774931486497800,2.272497802734375,0.07635815441608429,-0.02321287989616394,0.06719517707824707
1782774931496455700,2.28245556640625,0.08002334833145142,-0.029932396486401558,0.08491026610136032
1782774931506487000,2.292487060546875,0.0757472887635231,-0.025045474991202354,0.08491026610136032
1782774931516475400,2.302475341796875,0.07941248267889023,0.006719517521560192,0.07208210229873657
1782774931526476300,2.312476318359375,0.07452555745840073,0.051312681287527084,0.059864792972803116
1782774931536464100,2.322464111328125,0.060475658625364304,0.060475658625364304,0.04764748737215996
1782774931546495500,2.33249560546875,0.051312681287527084,0.0555887371301651,0.039706241339445114
1782774931556453000,2.342453125,0.0403171069920063,0.04153883829712868,0.036651913076639175
1782774931566484200,2.352484130859375,0.02626720629632473,0.014049900695681572,0.02626720629632473
1782774931576472800,2.362472900390625,0.01466076634824276,0.00855211354792118,0.00733038317412138
1782774931586473500,2.372473388671875,0.00855211354792118,0.031154127791523933,-0.019547687843441963
1782774931596461800,2.3824619140625,0.004886921960860491,0.04703662544488907,-0.039095375686883926
1782774931606493000,2.392492919921875,0.010995574295520782,0.05314527451992035,-0.03726277872920036
1782774931616450800,2.402450927734375,0.019547687843441963,0.04581489413976669,-0.01038470957428217
1782774931626482000,2.41248193359375,0.019547687843441963,0.019547687843441963,0.025656340643763542
1782774931636470500,2.422470458984375,0.018936822190880775,0.00366519158706069,0.051312681287527084
1782774931646471200,2.43247119140625,0.02321287989616394,0.001832595793530345,0.05803219974040985
1782774931656459300,2.442459228515625,0.02076941914856434,0.004886921960860491,0.051312681287527084
1782774931666490600,2.45249072265625,0.009162978269159794,0.003054326167330146,0.03848451003432274
1782774931676448300,2.4624482421875,-0.00366519158706069,0.00427605677396059,0.021991148591041565
1782774931686479600,2.472479736328125,-0.006719517521560192,0.010995574295520782,0.003054326167330146
1782774931696468000,2.482468017578125,0.003054326167330146,0.012828170321881771,-0.012828170321881771
1782774931706468600,2.492468505859375,0.02015855349600315,0.006719517521560192,-0.019547687843441963
1782774931716457000,2.50245703125,0.03481931984424591,-0.006719517521560192,-0.015882495790719986
1782774931726488300,2.51248828125,0.03726277872920036,-0.018325956538319588,-0.004886921960860491
1782774931736476400,2.522476318359375,0.03726277872920036,-0.01160643994808197,0.01038470957428217
1782774931746477300,2.532477294921875,0.021380282938480377,-0.015271631069481373,0.029932396486401558
1782774931756465400,2.54246533203125,-0.00733038317412138,-0.03787364438176155,0.039706241339445114
1782774931766496500,2.55249658203125,-0.018936822190880775,-0.04948008432984352,0.02932153269648552
1782774931776454400,2.562454345703125,-0.012828170321881771,-0.03481931984424591,-0.001832595793530345
1782774931786485800,2.57248583984375,-0.003054326167330146,-0.028099801391363144,-0.03237585723400116
1782774931796474000,2.58247412109375,0.010995574295520782,-0.03298672288656235,-0.04581489413976669
1782774931806474800,2.592474853515625,0.02321287989616394,-0.036651913076639175,-0.036651913076639175
1782774931816462000,2.602462158203125,0.022602014243602753,-0.030543262138962746,-0.009773843921720982
1782774931826493400,2.612493408203125,0.010995574295520782,-0.029932396486401558,0.01466076634824276
1782774931836451300,2.622451416015625,-0.0012217304902151227,-0.025656340643763542,0.02626720629632473
1782774931846482700,2.632482666015625,-0.004886921960860491,-0.019547687843441963,0.015882495790719986
1782774931856471000,2.642470947265625,0.0012217304902151227,-0.009773843921720982,-0.003054326167330146
1782774931866471700,2.6524716796875,0.006108652334660292,-0.009773843921720982,-0.014049900695681572
1782774931876460000,2.6624599609375,0.009773843921720982,-0.019547687843441963,-0.019547687843441963
1782774931886491000,2.672490966796875,0.027488935738801956,-0.00855211354792118,-0.015271631069481373
1782774931896449000,2.682448974609375,0.03176499158143997,-0.0012217304902151227,-0.0012217304902151227
1782774931906480600,2.692480712890625,0.03420845419168472,-0.0012217304902151227,0.016493361443281174
1782774931916469200,2.70246923828125,0.039706241339445114,0.004886921960860491,0.031154127791523933
1782774931926470000,2.712469970703125,0.04398229718208313,0.009773843921720982,0.042760565876960754
1782774931936458000,2.7224580078125,0.04948008432984352,0.009773843921720982,0.05314527451992035
1782774931946489300,2.7324892578125,0.05253441259264946,0.009773843921720982,0.06475171446800232
1782774931956447000,2.742447021484375,0.04948008432984352,0.012828170321881771,0.06902777403593063
1782774931966478600,2.752478515625,0.0403171069920063,0.02382374368607998,0.06841690838336945
1782774931976466700,2.762466796875,0.025045474991202354,0.0403171069920063,0.06414084881544113
1782774931986497800,2.772497802734375,0.018325956538319588,0.04886921867728233,0.05619960278272629
1782774931996455700,2.78245556640625,0.02015855349600315,0.0403171069920063,0.051312681287527084
1782774932006486800,2.79248681640625,0.024434609338641167,0.021380282938480377,0.0507018156349659
1782774932016475400,2.802475341796875,0.022602014243602753,0.01038470957428217,0.04764748737215996
1782774932026476000,2.81247607421875,0.015882495790719986,0.00366519158706069,0.04459316283464432
1782774932036464000,2.822464111328125,0.006108652334660292,-0.001832595793530345,0.04459316283464432
1782774932046495200,2.8324951171875,-0.00855211354792118,-0.00855211354792118,0.039706241339445114
1782774932056453000,2.842453125,-0.018936822190880775,-0.015882495790719986,0.028099801391363144
1782774932066484500,2.852484375,-0.021991148591041565,-0.021380282938480377,0.01160643994808197
1782774932076472600,2.86247265625,-0.02076941914856434,-0.019547687843441963,-0.0024434609804302454
1782774932086473500,2.872473388671875,-0.025045474991202354,-0.02932153269648552,-0.01160643994808197
1782774932096461800,2.8824619140625,-0.02626720629632473,-0.027488935738801956,-0.01710422709584236
1782774932106493000,2.892492919921875,-0.03237585723400116,-0.021380282938480377,-0.013439035043120384
1782774932116450800,2.902450927734375,-0.04642575979232788,-0.024434609338641167,-0.006108652334660292
1782774932126482200,2.912482177734375,-0.0507018156349659,-0.01710422709584236,0.00427605677396059
1782774932136470300,2.92247021484375,-0.04764748737215996,-0.001832595793530345,0.015882495790719986
1782774932146471400,2.932471435546875,-0.048258353024721146,0.0012217304902151227,0.033597588539123535
1782774932156459300,2.942459228515625,-0.04642575979232788,-0.001832595793530345,0.04886921867728233
1782774932166490400,2.952490478515625,-0.03848451003432274,0.0006108652451075613,0.05925392732024193
1782774932176448300,2.9624482421875,-0.02015855349600315,0.0024434609804302454,0.05864306539297104
1782774932186479600,2.972479736328125,-0.00855211354792118,0.00366519158706069,0.051312681287527084
1782774932196468000,2.982468017578125,-0.006719517521560192,0.004886921960860491,0.039706241339445114
1782774932206468400,2.99246826171875,-0.007941247895359993,0.012828170321881771,0.03176499158143997
1782774932216457000,3.00245703125,-0.018325956538319588,0.016493361443281174,0.03298672288656235
1782774932226488000,3.012488037109375,-0.04214970022439957,-0.0012217304902151227,0.0354301854968071
1782774932236476400,3.022476318359375,-0.048258353024721146,-0.01160643994808197,0.027488935738801956
1782774932246477300,3.032477294921875,-0.036041051149368286,-0.006108652334660292,0.01160643994808197
1782774932256465400,3.04246533203125,-0.022602014243602753,-0.005497787147760391,-0.009162978269159794
1782774932266496500,3.05249658203125,0,0.005497787147760391,-0.02932153269648552
1782774932276454400,3.062454345703125,0.02871066704392433,0.022602014243602753,-0.03787364438176155
1782774932286485500,3.072485595703125,0.04642575979232788,0.01771509274840355,-0.02932153269648552
1782774932296473900,3.082473876953125,0.0555887371301651,0.012828170321881771,-0.006719517521560192
1782774932306474800,3.092474853515625,0.05497787147760391,-0.001832595793530345,0.02076941914856434
1782774932316463000,3.102463134765625,0.02382374368607998,-0.036041051149368286,0.04886921867728233
1782774932326493400,3.112493408203125,-0.004886921960860491,-0.04398229718208313,0.04459316283464432
1782774932336452000,3.1224521484375,-0.028099801391363144,-0.04092797264456749,0.02382374368607998
1782774932346483200,3.132483154296875,-0.03726277872920036,-0.03176499158143997,-0.00855211354792118
1782774932356471600,3.142471435546875,-0.033597588539123535,-0.022602014243602753,-0.04214970022439957
1782774932366472000,3.152471923828125,-0.018325956538319588,-0.01038470957428217,-0.056810468435287476
1782774932376460500,3.16246044921875,-0.00855211354792118,-0.013439035043120384,-0.04153883829712868
1782774932386491600,3.17249169921875,-0.013439035043120384,-0.025045474991202354,-0.00427605677396059
1782774932396449500,3.182449462890625,-0.029932396486401558,-0.028099801391363144,0.031154127791523933
1782774932406481000,3.19248095703125,-0.048258353024721146,-0.015882495790719986,0.04948008432984352
1782774932416469200,3.20246923828125,-0.05803219974040985,-0.00855211354792118,0.04642575979232788
1782774932426469600,3.2124697265625,-0.054367005825042725,-0.016493361443281174,0.0354301854968071
1782774932436458000,3.2224580078125,-0.04337143152952194,-0.02871066704392433,0.02015855349600315
1782774932446489600,3.232489501953125,-0.03176499158143997,-0.03420845419168472,-0.00427605677396059
1782774932456447000,3.242447021484375,-0.02321287989616394,-0.013439035043120384,-0.024434609338641167
1782774932466478300,3.252478271484375,-0.01710422709584236,0.01038470957428217,-0.03848451003432274
1782774932476466700,3.262466796875,-0.012828170321881771,0.015271631069481373,-0.03481931984424591
1782774932486497800,3.272497802734375,-0.018325956538319588,0.005497787147760391,-0.007941247895359993
1782774932496455700,3.28245556640625,-0.025045474991202354,-0.01710422709584236,0.02321287989616394
1782774932506487000,3.292487060546875,-0.030543262138962746,-0.02321287989616394,0.045204028487205505
1782774932516475400,3.302475341796875,-0.025656340643763542,-0.015271631069481373,0.048258353024721146
1782774932526476000,3.31247607421875,-0.010995574295520782,-0.01038470957428217,0.03420845419168472
1782774932536464400,3.32246435546875,0.013439035043120384,0.009162978269159794,0.012828170321881771
1782774932546495500,3.33249560546875,0.039706241339445114,0.02015855349600315,-0.00733038317412138
1782774932556453000,3.342453125,0.06108652427792549,0.025656340643763542,-0.013439035043120384
1782774932566484500,3.352484375,0.06169738993048668,0.018936822190880775,-0.0006108652451075613
1782774932576472800,3.362472900390625,0.04459316283464432,0.010995574295520782,0.016493361443281174
1782774932586473500,3.372473388671875,0.01710422709584236,0.01710422709584236,0.027488935738801956
1782774932596461800,3.3824619140625,-0.009773843921720982,0.025045474991202354,0.02321287989616394
1782774932606493000,3.392492919921875,-0.015882495790719986,0.028099801391363144,0.003054326167330146
1782774932616450800,3.402450927734375,-0.0012217304902151227,0.02871066704392433,-0.018325956538319588
1782774932626482200,3.412482177734375,0.02015855349600315,0.030543262138962746,-0.03298672288656235
1782774932636500500,3.42250048828125,0.0403171069920063,0.04092797264456749,-0.02932153269648552
1782774932646471200,3.43247119140625,0.05009094998240471,0.04948008432984352,-0.003054326167330146
1782774932656459300,3.442459228515625,0.04459316283464432,0.03787364438176155,0.03176499158143997
1782774932666490400,3.452490478515625,0.03481931984424591,0.02626720629632473,0.0507018156349659
1782774932676448500,3.462448486328125,0.036041051149368286,0.03176499158143997,0.04642575979232788
1782774932686479600,3.472479736328125,0.04214970022439957,0.04337143152952194,0.029932396486401558
1782774932696468000,3.482468017578125,0.03726277872920036,0.04459316283464432,0.014049900695681572
1782774932706468600,3.492468505859375,0.031154127791523933,0.04764748737215996,-0.003054326167330146
1782774932716457000,3.50245703125,0.02382374368607998,0.05803219974040985,-0.012828170321881771
1782774932726488000,3.512488037109375,0.014049900695681572,0.06963863968849182,-0.021380282938480377
1782774932736476400,3.522476318359375,0.03787364438176155,0.09834930300712585,-0.02321287989616394
1782774932746477300,3.532477294921875,0.05864306539297104,0.09346238523721695,-0.0012217304902151227
1782774932756465400,3.54246533203125,0.07024950534105301,0.06963863968849182,0.033597588539123535
1782774932766496500,3.55249658203125,0.06780604273080826,0.05253441259264946,0.06230825558304787
1782774932776454400,3.562454345703125,0.05314527451992035,0.05192354694008827,0.06902777403593063
1782774932786485800,3.57248583984375,0.03237585723400116,0.06536258012056351,0.045204028487205505
1782774932796474000,3.58247412109375,0.015882495790719986,0.07941248267889023,-0.0006108652451075613
1782774932806475000,3.59247509765625,0.02015855349600315,0.10018189996480942,-0.04581489413976669
1782774932816462000,3.602462158203125,0.027488935738801956,0.1007927656173706,-0.06719517707824707
1782774932826493400,3.612493408203125,0.028099801391363144,0.07635815441608429,-0.05864306539297104
1782774932836451300,3.622451416015625,0.02321287989616394,0.05253441259264946,-0.02687807008624077
1782774932846482700,3.632482666015625,0.015882495790719986,0.036041051149368286,0.009773843921720982
1782774932856471000,3.642470947265625,0.01160643994808197,0.02687807008624077,0.03420845419168472
1782774932866471700,3.6524716796875,0.009773843921720982,0.021380282938480377,0.04581489413976669
1782774932876460000,3.6624599609375,0.01160643994808197,0.01466076634824276,0.04398229718208313
1782774932886491000,3.672490966796875,0.012217304669320583,0.010995574295520782,0.036041051149368286
1782774932896449000,3.682448974609375,0.00427605677396059,-0.0006108652451075613,0.028099801391363144
1782774932906480000,3.692480224609375,-0.006108652334660292,-0.01710422709584236,0.012217304669320583
1782774932916469200,3.70246923828125,-0.01160643994808197,-0.005497787147760391,-0.006108652334660292
1782774932926469600,3.7124697265625,-0.021991148591041565,0.006719517521560192,-0.02076941914856434
1782774932936458200,3.722458251953125,-0.021991148591041565,0.0024434609804302454,-0.03298672288656235
1782774932946489300,3.7324892578125,-0.007941247895359993,0.0024434609804302454,-0.033597588539123535
1782774932956447000,3.742447021484375,-0.001832595793530345,0.009162978269159794,-0.014049900695681572
1782774932966478000,3.75247802734375,-0.009162978269159794,0.00366519158706069,0.007941247895359993
1782774932976466700,3.762466796875,-0.0024434609804302454,0.00855211354792118,0.02321287989616394
1782774932986497800,3.772497802734375,0.016493361443281174,0.01771509274840355,0.02932153269648552
1782774932996455700,3.78245556640625,0.025045474991202354,0.009773843921720982,0.033597588539123535
1782774933006486800,3.79248681640625,0.027488935738801956,0.00366519158706069,0.036651913076639175
1782774933016475400,3.802475341796875,0.02382374368607998,0.005497787147760391,0.03420845419168472
1782774933026476000,3.81247607421875,0.022602014243602753,0.005497787147760391,0.02382374368607998
1782774933036464000,3.822464111328125,0.02687807008624077,0.01466076634824276,0.003054326167330146
1782774933046495500,3.83249560546875,0.0403171069920063,0.02871066704392433,-0.010995574295520782
1782774933056453000,3.842453125,0.04337143152952194,0.025656340643763542,-0.00427605677396059
1782774933066484200,3.852484130859375,0.0403171069920063,0.012828170321881771,0.015271631069481373
1782774933076472800,3.862472900390625,0.02687807008624077,0.004886921960860491,0.039095375686883926
1782774933086473500,3.872473388671875,0.00855211354792118,0.004886921960860491,0.05192354694008827
1782774933096461800,3.8824619140625,0.004886921960860491,0.004886921960860491,0.04703662544488907
1782774933106493000,3.892492919921875,0.015882495790719986,0.00427605677396059,0.03237585723400116
1782774933116450800,3.902450927734375,0.028099801391363144,0.001832595793530345,0.021991148591041565
1782774933126482200,3.912482177734375,0.03298672288656235,-0.0024434609804302454,0.016493361443281174
1782774933136470300,3.92247021484375,0.031154127791523933,0.0006108652451075613,0.018936822190880775
1782774933146471200,3.93247119140625,0.018325956538319588,0.0024434609804302454,0.033597588539123535
1782774933156459300,3.942459228515625,-0.001832595793530345,-0.005497787147760391,0.05009094998240471
1782774933166490400,3.952490478515625,-0.021380282938480377,-0.02687807008624077,0.06536258012056351
1782774933176448300,3.9624482421875,-0.025045474991202354,-0.036041051149368286,0.05742133408784866
1782774933186479600,3.972479736328125,-0.025656340643763542,-0.02871066704392433,0.03481931984424591
1782774933196467700,3.9824677734375,-0.028099801391363144,-0.018936822190880775,0.006719517521560192
1782774933206468900,3.99246875,-0.036041051149368286,-0.015882495790719986,-0.009162978269159794
1782774933216457000,4.00245703125,-0.04886921867728233,-0.030543262138962746,-0.014049900695681572
1782774933226488300,4.01248828125,-0.056810468435287476,-0.04459316283464432,-0.015882495790719986
1782774933236476400,4.022476318359375,-0.05925392732024193,-0.0403171069920063,-0.021991148591041565
1782774933246477300,4.032477294921875,-0.05253441259264946,-0.030543262138962746,-0.02871066704392433
1782774933256465400,4.04246533203125,-0.04642575979232788,-0.030543262138962746,-0.031154127791523933
1782774933266496500,4.05249658203125,-0.03787364438176155,-0.03726277872920036,-0.025045474991202354
1782774933276454400,4.062454345703125,-0.031154127791523933,-0.04398229718208313,-0.01771509274840355
1782774933286485500,4.072485595703125,-0.03481931984424591,-0.0403171069920063,-0.00733038317412138
1782774933296473900,4.082473876953125,-0.05253441259264946,-0.025045474991202354,-0.00855211354792118
1782774933306474800,4.092474853515625,-0.06719517707824707,0.009162978269159794,-0.02076941914856434
1782774933316463000,4.102463134765625,-0.06902777403593063,0.045204028487205505,-0.03176499158143997
1782774933326494500,4.112494384765625,-0.059864792972803116,0.039095375686883926,-0.036041051149368286
1782774933336452000,4.1224521484375,-0.03848451003432274,0.01466076634824276,-0.02871066704392433
1782774933346483200,4.132483154296875,-0.021991148591041565,0.0024434609804302454,-0.021380282938480377
1782774933356471600,4.142471435546875,-0.001832595793530345,0.0024434609804302454,-0.024434609338641167
1782774933366472000,4.152471923828125,0.009162978269159794,0.009773843921720982,-0.027488935738801956
1782774933376460500,4.16246044921875,0.009773843921720982,-0.001832595793530345,-0.02871066704392433
1782774933386491600,4.17249169921875,0.009162978269159794,-0.0024434609804302454,-0.02871066704392433
1782774933396449500,4.182449462890625,0.00855211354792118,0.006719517521560192,-0.025045474991202354
1782774933406480600,4.192480712890625,0.00855211354792118,0.009773843921720982,-0.015882495790719986
1782774933416469200,4.20246923828125,0.015882495790719986,0.005497787147760391,-0.005497787147760391
1782774933426469600,4.2124697265625,0.02321287989616394,0.0024434609804302454,0.00427605677396059
1782774933436458200,4.222458251953125,0.02382374368607998,0.01710422709584236,0.01038470957428217
1782774933446489300,4.2324892578125,0.01710422709584236,0.031154127791523933,0.0006108652451075613
1782774933456447000,4.242447021484375,0.02626720629632473,0.05619960278272629,-0.015271631069481373
1782774933466478300,4.252478271484375,0.04153883829712868,0.06352998316287994,-0.01771509274840355
1782774933476466700,4.262466796875,0.05009094998240471,0.03237585723400116,-0.0024434609804302454
1782774933486497800,4.272497802734375,0.0507018156349659,0.006719517521560192,0.02321287989616394
1782774933496455700,4.28245556640625,0.04092797264456749,-0.0024434609804302454,0.04398229718208313
1782774933506486800,4.29248681640625,0.025045474991202354,0.0006108652451075613,0.048258353024721146
1782774933516475100,4.30247509765625,0.014049900695681572,0.004886921960860491,0.036651913076639175
1782774933526476000,4.31247607421875,0.014049900695681572,0.016493361443281174,0.019547687843441963
1782774933536464100,4.322464111328125,0.012217304669320583,0.012217304669320583,0.00733038317412138
1782774933546495500,4.33249560546875,0.01160643994808197,-0.00733038317412138,-0.00366519158706069
1782774933556453000,4.342453125,0.025045474991202354,-0.00366519158706069,-0.014049900695681572
1782774933566484200,4.352484130859375,0.030543262138962746,0.0012217304902151227,-0.015882495790719986
1782774933576472800,4.362472900390625,0.02321287989616394,-0.004886921960860491,-0.009773843921720982
1782774933586473500,4.372473388671875,0.021380282938480377,-0.00733038317412138,0.010995574295520782
1782774933596461800,4.3824619140625,0.014049900695681572,-0.018936822190880775,0.02687807008624077
1782774933606493000,4.392492919921875,0.00427605677396059,-0.033597588539123535,0.0354301854968071
1782774933616450800,4.402450927734375,0.0012217304902151227,-0.029932396486401558,0.02687807008624077
1782774933626482000,4.41248193359375,0.0012217304902151227,-0.016493361443281174,0.00733038317412138
1782774933636470300,4.42247021484375,0.003054326167330146,-0.009773843921720982,-0.01466076634824276
1782774933646470700,4.432470703125,0.010995574295520782,-0.006719517521560192,-0.02382374368607998
1782774933656459300,4.442459228515625,0.012217304669320583,-0.007941247895359993,-0.016493361443281174
1782774933666490400,4.452490478515625,0.01038470957428217,-0.018325956538319588,0.0006108652451075613
1782774933676448300,4.4624482421875,0.004886921960860491,-0.029932396486401558,0.02076941914856434
1782774933686479600,4.472479736328125,0,-0.03848451003432274,0.03298672288656235
1782774933696468000,4.482468017578125,-0.005497787147760391,-0.036651913076639175,0.033597588539123535
1782774933706468600,4.492468505859375,-0.009773843921720982,-0.02321287989616394,0.025045474991202354
1782774933716457000,4.50245703125,-0.018936822190880775,-0.009773843921720982,0.012828170321881771
1782774933726488300,4.51248828125,-0.03298672288656235,0.001832595793530345,0.00733038317412138
1782774933736476400,4.522476318359375,-0.045204028487205505,0.009162978269159794,0.010995574295520782
1782774933746477600,4.5324775390625,-0.04459316283464432,0.003054326167330146,0.015271631069481373
1782774933756465400,4.54246533203125,-0.03848451003432274,0,0.02015855349600315
1782774933766496500,4.55249658203125,-0.03726277872920036,0.0006108652451075613,0.016493361443281174
1782774933776454400,4.562454345703125,-0.039706241339445114,0.01038470957428217,0.007941247895359993
1782774933786485800,4.57248583984375,-0.04092797264456749,0.022602014243602753,0.0006108652451075613
1782774933796474000,4.58247412109375,-0.04153883829712868,0.024434609338641167,-0.0006108652451075613
1782774933806475000,4.59247509765625,-0.04337143152952194,0.015271631069481373,0.00427605677396059
1782774933816462000,4.602462158203125,-0.03420845419168472,-0.004886921960860491,0.006719517521560192
1782774933826493700,4.61249365234375,-0.021380282938480377,-0.01710422709584236,0.007941247895359993
1782774933836451300,4.622451416015625,-0.009162978269159794,-0.030543262138962746,-0.003054326167330146
1782774933846482400,4.632482421875,-0.01038470957428217,-0.04092797264456749,-0.012217304669320583
1782774933856471000,4.642470947265625,-0.01038470957428217,-0.03481931984424591,-0.028099801391363144
1782774933866471700,4.6524716796875,-0.01038470957428217,-0.018325956538319588,-0.0403171069920063
1782774933876460000,4.6624599609375,-0.016493361443281174,-0.004886921960860491,-0.036651913076639175
1782774933886491100,4.6724912109375,-0.024434609338641167,-0.00855211354792118,-0.021380282938480377
1782774933896449000,4.682448974609375,-0.02626720629632473,-0.01466076634824276,-0.004886921960860491
1782774933906480000,4.692480224609375,-0.018936822190880775,-0.007941247895359993,0.009162978269159794
1782774933916469200,4.70246923828125,-0.01038470957428217,0,0.016493361443281174
1782774933926469600,4.7124697265625,-0.004886921960860491,0.006108652334660292,0.018325956538319588
1782774933936458000,4.7224580078125,-0.0024434609804302454,0.012217304669320583,0.025656340643763542
1782774933946489300,4.7324892578125,-0.00733038317412138,0.0012217304902151227,0.03420845419168472
1782774933956447000,4.742447021484375,-0.015882495790719986,-0.022602014243602753,0.036651913076639175
1782774933966478300,4.752478271484375,-0.01710422709584236,-0.03726277872920036,0.021380282938480377
1782774933976466700,4.762466796875,-0.015271631069481373,-0.03237585723400116,-0.003054326167330146
1782774933986497800,4.772497802734375,-0.018325956538319588,-0.027488935738801956,-0.030543262138962746
1782774933996455700,4.78245556640625,-0.02015855349600315,-0.02076941914856434,-0.048258353024721146
1782774934006486800,4.79248681640625,-0.021991148591041565,-0.009773843921720982,-0.0555887371301651
1782774934016475400,4.802475341796875,-0.021991148591041565,-0.00427605677396059,-0.04886921867728233
1782774934026476000,4.81247607421875,-0.00855211354792118,-0.0012217304902151227,-0.03848451003432274
1782774934036464400,4.82246435546875,0.0024434609804302454,-0.00427605677396059,-0.01771509274840355
1782774934046495500,4.83249560546875,0.009162978269159794,-0.0024434609804302454,0.004886921960860491
1782774934056453000,4.842453125,0.0024434609804302454,0,0.02382374368607998
1782774934066484200,4.852484130859375,-0.007941247895359993,-0.00366519158706069,0.03298672288656235
1782774934076472800,4.862472900390625,-0.009162978269159794,0.007941247895359993,0.031154127791523933
1782774934086473500,4.872473388671875,-0.018325956538319588,0.00855211354792118,0.02626720629632473
1782774934096461800,4.8824619140625,-0.025656340643763542,0.0024434609804302454,0.016493361443281174
1782774934106493200,4.8924931640625,-0.02321287989616394,0.012828170321881771,0.003054326167330146
1782774934116450800,4.902450927734375,-0.019547687843441963,0.02932153269648552,-0.003054326167330146
1782774934126482200,4.912482177734375,-0.02626720629632473,0.036041051149368286,0.009162978269159794
1782774934136470300,4.92247021484375,-0.0403171069920063,0.02015855349600315,0.036651913076639175
1782774934146471200,4.93247119140625,-0.04214970022439957,0.0024434609804302454,0.06230825558304787
1782774934156459300,4.942459228515625,-0.03298672288656235,-0.006719517521560192,0.07819075137376785
1782774934166490400,4.952490478515625,-0.019547687843441963,-0.01038470957428217,0.07696902006864548
1782774934176448300,4.9624482421875,-0.02015855349600315,-0.013439035043120384,0.06475171446800232
1782774934186479600,4.972479736328125,-0.03176499158143997,-0.01771509274840355,0.04337143152952194
1782774934196468000,4.982468017578125,-0.036651913076639175,-0.007941247895359993,0.018325956538319588
1782774934206468600,4.992468505859375,-0.04153883829712868,-0.003054326167330146,-0.0012217304902151227
1782774934216457000,5.00245703125,-0.04703662544488907,-0.00855211354792118,-0.007941247895359993
1782774934226488300,5.01248828125,-0.048258353024721146,-0.00733038317412138,-0.00733038317412138
1782774934236476400,5.022476318359375,-0.04886921867728233,0.00733038317412138,0.003054326167330146
1782774934246477300,5.032477294921875,-0.04764748737215996,0.015882495790719986,0.018936822190880775
1782774934256465400,5.04246533203125,-0.03726277872920036,0.018325956538319588,0.0403171069920063
1782774934266496500,5.05249658203125,-0.03237585723400116,0.009162978269159794,0.06475171446800232
1782774934276454400,5.062454345703125,-0.029932396486401558,-0.004886921960860491,0.07269296050071716
1782774934286485500,5.072485595703125,-0.022602014243602753,0,0.0659734457731247
1782774934296473900,5.082473876953125,-0.02076941914856434,0.013439035043120384,0.05803219974040985
1782774934306474800,5.092474853515625,-0.025656340643763542,0.012828170321881771,0.04764748737215996
1782774934316463000,5.102463134765625,-0.02626720629632473,0.01710422709584236,0.0403171069920063
1782774934326494200,5.112494140625,-0.02687807008624077,0.02626720629632473,0.03481931984424591
1782774934336452000,5.1224521484375,-0.021991148591041565,0.03787364438176155,0.03237585723400116
1782774934346483200,5.132483154296875,-0.01466076634824276,0.051312681287527084,0.0354301854968071
1782774934356471600,5.142471435546875,-0.00733038317412138,0.05742133408784866,0.04948008432984352
1782774934366472200,5.15247216796875,0.0006108652451075613,0.054367005825042725,0.06658431142568588
1782774934376460500,5.16246044921875,0.006719517521560192,0.04703662544488907,0.0861319974064827
1782774934386491600,5.17249169921875,0.010995574295520782,0.03726277872920036,0.09651670604944229
1782774934396449500,5.182449462890625,0.02321287989616394,0.031154127791523933,0.09285151958465576
1782774934406480600,5.192480712890625,0.036651913076639175,0.03176499158143997,0.07757988572120667
1782774934416469200,5.20246923828125,0.04703662544488907,0.031154127791523933,0.06719517707824707
1782774934426469600,5.2124697265625,0.03420845419168472,0.010995574295520782,0.054367005825042725
1782774934436458200,5.222458251953125,0.014049900695681572,0.001832595793530345,0.007941247895359993
1782774934446489300,5.2324892578125,0.01466076634824276,0.016493361443281174,-0.016493361443281174
1782774934456447000,5.242447021484375,0,0.003054326167330146,-0.024434609338641167
1782774934466478300,5.252478271484375,-0.01160643994808197,-0.006719517521560192,-0.02321287989616394
1782774934476466700,5.262466796875,-0.01038470957428217,0.004886921960860491,-0.02321287989616394
1782774934486497800,5.272497802734375,-0.00427605677396059,0.02687807008624077,-0.01771509274840355
1782774934496455700,5.28245556640625,-0.006719517521560192,0.03176499158143997,-0.0012217304902151227
1782774934506487000,5.292487060546875,-0.012828170321881771,0.028099801391363144,0.02076941914856434
1782774934516475400,5.302475341796875,-0.009162978269159794,0.028099801391363144,0.04153883829712868
1782774934526475800,5.312475830078125,-0.00427605677396059,0.024434609338641167,0.05253441259264946
1782774934536464100,5.322464111328125,0.001832595793530345,0.02382374368607998,0.04948008432984352
1782774934546495500,5.33249560546875,0.009162978269159794,0.03176499158143997,0.0403171069920063
1782774934556453000,5.342453125,0.005497787147760391,0.025045474991202354,0.029932396486401558
1782774934566484200,5.352484130859375,0.0006108652451075613,0.021991148591041565,0.01771509274840355
1782774934576472800,5.362472900390625,-0.00366519158706069,0.02932153269648552,0.006108652334660292
1782774934586473500,5.372473388671875,0.0012217304902151227,0.027488935738801956,-0.006108652334660292
1782774934596461800,5.3824619140625,0.012217304669320583,0.021380282938480377,-0.007941247895359993
1782774934606493000,5.392492919921875,0.02382374368607998,0.014049900695681572,-0.006108652334660292
1782774934616450800,5.402450927734375,0.03726277872920036,0.016493361443281174,-0.0012217304902151227
1782774934626482200,5.412482177734375,0.04459316283464432,0.012217304669320583,0.00855211354792118
1782774934636500200,5.422500244140625,0.04581489413976669,-0.005497787147760391,0.016493361443281174
1782774934646471400,5.432471435546875,0.04642575979232788,-0.02076941914856434,0.018325956538319588
1782774934656459300,5.442459228515625,0.0403171069920063,-0.033597588539123535,0.0006108652451075613
1782774934666490600,5.45249072265625,0.0354301854968071,-0.02382374368607998,-0.028099801391363144
1782774934676448500,5.462448486328125,0.029932396486401558,-0.001832595793530345,-0.05742133408784866
1782774934686479600,5.472479736328125,0.021380282938480377,0.01160643994808197,-0.07452555745840073
1782774934696468000,5.482468017578125,0.024434609338641167,0.006719517521560192,-0.07391469180583954
1782774934706468600,5.492468505859375,0.029932396486401558,-0.0006108652451075613,-0.05742133408784866
1782774934716457000,5.50245703125,0.02015855349600315,-0.012217304669320583,-0.033597588539123535
1782774934726488000,5.512488037109375,-0.00855211354792118,-0.021991148591041565,-0.02015855349600315
1782774934736476400,5.522476318359375,-0.02687807008624077,-0.00733038317412138,-0.021991148591041565
1782774934746476800,5.532476806640625,-0.033597588539123535,0.010995574295520782,-0.03176499158143997
1782774934756465400,5.54246533203125,-0.039706241339445114,0.009773843921720982,-0.0354301854968071
1782774934766496500,5.55249658203125,-0.039706241339445114,0.00733038317412138,-0.03481931984424591
1782774934776454400,5.562454345703125,-0.028099801391363144,0.02015855349600315,-0.03848451003432274
1782774934786485500,5.572485595703125,-0.006719517521560192,0.03481931984424591,-0.042760565876960754
1782774934796474000,5.58247412109375,0.006719517521560192,0.039706241339445114,-0.04153883829712868
1782774934806474500,5.592474609375,0.004886921960860491,0.03176499158143997,-0.04337143152952194
1782774934816462000,5.602462158203125,0.0024434609804302454,0.036651913076639175,-0.04398229718208313
1782774934826493400,5.612493408203125,-0.007941247895359993,0.036651913076639175,-0.04459316283464432
1782774934836451300,5.622451416015625,-0.02871066704392433,0.018936822190880775,-0.051312681287527084
1782774934846482700,5.632482666015625,-0.045204028487205505,0.006719517521560192,-0.07208210229873657
1782774934856471000,5.642470947265625,-0.0507018156349659,0.005497787147760391,-0.10934487730264664
1782774934866471700,5.6524716796875,-0.03787364438176155,0.039706241339445114,-0.16371189057826996
1782774934876460000,5.6624599609375,-0.03298672288656235,0.04337143152952194,-0.17287486791610718
1782774934886491100,5.6724912109375,-0.015882495790719986,0.04398229718208313,-0.1618792861700058
1782774934896449000,5.682448974609375,-0.024434609338641167,0.04764748737215996,-0.11789698898792267
1782774934906480400,5.69248046875,-0.02871066704392433,0.03237585723400116,-0.06475171446800232
1782774934916469200,5.70246923828125,-0.02076941914856434,0.005497787147760391,-0.007941247895359993
1782774934926469600,5.7124697265625,-0.010995574295520782,-0.025656340643763542,0.033597588539123535
1782774934936458000,5.7224580078125,-0.006719517521560192,-0.06108652427792549,0.04703662544488907
1782774934946489300,5.7324892578125,-0.013439035043120384,-0.06841690838336945,0.039095375686883926
1782774934956447000,5.742447021484375,-0.021380282938480377,-0.05253441259264946,0.0024434609804302454
1782774934966478300,5.752478271484375,-0.02932153269648552,-0.033597588539123535,-0.04886921867728233
1782774934976466700,5.762466796875,-0.048258353024721146,-0.007941247895359993,-0.0959058403968811
1782774934986497800,5.772497802734375,-0.05253441259264946,0.02626720629632473,-0.13377949595451355
1782774934996455700,5.78245556640625,-0.05619960278272629,0.012217304669320583,-0.152105450630188
1782774935006486800,5.79248681640625,-0.0403171069920063,-0.00427605677396059,-0.16249015927314758
1782774935016475400,5.802475341796875,-0.039095375686883926,-0.00855211354792118,-0.15515977144241333
1782774935026476000,5.81247607421875,-0.03420845419168472,-0.012217304669320583,-0.14355333149433136
1782774935036464000,5.822464111328125,-0.031154127791523933,-0.006108652334660292,-0.11850785464048386
1782774935046495200,5.8324951171875,-0.03298672288656235,-0.005497787147760391,-0.08368854224681854
1782774935056453000,5.842453125,-0.02932153269648552,-0.00366519158706069,-0.045204028487205505
1782774935066484200,5.852484130859375,-0.022602014243602753,0.009773843921720982,-0.00427605677396059
1782774935076472800,5.862472900390625,-0.015882495790719986,0.0006108652451075613,0.027488935738801956
1782774935086473700,5.8724736328125,-0.001832595793530345,0.01466076634824276,0.04703662544488907
1782774935096461800,5.8824619140625,0.015271631069481373,0.022602014243602753,0.05253441259264946
1782774935106493000,5.892492919921875,0.021380282938480377,0.016493361443281174,0.04581489413976669
1782774935116450800,5.902450927734375,0.02382374368607998,0.015882495790719986,0.036651913076639175
1782774935126482000,5.91248193359375,0.022602014243602753,0.015882495790719986,0.022602014243602753
1782774935136470300,5.92247021484375,0.021991148591041565,0.00733038317412138,0.014049900695681572
1782774935146471000,5.932470947265625,0.022602014243602753,-0.0006108652451075613,0.015882495790719986
1782774935156459300,5.942459228515625,0.019547687843441963,-0.009162978269159794,0.015271631069481373
1782774935166490400,5.952490478515625,0.02871066704392433,0.009773843921720982,0.015882495790719986
1782774935176448300,5.9624482421875,0.03298672288656235,0.021991148591041565,0.018936822190880775
1782774935186479400,5.972479248046875,0.025045474991202354,0.018936822190880775,0.024434609338641167
1782774935196467700,5.9824677734375,0.022602014243602753,0.027488935738801956,0.03237585723400116
1782774935206468600,5.992468505859375,0.02871066704392433,0.028099801391363144,0.039095375686883926
1782774935216457000,6.00245703125,0.030543262138962746,0.009773843921720982,0.039095375686883926
1782774935226487800,6.01248779296875,0.036651913076639175,-0.0006108652451075613,0.024434609338641167
1782774935236476400,6.022476318359375,0.04092797264456749,0.014049900695681572,0.00855211354792118
1782774935246477300,6.032477294921875,0.03298672288656235,0.02626720629632473,0.0024434609804302454
1782774935256465400,6.04246533203125,0.02076941914856434,0.02687807008624077,0.01466076634824276
1782774935266496500,6.05249658203125,-0.0006108652451075613,0.015882495790719986,0.03787364438176155
1782774935276454400,6.062454345703125,-0.015882495790719986,-0.0006108652451075613,0.05314527451992035
1782774935286485800,6.07248583984375,-0.013439035043120384,0.005497787147760391,0.04642575979232788
1782774935296473900,6.082473876953125,-0.00366519158706069,0.02687807008624077,0.033597588539123535
1782774935306474500,6.092474609375,0.005497787147760391,0.029932396486401558,0.025045474991202354
1782774935316463000,6.102463134765625,0.015882495790719986,0.024434609338641167,0.02321287989616394
1782774935326494500,6.112494384765625,0.021380282938480377,0.016493361443281174,0.036041051149368286
1782774935336452000,6.1224521484375,0.013439035043120384,0.006108652334660292,0.05864306539297104
1782774935346483000,6.13248291015625,-0.01160643994808197,0,0.08674286305904388
1782774935356471300,6.14247119140625,-0.03848451003432274,-0.00855211354792118,0.1014036312699318
1782774935366472000,6.152471923828125,-0.04764748737215996,-0.009773843921720982,0.0910189226269722
1782774935376460500,6.16246044921875,-0.04581489413976669,-0.012217304669320583,0.06963863968849182
1782774935386492000,6.172491943359375,-0.03298672288656235,-0.01466076634824276,0.0403171069920063
1782774935396449500,6.182449462890625,-0.01771509274840355,-0.003054326167330146,0.01466076634824276
1782774935406481000,6.19248095703125,-0.013439035043120384,0.009773843921720982,0.004886921960860491
1782774935416469200,6.20246923828125,-0.016493361443281174,0.012828170321881771,0.01038470957428217
1782774935426470000,6.212469970703125,-0.02687807008624077,0.01466076634824276,0.03176499158143997
1782774935436458000,6.2224580078125,-0.04337143152952194,0.006719517521560192,0.05864306539297104
1782774935446489300,6.2324892578125,-0.04581489413976669,0,0.07635815441608429
1782774935456447000,6.242447021484375,-0.039095375686883926,-0.010995574295520782,0.07757988572120667
1782774935466478300,6.252478271484375,-0.028099801391363144,-0.02015855349600315,0.051312681287527084
1782774935476466700,6.262466796875,-0.012828170321881771,-0.0012217304902151227,0.02076941914856434
1782774935486498000,6.272498046875,-0.013439035043120384,0.005497787147760391,-0.004886921960860491
1782774935496455700,6.28245556640625,-0.02321287989616394,-0.003054326167330146,-0.024434609338641167
1782774935506486800,6.29248681640625,-0.02871066704392433,0.00366519158706069,-0.03481931984424591
1782774935516475400,6.302475341796875,-0.036041051149368286,0.009773843921720982,-0.033597588539123535
1782774935526475800,6.312475830078125,-0.04581489413976669,0.001832595793530345,-0.027488935738801956
1782774935536464100,6.322464111328125,-0.04581489413976669,-0.0024434609804302454,-0.022602014243602753
1782774935546495200,6.3324951171875,-0.0354301854968071,0.005497787147760391,-0.02015855349600315
1782774935556453000,6.342453125,-0.025045474991202354,0.007941247895359993,-0.01160643994808197
1782774935566484200,6.352484130859375,-0.015882495790719986,0.003054326167330146,-0.0006108652451075613
1782774935576472800,6.362472900390625,-0.00427605677396059,-0.004886921960860491,0.00366519158706069
1782774935586473200,6.37247314453125,0.007941247895359993,-0.0012217304902151227,0.00733038317412138
1782774935596461800,6.3824619140625,0.003054326167330146,0.006719517521560192,0.009773843921720982
1782774935606493000,6.392492919921875,-0.00855211354792118,0.013439035043120384,0.01038470957428217
1782774935616450800,6.402450927734375,-0.009162978269159794,0.03420845419168472,0.009162978269159794
1782774935626482200,6.412482177734375,-0.007941247895359993,0.04398229718208313,0.012828170321881771
1782774935636470500,6.422470458984375,-0.007941247895359993,0.039095375686883926,0.02687807008624077
1782774935646471000,6.432470947265625,-0.018325956538319588,0.028099801391363144,0.04642575979232788
1782774935656459300,6.442459228515625,-0.024434609338641167,0.02626720629632473,0.05314527451992035
1782774935666490600,6.45249072265625,-0.018936822190880775,0.04092797264456749,0.045204028487205505
1782774935676448300,6.4624482421875,-0.007941247895359993,0.03848451003432274,0.02871066704392433
1782774935686479600,6.472479736328125,-0.005497787147760391,0.018325956538319588,0.014049900695681572
1782774935696468000,6.482468017578125,-0.01038470957428217,0.009162978269159794,0
1782774935706468400,6.49246826171875,-0.02015855349600315,0.012217304669320583,-0.01466076634824276
1782774935716457000,6.50245703125,-0.02932153269648552,0.024434609338641167,-0.03237585723400116
1782774935726488300,6.51248828125,-0.022602014243602753,0.018936822190880775,-0.03420845419168472
1782774935736476400,6.522476318359375,-0.01160643994808197,0.012828170321881771,-0.018325956538319588
1782774935746477000,6.53247705078125,-0.00733038317412138,0.00855211354792118,0.00427605677396059
1782774935756465400,6.54246533203125,-0.004886921960860491,0.004886921960860491,0.02687807008624077
1782774935766496500,6.55249658203125,-0.006108652334660292,-0.00855211354792118,0.03420845419168472
1782774935776454400,6.562454345703125,-0.009773843921720982,-0.019547687843441963,0.030543262138962746
1782774935786485800,6.57248583984375,-0.01466076634824276,-0.027488935738801956,0.00855211354792118
1782774935796474000,6.58247412109375,-0.013439035043120384,-0.02626720629632473,-0.02382374368607998
1782774935806474800,6.592474853515625,-0.01160643994808197,-0.033597588539123535,-0.060475658625364304
1782774935816462000,6.602462158203125,-0.009773843921720982,-0.03848451003432274,-0.08246681094169617
1782774935826493400,6.612493408203125,-0.019547687843441963,-0.045204028487205505,-0.08368854224681854
1782774935836451300,6.622451416015625,-0.04214970022439957,-0.051312681287527084,-0.07208210229873657
1782774935846482400,6.632482421875,-0.06475171446800232,-0.05497787147760391,-0.059864792972803116
1782774935856471000,6.642470947265625,-0.0806342139840126,-0.0555887371301651,-0.06291911751031876
1782774935866471700,6.6524716796875,-0.08124507963657379,-0.04703662544488907,-0.07452555745840073
1782774935876460000,6.6624599609375,-0.06719517707824707,-0.033597588539123535,-0.08796459436416626
1782774935886491100,6.6724912109375,-0.04581489413976669,-0.021380282938480377,-0.09468411654233932
1782774935896449000,6.682448974609375,-0.03237585723400116,-0.013439035043120384,-0.08002334833145142
1782774935906480400,6.69248046875,-0.0354301854968071,-0.01038470957428217,-0.0403171069920063
1782774935916469200,6.70246923828125,-0.04886921867728233,-0.00733038317412138,0.006108652334660292
1782774935926470000,6.712469970703125,-0.05925392732024193,-0.003054326167330146,0.04459316283464432
1782774935936458200,6.722458251953125,-0.06414084881544113,0.0012217304902151227,0.06719517707824707
1782774935946489300,6.7324892578125,-0.04886921867728233,0.004886921960860491,0.06658431142568588
1782774935956447000,6.742447021484375,-0.029932396486401558,0.009773843921720982,0.05192354694008827
1782774935966478300,6.752478271484375,-0.018325956538319588,0.02076941914856434,0.03298672288656235
1782774935976466700,6.762466796875,-0.013439035043120384,0.03481931984424591,0.01466076634824276
1782774935986497800,6.772497802734375,-0.013439035043120384,0.03848451003432274,0.00855211354792118
1782774935996455700,6.78245556640625,-0.012828170321881771,0.036651913076639175,0.022602014243602753
1782774936006486800,6.79248681640625,-0.01710422709584236,0.015882495790719986,0.04337143152952194
1782774936016475400,6.802475341796875,-0.012217304669320583,0.013439035043120384,0.051312681287527084
1782774936026476000,6.81247607421875,-0.006719517521560192,0.02076941914856434,0.04581489413976669
1782774936036464400,6.82246435546875,-0.003054326167330146,0.01466076634824276,0.039095375686883926
1782774936046495200,6.8324951171875,-0.004886921960860491,0.003054326167330146,0.030543262138962746
1782774936056453000,6.842453125,-0.013439035043120384,0.006719517521560192,0.015882495790719986
1782774936066484200,6.852484130859375,-0.014049900695681572,0.01710422709584236,-0.003054326167330146
1782774936076472800,6.862472900390625,-0.003054326167330146,0.028099801391363144,-0.01771509274840355
1782774936086473200,6.87247314453125,0.010995574295520782,0.01771509274840355,-0.015271631069481373
1782774936096461800,6.8824619140625,0.025045474991202354,-0.009773843921720982,0.0006108652451075613
1782774936106493000,6.892492919921875,0.03481931984424591,-0.0354301854968071,0.02626720629632473
1782774936116451000,6.902451171875,0.036651913076639175,-0.05619960278272629,0.04642575979232788
1782774936126482200,6.912482177734375,0.027488935738801956,-0.07452555745840073,0.05192354694008827
1782774936136470300,6.92247021484375,0.015882495790719986,-0.08246681094169617,0.03481931984424591
1782774936146471000,6.932470947265625,0.006108652334660292,-0.06414084881544113,-0.028099801391363144
1782774936156459300,6.942459228515625,0.003054326167330146,-0.039706241339445114,-0.07757988572120667
1782774936166490400,6.952490478515625,0.00427605677396059,-0.03298672288656235,-0.10934487730264664
1782774936176448300,6.9624482421875,0.010995574295520782,-0.036041051149368286,-0.10995574295520782
1782774936186479400,6.972479248046875,0.025656340643763542,-0.05619960278272629,-0.08918632566928864
1782774936196468000,6.982468017578125,0.042760565876960754,-0.07330382615327835,-0.05803219974040985
1782774936206468600,6.992468505859375,0.05375614017248154,-0.07513642311096191,-0.021991148591041565
1782774936216457000,7.00245703125,0.042760565876960754,-0.0806342139840126,0.007941247895359993
1782774936226488300,7.01248828125,0.036041051149368286,-0.0757472887635231,0.013439035043120384
1782774936236476400,7.022476318359375,0.03237585723400116,-0.04764748737215996,0.005497787147760391
1782774936246477000,7.03247705078125,0.03176499158143997,-0.028099801391363144,-0.007941247895359993
1782774936256465400,7.04246533203125,0.03237585723400116,-0.025045474991202354,-0.018325956538319588
1782774936266496500,7.05249658203125,0.04398229718208313,-0.02015855349600315,-0.027488935738801956
1782774936276454400,7.062454345703125,0.05253441259264946,-0.00855211354792118,-0.03237585723400116
1782774936286485500,7.072485595703125,0.05497787147760391,0.0006108652451075613,-0.02382374368607998
1782774936296473900,7.082473876953125,0.045204028487205505,0.0024434609804302454,-0.0006108652451075613
1782774936306474800,7.092474853515625,0.025045474991202354,-0.014049900695681572,0.024434609338641167
1782774936316463000,7.102463134765625,0.005497787147760391,-0.028099801391363144,0.03848451003432274
1782774936326494000,7.112493896484375,-0.01038470957428217,-0.036041051149368286,0.02871066704392433
1782774936336452000,7.1224521484375,-0.02015855349600315,-0.03481931984424591,-0.0024434609804302454
1782774936346483200,7.132483154296875,-0.015882495790719986,-0.02382374368607998,-0.039706241339445114
1782774936356471600,7.142471435546875,-0.004886921960860491,-0.01466076634824276,-0.060475658625364304
1782774936366472000,7.152471923828125,0.00733038317412138,-0.02015855349600315,-0.05314527451992035
1782774936376460500,7.16246044921875,0.014049900695681572,-0.031154127791523933,-0.01466076634824276
1782774936386492000,7.172491943359375,0.01038470957428217,-0.05009094998240471,0.03481931984424591
1782774936396449800,7.18244970703125,-0.00366519158706069,-0.06780604273080826,0.07147123664617538
1782774936406481000,7.19248095703125,-0.02382374368607998,-0.07635815441608429,0.08796459436416626
1782774936416469200,7.20246923828125,-0.04337143152952194,-0.08124507963657379,0.07513642311096191
1782774936426470000,7.212469970703125,-0.05314527451992035,-0.0806342139840126,0.036041051149368286
1782774936436458200,7.222458251953125,-0.05803219974040985,-0.06902777403593063,-0.02076941914856434
1782774936446489300,7.2324892578125,-0.0555887371301651,-0.04581489413976669,-0.08368854224681854
1782774936456447000,7.242447021484375,-0.04886921867728233,-0.01771509274840355,-0.12950342893600464
1782774936466478300,7.252478271484375,-0.03298672288656235,-0.015882495790719986,-0.1472185254096985
1782774936476466700,7.262466796875,-0.013439035043120384,-0.02626720629632473,-0.13011430203914642
1782774936486498000,7.272498046875,-0.00427605677396059,-0.042760565876960754,-0.09162978827953339
1782774936496455700,7.28245556640625,-0.012217304669320583,-0.04886921867728233,-0.039706241339445114
1782774936506486800,7.29248681640625,-0.021991148591041565,-0.04153883829712868,0
1782774936516475400,7.302475341796875,-0.02626720629632473,-0.03481931984424591,0.009162978269159794
1782774936526476300,7.312476318359375,-0.01160643994808197,-0.01466076634824276,-0.00855211354792118
1782774936536464100,7.322464111328125,0.00733038317412138,0.0006108652451075613,-0.03481931984424591
1782774936546495200,7.3324951171875,0.021991148591041565,-0.0024434609804302454,-0.05253441259264946
1782774936556453000,7.342453125,0.02321287989616394,-0.010995574295520782,-0.05497787147760391
1782774936566484200,7.352484130859375,0.01038470957428217,-0.013439035043120384,-0.04764748737215996
1782774936576472800,7.362472900390625,0.0024434609804302454,-0.006719517521560192,-0.04581489413976669
1782774936586473500,7.372473388671875,-0.005497787147760391,0.0024434609804302454,-0.04153883829712868
1782774936596461800,7.3824619140625,-0.015882495790719986,-0.0024434609804302454,-0.03787364438176155
1782774936606493000,7.392492919921875,-0.016493361443281174,-0.00366519158706069,-0.0354301854968071
1782774936616450800,7.402450927734375,-0.00427605677396059,0.013439035043120384,-0.025656340643763542
1782774936626482000,7.41248193359375,0.006108652334660292,0.019547687843441963,-0.014049900695681572
1782774936636500500,7.42250048828125,0.006719517521560192,0.012217304669320583,0.001832595793530345
1782774936646471000,7.432470947265625,0.006719517521560192,0.00366519158706069,0.01466076634824276
1782774936656459300,7.442459228515625,0.012217304669320583,0.0024434609804302454,0.022602014243602753
1782774936666490400,7.452490478515625,0.015882495790719986,-0.003054326167330146,0.02321287989616394
1782774936676448500,7.462448486328125,0.010995574295520782,-0.018936822190880775,0.012217304669320583
1782774936686479600,7.472479736328125,-0.003054326167330146,-0.030543262138962746,-0.007941247895359993
1782774936696468000,7.482468017578125,-0.018936822190880775,-0.02932153269648552,-0.03481931984424591
1782774936706468600,7.492468505859375,-0.024434609338641167,-0.027488935738801956,-0.06902777403593063
1782774936716457000,7.50245703125,-0.02626720629632473,-0.03237585723400116,-0.1014036312699318
1782774936726488300,7.51248828125,-0.021991148591041565,-0.02687807008624077,-0.1215621829032898
1782774936736476400,7.522476318359375,-0.015882495790719986,-0.025045474991202354,-0.12461651116609573
1782774936746477000,7.53247705078125,-0.00855211354792118,-0.02626720629632473,-0.11911872029304504
1782774936756465700,7.542465576171875,0.0006108652451075613,-0.025045474991202354,-0.10445795953273773
1782774936766496800,7.552496826171875,0.009773843921720982,-0.03298672288656235,-0.08857546001672745
1782774936776454400,7.562454345703125,0.01160643994808197,-0.022602014243602753,-0.07147123664617538
1782774936786485500,7.572485595703125,-0.0006108652451075613,0.003054326167330146,-0.05925392732024193
1782774936796474000,7.58247412109375,-0.013439035043120384,0.012828170321881771,-0.0555887371301651
1782774936806474800,7.592474853515625,-0.015882495790719986,0.015882495790719986,-0.04214970022439957
1782774936816461800,7.6024619140625,-0.022602014243602753,0.00427605677396059,-0.019547687843441963
1782774936826493400,7.612493408203125,-0.021380282938480377,0.00366519158706069,-0.007941247895359993
1782774936836451300,7.622451416015625,-0.012217304669320583,0.010995574295520782,-0.015271631069481373
1782774936846482700,7.632482666015625,-0.0024434609804302454,0.021991148591041565,-0.036041051149368286
1782774936856471000,7.642470947265625,0.005497787147760391,0.029932396486401558,-0.051312681287527084
1782774936866471700,7.6524716796875,0.00733038317412138,0.03481931984424591,-0.04948008432984352
1782774936876460000,7.6624599609375,0.001832595793530345,0.028099801391363144,-0.03787364438176155
1782774936886491400,7.672491455078125,-0.00427605677396059,0.0006108652451075613,-0.029932396486401558
1782774936896449000,7.682448974609375,-0.005497787147760391,-0.018325956538319588,-0.029932396486401558
1782774936906480000,7.692480224609375,0.003054326167330146,-0.010995574295520782,-0.03237585723400116
1782774936916469200,7.70246923828125,0.00733038317412138,-0.007941247895359993,-0.03237585723400116
1782774936926469600,7.7124697265625,0.006719517521560192,-0.004886921960860491,-0.029932396486401558
1782774936936458200,7.722458251953125,0.0006108652451075613,-0.005497787147760391,-0.029932396486401558
1782774936946489300,7.7324892578125,-0.01160643994808197,0,-0.03237585723400116
1782774936956447000,7.742447021484375,-0.02015855349600315,0.004886921960860491,-0.042760565876960754
1782774936966478300,7.752478271484375,-0.012217304669320583,0.010995574295520782,-0.04398229718208313
1782774936976466700,7.762466796875,-0.006108652334660292,0.021380282938480377,-0.039095375686883926
1782774936986497800,7.772497802734375,-0.006719517521560192,0.012217304669320583,-0.030543262138962746
1782774936996455700,7.78245556640625,-0.016493361443281174,0.003054326167330146,-0.028099801391363144
1782774937006486800,7.79248681640625,-0.019547687843441963,-0.012828170321881771,-0.029932396486401558
1782774937016475400,7.802475341796875,-0.025045474991202354,-0.02932153269648552,-0.042760565876960754
1782774937026476000,7.81247607421875,-0.021380282938480377,0.009773843921720982,-0.05192354694008827
1782774937036464000,7.822464111328125,-0.02015855349600315,0.03787364438176155,-0.06230825558304787
1782774937046495500,7.83249560546875,-0.010995574295520782,0.04337143152952194,-0.06414084881544113
1782774937056453000,7.842453125,0.01038470957428217,0.042760565876960754,-0.039706241339445114
1782774937066484200,7.852484130859375,0.02626720629632473,0.0403171069920063,-0.007941247895359993
1782774937076472800,7.862472900390625,0.018325956538319588,0.04337143152952194,-0.004886921960860491
1782774937086473500,7.872473388671875,0.027488935738801956,0.005497787147760391,-0.00733038317412138
1782774937096461800,7.8824619140625,0.04642575979232788,0.001832595793530345,-0.015271631069481373
1782774937106493000,7.892492919921875,0.03481931984424591,0.005497787147760391,-0.018936822190880775
1782774937116451000,7.902451171875,0.018936822190880775,0.02382374368607998,-0.036651913076639175
1782774937126482200,7.912482177734375,0.022602014243602753,0.03787364438176155,-0.06475171446800232
1782774937136470300,7.92247021484375,0.030543262138962746,0.0403171069920063,-0.07941248267889023
1782774937146471000,7.932470947265625,0.02871066704392433,0.03481931984424591,-0.07941248267889023
1782774937156459300,7.942459228515625,0.03298672288656235,0.03726277872920036,-0.06963863968849182
1782774937166490400,7.952490478515625,0.033597588539123535,0.08185594528913498,-0.009162978269159794
1782774937176448300,7.9624482421875,0.05375614017248154,0.00366519158706069,0.06475171446800232
1782774937186479600,7.972479736328125,0.08368854224681854,-0.04092797264456749,0.12950342893600464
1782774937196468000,7.982468017578125,0.07635815441608429,-0.025045474991202354,0.16737708449363708
1782774937206468600,7.992468505859375,0.04581489413976669,-0.03787364438176155,0.16432274878025055
1782774937216457000,8.00245703125,0.04886921867728233,-0.02626720629632473,0.13805554807186127
1782774937226488000,8.012488037109375,0.04153883829712868,-0.02321287989616394,0.09834930300712585
1782774937236476400,8.022476318359375,0.0403171069920063,-0.036041051149368286,0.02871066704392433
1782774937246477300,8.032477294921875,0.02626720629632473,0.0024434609804302454,-0.05009094998240471
1782774937256465200,8.042465087890625,0.007941247895359993,0.02687807008624077,-0.13744467496871948
1782774937266496300,8.052496337890625,-0.01160643994808197,0.042760565876960754,-0.2278527319431305
1782774937276454400,8.062454345703125,-0.027488935738801956,0.036041051149368286,-0.3090978264808655
1782774937286485500,8.072485595703125,-0.042760565876960754,-0.010995574295520782,-0.38240164518356323
1782774937296474000,8.08247412109375,-0.060475658625364304,-0.06108652427792549,-0.4129449129104614
1782774937306474800,8.092474853515625,-0.08307767659425735,-0.10323622822761536,-0.394618958234787
1782774937316463000,8.102463134765625,-0.10690141469240189,-0.08918632566928864,-0.323147714138031
1782774937326496300,8.112496337890626,-0.11301007121801376,-0.10812314599752426,-0.2321287989616394
1782774937336452000,8.1224521484375,-0.10567969083786011,-0.14233160018920898,-0.13561208546161652
1782774937346485200,8.1324853515625,-0.0910189226269722,-0.1014036312699318,-0.042760565876960754
1782774937356471600,8.142471435546875,-0.07147123664617538,-0.054367005825042725,0.01710422709584236
1782774937366472200,8.15247216796875,-0.05192354694008827,-0.04642575979232788,0.04337143152952194
1782774937376460500,8.16246044921875,-0.03726277872920036,-0.04153883829712868,0.0403171069920063
1782774937386492000,8.172491943359375,-0.03176499158143997,-0.03176499158143997,0.013439035043120384
1782774937396449500,8.182449462890625,-0.03848451003432274,-0.022602014243602753,-0.031154127791523933
1782774937406481000,8.19248095703125,-0.039095375686883926,-0.00733038317412138,-0.06902777403593063
1782774937416469200,8.20246923828125,-0.039095375686883926,0.004886921960860491,-0.08735372871160507
1782774937426470000,8.212469970703125,-0.04398229718208313,-0.028099801391363144,-0.07880161702632904
1782774937436458000,8.2224580078125,-0.03787364438176155,-0.0403171069920063,-0.05803219974040985
1782774937446489300,8.2324892578125,-0.042760565876960754,-0.033597588539123535,-0.04398229718208313
1782774937456447000,8.242447021484375,-0.039095375686883926,-0.021380282938480377,-0.0354301854968071
1782774937466478300,8.252478271484375,-0.012217304669320583,-0.0024434609804302454,-0.019547687843441963
1782774937476466700,8.262466796875,0.014049900695681572,-0.0012217304902151227,0.005497787147760391
1782774937486497800,8.272497802734375,0.028099801391363144,-0.027488935738801956,0.03481931984424591
1782774937496455700,8.28245556640625,0.02076941914856434,-0.030543262138962746,0.06841690838336945
1782774937506487000,8.292487060546875,-0.00366519158706069,-0.029932396486401558,0.0708603709936142
1782774937516475100,8.30247509765625,-0.01466076634824276,-0.0024434609804302454,0.04092797264456749
1782774937526476000,8.31247607421875,-0.01038470957428217,0.00733038317412138,-0.00427605677396059
1782774937536464100,8.322464111328125,0.01038470957428217,-0.001832595793530345,-0.036041051149368286
1782774937546495500,8.33249560546875,0.018325956538319588,-0.022602014243602753,-0.05009094998240471
1782774937556453000,8.342453125,0.024434609338641167,-0.03481931984424591,-0.059864792972803116
1782774937566484500,8.352484375,0.02871066704392433,-0.019547687843441963,-0.07452555745840073
1782774937576472800,8.362472900390625,0.019547687843441963,-0.0006108652451075613,-0.08002334833145142
1782774937586473500,8.372473388671875,0.0024434609804302454,-0.001832595793530345,-0.06536258012056351
1782774937596461800,8.3824619140625,-0.021380282938480377,-0.012828170321881771,-0.054367005825042725
1782774937606493200,8.3924931640625,-0.01771509274840355,-0.01710422709584236,-0.04214970022439957
1782774937616450800,8.402450927734375,0.003054326167330146,-0.022602014243602753,-0.024434609338641167
1782774937626484000,8.41248388671875,0.03481931984424591,0.03726277872920036,0.05497787147760391
1782774937636470500,8.422470458984375,0.04398229718208313,0.02626720629632473,0.2724458873271942
1782774937646471000,8.432470947265625,0.09712757170200348,-0.2816088795661926,0.29993483424186707
1782774937656459500,8.44245947265625,0.12400564551353455,-0.0861319974064827,0.2681698501110077
1782774937666490000,8.452489990234374,0.06841690838336945,0.02626720629632473,0.1466076523065567
1782774937676448500,8.462448486328125,0.02015855349600315,0.06841690838336945,0.012217304669320583
1782774937686479400,8.472479248046875,-0.001832595793530345,0.0959058403968811,-0.07269296050071716
1782774937696468000,8.482468017578125,-0.02321287989616394,0.009773843921720982,-0.12278391420841217
1782774937706468600,8.492468505859375,-0.02626720629632473,-0.060475658625364304,-0.15271630883216858
1782774937716457000,8.50245703125,-0.048258353024721146,-0.07391469180583954,-0.1820378452539444
1782774937726488300,8.51248828125,-0.08491026610136032,-0.08246681094169617,-0.20463985204696655
1782774937736476400,8.522476318359375,-0.10995574295520782,-0.08246681094169617,-0.1973094791173935
1782774937746477300,8.532477294921875,-0.11545353382825851,-0.0806342139840126,-0.16249015927314758
