time,seconds_elapsed,z,y,x
1782774142395897600,0.307897705078125,-0.00366519158706069,-0.06536258012056351,0.03481931984424591
1782774142406478000,0.31847802734375,-0.00366519158706069,-0.06536258012056351,0.03481931984424591
1782774142416467200,0.32846728515625,-0.00366519158706069,-0.06536258012056351,0.03481931984424591
1782774142426497500,0.33849755859375,-0.00366519158706069,-0.06536258012056351,0.03481931984424591
1782774142436456200,0.348456298828125,-0.03726277872920036,0.025656340643763542,-0.009162978269159794
1782774142446486800,0.35848681640625,-0.04337143152952194,0.012828170321881771,-0.03848451003432274
1782774142456475600,0.3684755859375,-0.0403171069920063,0.036651913076639175,-0.06230825558304787
1782774142466475800,0.378475830078125,-0.04642575979232788,0.048258353024721146,-0.08491026610136032
1782774142476465000,0.38846484375,-0.056810468435287476,0.033597588539123535,-0.09040805697441101
1782774142486495500,0.39849560546875,-0.06658431142568588,0.01160643994808197,-0.0708603709936142
1782774142496454000,0.408453857421875,-0.07391469180583954,-0.04153883829712868,-0.04948008432984352
1782774142506484200,0.418484130859375,-0.07757988572120667,-0.07819075137376785,-0.027488935738801956
1782774142516473600,0.4284736328125,-0.07757988572120667,-0.07208210229873657,-0.00427605677396059
1782774142526473500,0.438473388671875,-0.07269296050071716,-0.045204028487205505,0.009162978269159794
1782774142536462300,0.44846240234375,-0.07269296050071716,-0.012828170321881771,0.02015855349600315
1782774142546493200,0.4584931640625,-0.07269296050071716,0,0.019547687843441963
1782774142556451300,0.468451416015625,-0.06291911751031876,-0.01466076634824276,0.00855211354792118
1782774142566482000,0.47848193359375,-0.0507018156349659,-0.01038470957428217,-0.012828170321881771
1782774142576470800,0.488470703125,-0.04459316283464432,0.010995574295520782,-0.04886921867728233
1782774142586470700,0.498470703125,-0.03848451003432274,0.033597588539123535,-0.0757472887635231
1782774142596460000,0.5084599609375,-0.04153883829712868,0.03237585723400116,-0.09407325088977814
1782774142606490400,0.518490478515625,-0.05253441259264946,-0.009773843921720982,-0.10262536257505417
1782774142616449000,0.528448974609375,-0.054367005825042725,-0.04398229718208313,-0.10018189996480942
1782774142626479400,0.538479248046875,-0.039095375686883926,-0.0757472887635231,-0.08185594528913498
1782774142636498400,0.54849853515625,-0.013439035043120384,-0.05375614017248154,-0.04764748737215996
1782774142646468400,0.55846826171875,0.005497787147760391,-0.01466076634824276,-0.02626720629632473
1782774142656457500,0.56845751953125,0.025656340643763542,0.014049900695681572,-0.02321287989616394
1782774142666488000,0.578488037109375,0.04459316283464432,0.039095375686883926,-0.012828170321881771
1782774142676477200,0.588477294921875,0.045204028487205505,0.039706241339445114,-0.00733038317412138
1782774142686477000,0.59847705078125,0.029932396486401558,0.009773843921720982,-0.014049900695681572
1782774142696466000,0.6084658203125,0.024434609338641167,-0.01466076634824276,-0.015882495790719986
1782774142706496300,0.618496337890625,0.007941247895359993,-0.018325956538319588,-0.010995574295520782
1782774142716455200,0.628455078125,-0.021991148591041565,-0.039095375686883926,-0.015882495790719986
1782774142726485800,0.63848583984375,-0.04337143152952194,-0.03726277872920036,-0.021380282938480377
1782774142736474600,0.648474609375,-0.04886921867728233,-0.018936822190880775,-0.036041051149368286
1782774142746474500,0.658474609375,-0.042760565876960754,-0.014049900695681572,-0.05864306539297104
1782774142756463600,0.668463623046875,-0.02382374368607998,-0.00427605677396059,-0.06780604273080826
1782774142766494000,0.678493896484375,0.001832595793530345,-0.019547687843441963,-0.04153883829712868
1782774142776452600,0.68845263671875,0.014049900695681572,-0.02687807008624077,-0.015271631069481373
1782774142786483200,0.698483154296875,0.01466076634824276,-0.02015855349600315,-0.00366519158706069
1782774142796472300,0.708472412109375,-0.0012217304902151227,0.00733038317412138,0.0012217304902151227
1782774142806472000,0.718471923828125,-0.021991148591041565,0.02932153269648552,-0.004886921960860491
1782774142816460000,0.7284599609375,-0.03176499158143997,0.018936822190880775,-0.013439035043120384
1782774142826491100,0.7384912109375,-0.018325956538319588,0.00733038317412138,-0.007941247895359993
1782774142836449500,0.748449462890625,0.0006108652451075613,-0.0024434609804302454,0.005497787147760391
1782774142846480100,0.758480224609375,0.010995574295520782,0.014049900695681572,0.015882495790719986
1782774142856469200,0.76846923828125,0.00733038317412138,0.05314527451992035,0.018936822190880775
1782774142866468900,0.77846875,0.005497787147760391,0.09224065393209457,0.005497787147760391
1782774142876458000,0.7884580078125,0.012828170321881771,0.09468411654233932,0.0024434609804302454
1782774142886488600,0.798488525390625,0.01038470957428217,0.0507018156349659,0.028099801391363144
1782774142896447000,0.808447021484375,0.0006108652451075613,-0.0024434609804302454,0.05619960278272629
1782774142906477600,0.8184775390625,-0.018936822190880775,-0.02932153269648552,0.07269296050071716
1782774142916467200,0.82846728515625,-0.0354301854968071,-0.01710422709584236,0.06169738993048668
1782774142926497800,0.838497802734375,-0.04153883829712868,0.018325956538319588,0.025656340643763542
1782774142936456200,0.848456298828125,-0.027488935738801956,0.03848451003432274,-0.014049900695681572
1782774142946486800,0.85848681640625,0.00366519158706069,0.05925392732024193,-0.03726277872920036
1782774142956475600,0.8684755859375,0.02321287989616394,0.06658431142568588,-0.051312681287527084
1782774142966475800,0.878475830078125,0.030543262138962746,0.05192354694008827,-0.039095375686883926
1782774142976465000,0.88846484375,0.024434609338641167,0.03726277872920036,-0.00855211354792118
1782774142986495000,0.898494873046875,0.012217304669320583,0.015271631069481373,0.019547687843441963
1782774142996454000,0.908453857421875,0.00366519158706069,-0.003054326167330146,0.031154127791523933
1782774143006484200,0.918484130859375,0.001832595793530345,-0.021991148591041565,0.03298672288656235
1782774143016473300,0.928473388671875,0.001832595793530345,-0.027488935738801956,0.025045474991202354
1782774143026473200,0.93847314453125,0.006108652334660292,-0.014049900695681572,-0.0012217304902151227
1782774143036462300,0.94846240234375,0.0012217304902151227,0.00366519158706069,-0.02932153269648552
1782774143046493000,0.958492919921875,-0.0024434609804302454,0.021991148591041565,-0.04337143152952194
1782774143056451300,0.968451416015625,-0.005497787147760391,0.02871066704392433,-0.0555887371301651
1782774143066481700,0.978481689453125,-0.005497787147760391,0.02871066704392433,-0.05864306539297104
1782774143076470800,0.988470703125,-0.0006108652451075613,0.016493361443281174,-0.04948008432984352
1782774143086470700,0.998470703125,0.006719517521560192,0.003054326167330146,-0.033597588539123535
1782774143096460000,1.0084599609375,0.01160643994808197,-0.0006108652451075613,-0.021991148591041565
1782774143106490400,1.018490478515625,0.004886921960860491,-0.009773843921720982,-0.016493361443281174
1782774143116448800,1.02844873046875,-0.010995574295520782,-0.01466076634824276,-0.018325956538319588
1782774143126479400,1.038479248046875,-0.014049900695681572,-0.00733038317412138,-0.025656340643763542
1782774143136468200,1.04846826171875,-0.007941247895359993,0.00733038317412138,-0.030543262138962746
1782774143146468600,1.058468505859375,-0.00855211354792118,0.01160643994808197,-0.03237585723400116
1782774143156457500,1.06845751953125,-0.015271631069481373,0.015882495790719986,-0.03298672288656235
1782774143166488000,1.078488037109375,-0.022602014243602753,0.036041051149368286,-0.025656340643763542
1782774143176477000,1.088476806640625,-0.03298672288656235,0.021380282938480377,-0.02871066704392433
1782774143186476800,1.098476806640625,-0.03237585723400116,0.01160643994808197,-0.01771509274840355
1782774143196466000,1.1084658203125,-0.02321287989616394,-0.00366519158706069,-0.004886921960860491
1782774143206496500,1.11849658203125,-0.006719517521560192,-0.009773843921720982,0.006719517521560192
1782774143216455000,1.128454833984375,0,-0.00427605677396059,0.02321287989616394
1782774143226485200,1.1384853515625,-0.0024434609804302454,0.00733038317412138,0.03176499158143997
1782774143236474600,1.148474609375,-0.016493361443281174,0.006108652334660292,0.027488935738801956
1782774143246474800,1.158474853515625,-0.015882495790719986,0.012828170321881771,0.01710422709584236
1782774143256463600,1.168463623046875,-0.007941247895359993,0.028099801391363144,0.018325956538319588
1782774143266494200,1.178494140625,-0.0006108652451075613,0.021991148591041565,0.019547687843441963
1782774143276452600,1.18845263671875,0.00733038317412138,0.012217304669320583,0.02382374368607998
1782774143286483000,1.19848291015625,0.00855211354792118,0.00855211354792118,0.039095375686883926
1782774143296472000,1.20847216796875,0.0012217304902151227,0.013439035043120384,0.048258353024721146
1782774143306472000,1.218471923828125,-0.01160643994808197,0.005497787147760391,0.0403171069920063
1782774143316461000,1.2284609375,-0.010995574295520782,0.010995574295520782,0.036041051149368286
1782774143326491600,1.23849169921875,-0.001832595793530345,0.02687807008624077,0.04703662544488907
1782774143336450000,1.248449951171875,-0.00733038317412138,0.02687807008624077,0.06902777403593063
1782774143346480600,1.258480712890625,-0.018325956538319588,0.028099801391363144,0.0861319974064827
1782774143356469500,1.268469482421875,-0.028099801391363144,0.031154127791523933,0.09407325088977814
1782774143366469400,1.278469482421875,-0.031154127791523933,0.027488935738801956,0.0910189226269722
1782774143376458800,1.288458740234375,-0.021991148591041565,0.012217304669320583,0.08491026610136032
1782774143386489000,1.298489013671875,-0.006108652334660292,-0.010995574295520782,0.07757988572120667
1782774143396447700,1.30844775390625,0.006108652334660292,-0.01771509274840355,0.06169738993048668
1782774143406478000,1.31847802734375,0.01160643994808197,-0.007941247895359993,0.0555887371301651
1782774143416467200,1.32846728515625,0.009162978269159794,0.009162978269159794,0.05925392732024193
1782774143426497500,1.33849755859375,-0.005497787147760391,0.021991148591041565,0.05925392732024193
1782774143436416000,1.348416015625,-0.021991148591041565,0.03237585723400116,0.05864306539297104
1782774143446547700,1.358547607421875,-0.03787364438176155,0.030543262138962746,0.05009094998240471
1782774143456435700,1.368435791015625,-0.048258353024721146,0.022602014243602753,0.04214970022439957
1782774143466567400,1.3785673828125,-0.0507018156349659,0.022602014243602753,0.033597588539123535
1782774143476465000,1.38846484375,-0.051312681287527084,0.01160643994808197,0.03298672288656235
1782774143486495200,1.3984951171875,-0.04153883829712868,-0.0012217304902151227,0.04398229718208313
1782774143496454000,1.408453857421875,-0.03237585723400116,-0.01160643994808197,0.04337143152952194
1782774143506484200,1.418484130859375,-0.01466076634824276,-0.00427605677396059,0.033597588539123535
1782774143516473300,1.428473388671875,0.0012217304902151227,0.012828170321881771,0.03848451003432274
1782774143526473200,1.43847314453125,0.00427605677396059,0.00733038317412138,0.03237585723400116
1782774143536462300,1.44846240234375,0.005497787147760391,-0.0006108652451075613,0.018936822190880775
1782774143546492700,1.45849267578125,0,-0.012217304669320583,0.02015855349600315
1782774143556451300,1.468451416015625,-0.00366519158706069,-0.012217304669320583,0.03726277872920036
1782774143566482200,1.478482177734375,-0.01038470957428217,-0.00855211354792118,0.04581489413976669
1782774143576470800,1.488470703125,-0.018936822190880775,0.0024434609804302454,0.04948008432984352
1782774143586471000,1.498470947265625,-0.01710422709584236,0.025656340643763542,0.0507018156349659
1782774143596460000,1.5084599609375,-0.0006108652451075613,0.02321287989616394,0.030543262138962746
1782774143606490000,1.518489990234375,0.007941247895359993,0.012217304669320583,0.02871066704392433
1782774143616448800,1.52844873046875,0.012828170321881771,-0.0006108652451075613,0.033597588539123535
1782774143626479000,1.53847900390625,0.009773843921720982,-0.006108652334660292,0.036041051149368286
1782774143636468500,1.548468505859375,0.005497787147760391,0.007941247895359993,0.03420845419168472
1782774143646468400,1.55846826171875,0.004886921960860491,0.02015855349600315,0.03420845419168472
1782774143656457500,1.56845751953125,0.004886921960860491,0.003054326167330146,0.03298672288656235
1782774143666488000,1.578488037109375,0.009162978269159794,-0.019547687843441963,0.03726277872920036
1782774143676477000,1.588476806640625,0.01466076634824276,-0.022602014243602753,0.04398229718208313
1782774143686477000,1.59847705078125,0.012828170321881771,-0.02076941914856434,0.045204028487205505
1782774143696466200,1.608466064453125,-0.0024434609804302454,-0.02626720629632473,0.0507018156349659
1782774143706496500,1.61849658203125,-0.01710422709584236,-0.03481931984424591,0.0555887371301651
1782774143716455200,1.628455078125,-0.02076941914856434,-0.031154127791523933,0.04886921867728233
1782774143726485800,1.63848583984375,-0.021380282938480377,-0.029932396486401558,0.024434609338641167
1782774143736474400,1.648474365234375,-0.015271631069481373,-0.009162978269159794,-0.003054326167330146
1782774143746474500,1.658474609375,-0.01710422709584236,0.02321287989616394,-0.010995574295520782
1782774143756463600,1.668463623046875,-0.025656340643763542,0.029932396486401558,-0.012828170321881771
1782774143766494000,1.678493896484375,-0.02626720629632473,0.018325956538319588,-0.015271631069481373
1782774143776452600,1.68845263671875,-0.018325956538319588,-0.0006108652451075613,-0.0024434609804302454
1782774143786483000,1.69848291015625,-0.018325956538319588,-0.021991148591041565,0.018936822190880775
1782774143796472300,1.708472412109375,-0.027488935738801956,-0.03726277872920036,0.03298672288656235
1782774143806472400,1.718472412109375,-0.0354301854968071,-0.03420845419168472,0.039706241339445114
1782774143816460000,1.7284599609375,-0.031154127791523933,-0.02321287989616394,0.031154127791523933
1782774143826491100,1.7384912109375,-0.02687807008624077,-0.009162978269159794,0.02932153269648552
1782774143836449500,1.748449462890625,-0.021380282938480377,-0.003054326167330146,0.03787364438176155
1782774143846480100,1.758480224609375,-0.00427605677396059,-0.003054326167330146,0.03726277872920036
1782774143856469200,1.76846923828125,0.01160643994808197,-0.001832595793530345,0.0354301854968071
1782774143866469000,1.77846923828125,0.016493361443281174,-0.004886921960860491,0.027488935738801956
1782774143876458200,1.788458251953125,0.006719517521560192,-0.01038470957428217,0.01710422709584236
1782774143886488300,1.79848828125,-0.00366519158706069,-0.015882495790719986,0.009162978269159794
1782774143896447000,1.808447021484375,-0.009162978269159794,-0.02321287989616394,-0.0006108652451075613
1782774143906477600,1.8184775390625,0,-0.00733038317412138,-0.009773843921720982
1782774143916467200,1.82846728515625,0.01710422709584236,0.018936822190880775,-0.01160643994808197
1782774143926497800,1.838497802734375,0.029932396486401558,0.028099801391363144,-0.009773843921720982
1782774143936456000,1.8484560546875,0.03237585723400116,0.013439035043120384,0.00366519158706069
1782774143946486800,1.85848681640625,0.031154127791523933,0.0012217304902151227,0.018325956538319588
1782774143956475600,1.8684755859375,0.019547687843441963,-0.01038470957428217,0.025656340643763542
1782774143966475500,1.8784755859375,0.006719517521560192,-0.01710422709584236,0.029932396486401558
1782774143976465000,1.88846484375,-0.006108652334660292,-0.01710422709584236,0.029932396486401558
1782774143986495500,1.89849560546875,-0.016493361443281174,-0.018325956538319588,0.027488935738801956
1782774143996454000,1.908453857421875,-0.016493361443281174,-0.006108652334660292,0.021380282938480377
1782774144006484200,1.918484130859375,-0.009773843921720982,-0.006719517521560192,0.018936822190880775
1782774144016473300,1.928473388671875,0.006719517521560192,-0.009162978269159794,0.012217304669320583
1782774144026473000,1.938472900390625,0.012217304669320583,-0.016493361443281174,0.00427605677396059
1782774144036462300,1.94846240234375,0.019547687843441963,-0.012828170321881771,-0.0006108652451075613
1782774144046492700,1.95849267578125,0.02382374368607998,-0.013439035043120384,-0.0006108652451075613
1782774144056451300,1.968451416015625,0.022602014243602753,-0.018325956538319588,0.009162978269159794
1782774144066481700,1.978481689453125,0.018936822190880775,-0.014049900695681572,0.02076941914856434
1782774144076470800,1.988470703125,0.00855211354792118,-0.0012217304902151227,0.016493361443281174
1782774144086470700,1.998470703125,-0.006108652334660292,0.0006108652451075613,-0.006108652334660292
1782774144096460000,2.0084599609375,-0.009773843921720982,-0.015271631069481373,-0.030543262138962746
1782774144106490400,2.018490478515625,0.005497787147760391,-0.015882495790719986,-0.03481931984424591
1782774144116448800,2.02844873046875,0.018936822190880775,-0.01160643994808197,-0.021991148591041565
1782774144126479400,2.038479248046875,0.03298672288656235,0.006108652334660292,-0.00427605677396059
1782774144136468200,2.04846826171875,0.03237585723400116,0.01710422709584236,0.006108652334660292
1782774144146468400,2.05846826171875,0.02076941914856434,0.02076941914856434,0.012828170321881771
1782774144156457500,2.06845751953125,-0.0006108652451075613,0.015271631069481373,0.005497787147760391
1782774144166488000,2.078488037109375,-0.019547687843441963,0.00366519158706069,-0.01710422709584236
1782774144176477000,2.088476806640625,-0.02321287989616394,-0.00427605677396059,-0.03726277872920036
1782774144186476500,2.0984765625,-0.01771509274840355,-0.01466076634824276,-0.0507018156349659
1782774144196466000,2.1084658203125,-0.00733038317412138,-0.00427605677396059,-0.045204028487205505
1782774144206496300,2.118496337890625,0.00855211354792118,0.01710422709584236,-0.01771509274840355
1782774144216455000,2.128454833984375,0.012217304669320583,0.03237585723400116,0.009773843921720982
1782774144226485500,2.138485595703125,0.01466076634824276,0.05497787147760391,0.03420845419168472
1782774144236474400,2.148474365234375,0.014049900695681572,0.05742133408784866,0.04092797264456749
1782774144246474500,2.158474609375,0.01160643994808197,0.04948008432984352,0.04092797264456749
1782774144256463400,2.16846337890625,0.006108652334660292,0.03420845419168472,0.03481931984424591
1782774144266494200,2.178494140625,-0.00733038317412138,0.012217304669320583,0.010995574295520782
1782774144276452600,2.18845263671875,-0.009773843921720982,0.01038470957428217,-0.028099801391363144
1782774144286483000,2.19848291015625,-0.0012217304902151227,0.025045474991202354,-0.05253441259264946
1782774144296472000,2.20847216796875,0.014049900695681572,0.03237585723400116,-0.059864792972803116
1782774144306472000,2.218471923828125,0.021991148591041565,0.029932396486401558,-0.05009094998240471
1782774144316461000,2.2284609375,0.02687807008624077,0.03298672288656235,-0.02626720629632473
1782774144326491400,2.238491455078125,0.025045474991202354,0.031154127791523933,0.00366519158706069
1782774144336450000,2.248449951171875,0.012217304669320583,0.027488935738801956,0.024434609338641167
1782774144346480600,2.258480712890625,-0.00366519158706069,0.027488935738801956,0.0354301854968071
1782774144356469800,2.2684697265625,-0.015882495790719986,0.019547687843441963,0.036651913076639175
1782774144366469600,2.2784697265625,-0.02076941914856434,0.0006108652451075613,0.03237585723400116
1782774144376458500,2.28845849609375,-0.01466076634824276,-0.021991148591041565,0.02015855349600315
1782774144386489300,2.2984892578125,0.0012217304902151227,-0.03237585723400116,0.006108652334660292
1782774144396447700,2.30844775390625,0.018325956538319588,-0.030543262138962746,0.0006108652451075613
1782774144406478000,2.31847802734375,0.02076941914856434,-0.02015855349600315,0.004886921960860491
1782774144416467200,2.32846728515625,0.012828170321881771,-0.010995574295520782,0.01160643994808197
1782774144426497500,2.33849755859375,0.005497787147760391,-0.006719517521560192,0.024434609338641167
1782774144436456200,2.348456298828125,0.0024434609804302454,-0.022602014243602753,0.05253441259264946
1782774144446486800,2.35848681640625,-0.0006108652451075613,-0.028099801391363144,0.06536258012056351
1782774144456475600,2.3684755859375,-0.0012217304902151227,-0.02076941914856434,0.06780604273080826
1782774144466475800,2.378475830078125,-0.006108652334660292,0.00366519158706069,0.06352998316287994
1782774144476465000,2.38846484375,-0.013439035043120384,0.030543262138962746,0.04459316283464432
1782774144486495200,2.3984951171875,-0.01038470957428217,0.04703662544488907,0.02871066704392433
1782774144496454000,2.408453857421875,-0.00733038317412138,0.04398229718208313,0.022602014243602753
1782774144506484200,2.418484130859375,0.003054326167330146,0.036651913076639175,0.015882495790719986
1782774144516473600,2.4284736328125,0.02076941914856434,0.0403171069920063,0.009162978269159794
1782774144526473500,2.438473388671875,0.0354301854968071,0.04337143152952194,0.006719517521560192
1782774144536462300,2.44846240234375,0.03726277872920036,0.04764748737215996,0.013439035043120384
1782774144546493000,2.458492919921875,0.025656340643763542,0.05314527451992035,0.02687807008624077
1782774144556451300,2.468451416015625,0.01038470957428217,0.051312681287527084,0.03420845419168472
1782774144566481700,2.478481689453125,0.0006108652451075613,0.04581489413976669,0.03726277872920036
1782774144576470800,2.488470703125,0.006108652334660292,0.04459316283464432,0.04459316283464432
1782774144586471000,2.498470947265625,0.016493361443281174,0.04703662544488907,0.04459316283464432
1782774144596460000,2.5084599609375,0.029932396486401558,0.05803219974040985,0.03420845419168472
1782774144606490000,2.518489990234375,0.0403171069920063,0.05803219974040985,0.021380282938480377
1782774144616448800,2.52844873046875,0.04092797264456749,0.0354301854968071,0.022602014243602753
1782774144626479400,2.538479248046875,0.02626720629632473,0.01160643994808197,0.02382374368607998
1782774144636495000,2.5484951171875,0.00427605677396059,0,0.019547687843441963
1782774144646468400,2.55846826171875,-0.009773843921720982,-0.006108652334660292,0.010995574295520782
1782774144656457500,2.56845751953125,-0.007941247895359993,-0.0024434609804302454,0.012217304669320583
1782774144666488000,2.578488037109375,0.001832595793530345,-0.003054326167330146,0.018325956538319588
1782774144676477000,2.588476806640625,0.010995574295520782,-0.012828170321881771,0.025656340643763542
1782774144686477000,2.59847705078125,0.02015855349600315,-0.003054326167330146,0.025656340643763542
1782774144696466200,2.608466064453125,0.021380282938480377,0.00366519158706069,0.012217304669320583
1782774144706496500,2.61849658203125,0.006719517521560192,-0.006719517521560192,-0.004886921960860491
1782774144716455200,2.628455078125,0.001832595793530345,-0.013439035043120384,-0.015882495790719986
1782774144726485500,2.638485595703125,0.005497787147760391,-0.02687807008624077,-0.02626720629632473
1782774144736474400,2.648474365234375,0.006719517521560192,-0.03787364438176155,-0.029932396486401558
1782774144746474500,2.658474609375,0.010995574295520782,-0.02932153269648552,-0.02076941914856434
1782774144756463600,2.668463623046875,0.01771509274840355,-0.004886921960860491,-0.00733038317412138
1782774144766494000,2.678493896484375,0.015271631069481373,0.01160643994808197,0.0006108652451075613
1782774144776452600,2.68845263671875,0.00427605677396059,0.00733038317412138,0.003054326167330146
1782774144786483000,2.69848291015625,-0.006719517521560192,0.0024434609804302454,0.00427605677396059
1782774144796472000,2.70847216796875,-0.010995574295520782,0.0024434609804302454,-0.0012217304902151227
1782774144806411000,2.718410888671875,-0.005497787147760391,0.014049900695681572,0.006108652334660292
1782774144816521200,2.728521240234375,-0.003054326167330146,0.019547687843441963,0.02076941914856434
1782774144826491100,2.7384912109375,-0.00427605677396059,0.0006108652451075613,0.030543262138962746
1782774144836410000,2.74841015625,0.004886921960860491,-0.018936822190880775,0.04642575979232788
1782774144846481000,2.75848095703125,0.01038470957428217,0.0012217304902151227,0.06902777403593063
1782774144856530200,2.7685302734375,0.010995574295520782,0.02015855349600315,0.0659734457731247
1782774144866469000,2.77846923828125,0.009773843921720982,0.030543262138962746,0.06108652427792549
1782774144876458200,2.788458251953125,0.010995574295520782,0.02076941914856434,0.05314527451992035
1782774144886488600,2.798488525390625,0.01160643994808197,0.0024434609804302454,0.0403171069920063
1782774144896447000,2.808447021484375,0.01038470957428217,-0.0006108652451075613,0.025656340643763542
1782774144906477600,2.8184775390625,0.00733038317412138,-0.00855211354792118,0.018325956538319588
1782774144916467200,2.82846728515625,0.009773843921720982,-0.006719517521560192,0.018936822190880775
1782774144926497500,2.83849755859375,0.015271631069481373,0.01038470957428217,0.02076941914856434
1782774144936456000,2.8484560546875,0.010995574295520782,0.004886921960860491,0.02321287989616394
1782774144946486800,2.85848681640625,0.01038470957428217,-0.007941247895359993,0.02382374368607998
1782774144956475600,2.8684755859375,0.01160643994808197,-0.02382374368607998,0.010995574295520782
1782774144966475500,2.8784755859375,0.006108652334660292,-0.013439035043120384,-0.003054326167330146
1782774144976465000,2.88846484375,-0.015882495790719986,0.00366519158706069,-0.014049900695681572
1782774144986495000,2.898494873046875,-0.030543262138962746,0.014049900695681572,-0.02076941914856434
1782774144996454000,2.908453857421875,-0.036041051149368286,0.006719517521560192,-0.019547687843441963
1782774145006484200,2.918484130859375,-0.03481931984424591,-0.01771509274840355,-0.016493361443281174
1782774145016473300,2.928473388671875,-0.027488935738801956,-0.036651913076639175,-0.013439035043120384
1782774145026473200,2.93847314453125,-0.01038470957428217,-0.025045474991202354,-0.0024434609804302454
1782774145036462300,2.94846240234375,0,-0.005497787147760391,0.02015855349600315
1782774145046492700,2.95849267578125,-0.005497787147760391,-0.001832595793530345,0.033597588539123535
1782774145056451300,2.968451416015625,-0.02382374368607998,-0.012828170321881771,0.02932153269648552
1782774145066482200,2.978482177734375,-0.04398229718208313,-0.024434609338641167,0.013439035043120384
1782774145076471000,2.988470947265625,-0.0555887371301651,-0.031154127791523933,-0.001832595793530345
1782774145086471000,2.998470947265625,-0.056810468435287476,-0.03848451003432274,-0.01771509274840355
1782774145096459800,3.008459716796875,-0.0354301854968071,-0.03726277872920036,-0.02321287989616394
1782774145106490400,3.018490478515625,-0.01038470957428217,-0.0354301854968071,-0.006719517521560192
1782774145116449000,3.028448974609375,0.00427605677396059,-0.02687807008624077,0.021991148591041565
1782774145126479400,3.038479248046875,0.006719517521560192,-0.014049900695681572,0.04153883829712868
1782774145136468500,3.048468505859375,0.001832595793530345,-0.0006108652451075613,0.04948008432984352
1782774145146468400,3.05846826171875,-0.00366519158706069,0.007941247895359993,0.05009094998240471
1782774145156457500,3.06845751953125,-0.006108652334660292,-0.006108652334660292,0.036651913076639175
1782774145166488000,3.078488037109375,0.0024434609804302454,-0.01160643994808197,0.02321287989616394
1782774145176477000,3.088476806640625,0.010995574295520782,-0.02076941914856434,0.01038470957428217
1782774145186477000,3.09847705078125,0.02015855349600315,-0.02626720629632473,-0.006108652334660292
1782774145196466000,3.1084658203125,0.03237585723400116,-0.00855211354792118,-0.010995574295520782
1782774145206496300,3.118496337890625,0.039706241339445114,0.009773843921720982,0
1782774145216455000,3.128454833984375,0.04153883829712868,0.028099801391363144,0.014049900695681572
1782774145226485500,3.138485595703125,0.03237585723400116,0.02626720629632473,0.02321287989616394
1782774145236474400,3.148474365234375,0.025045474991202354,0.013439035043120384,0.031154127791523933
1782774145246474500,3.158474609375,0.02015855349600315,0.00366519158706069,0.03298672288656235
1782774145256463400,3.16846337890625,0.015271631069481373,0.007941247895359993,0.029932396486401558
1782774145266494200,3.178494140625,0.00855211354792118,0.007941247895359993,0.028099801391363144
1782774145276452600,3.18845263671875,0.001832595793530345,-0.0024434609804302454,0.016493361443281174
1782774145286483000,3.19848291015625,0.00427605677396059,-0.0006108652451075613,0
1782774145296472000,3.20847216796875,0.01160643994808197,0.009773843921720982,-0.00366519158706069
1782774145306472000,3.218471923828125,0.01160643994808197,0.001832595793530345,0.0012217304902151227
1782774145316461000,3.2284609375,0.012828170321881771,-0.0006108652451075613,-0.0006108652451075613
1782774145326491400,3.238491455078125,0.016493361443281174,0.013439035043120384,0.006108652334660292
1782774145336450000,3.248449951171875,0.012217304669320583,0.012217304669320583,0.015271631069481373
1782774145346480600,3.258480712890625,0.00855211354792118,-0.00427605677396059,0.02932153269648552
1782774145356469500,3.268469482421875,0.0024434609804302454,-0.018936822190880775,0.03481931984424591
1782774145366469600,3.2784697265625,-0.0012217304902151227,-0.02687807008624077,0.02687807008624077
1782774145376458800,3.288458740234375,-0.01160643994808197,-0.021991148591041565,0.001832595793530345
1782774145386488800,3.29848876953125,-0.018936822190880775,-0.00733038317412138,-0.02687807008624077
1782774145396447700,3.30844775390625,-0.02626720629632473,-0.015882495790719986,-0.05009094998240471
1782774145406478000,3.31847802734375,-0.02321287989616394,-0.02687807008624077,-0.06169738993048668
1782774145416467200,3.32846728515625,-0.007941247895359993,-0.033597588539123535,-0.06230825558304787
1782774145426497800,3.338497802734375,0.018325956538319588,-0.02687807008624077,-0.04581489413976669
1782774145436456200,3.348456298828125,0.0354301854968071,-0.01771509274840355,-0.01771509274840355
1782774145446486800,3.35848681640625,0.031154127791523933,-0.019547687843441963,0.006108652334660292
1782774145456475600,3.3684755859375,0.01771509274840355,-0.00855211354792118,0.02382374368607998
1782774145466475500,3.3784755859375,-0.0012217304902151227,-0.010995574295520782,0.031154127791523933
1782774145476465000,3.38846484375,-0.01710422709584236,-0.02015855349600315,0.028099801391363144
1782774145486495500,3.39849560546875,-0.025045474991202354,-0.025656340643763542,0.00855211354792118
1782774145496454000,3.408453857421875,-0.01710422709584236,-0.02321287989616394,-0.006719517521560192
1782774145506484200,3.418484130859375,-0.005497787147760391,-0.016493361443281174,-0.016493361443281174
1782774145516473300,3.428473388671875,0.004886921960860491,-0.00855211354792118,-0.02076941914856434
1782774145526473200,3.43847314453125,0.021380282938480377,-0.0012217304902151227,-0.016493361443281174
1782774145536462300,3.44846240234375,0.025045474991202354,-0.003054326167330146,0
1782774145546493000,3.458492919921875,0.021991148591041565,-0.013439035043120384,0.02382374368607998
1782774145556451300,3.468451416015625,0.01771509274840355,-0.018936822190880775,0.045204028487205505
1782774145566481400,3.4784814453125,0.01710422709584236,-0.006108652334660292,0.05497787147760391
1782774145576470800,3.488470703125,0.019547687843441963,0.015271631069481373,0.060475658625364304
1782774145586470700,3.498470703125,0.02321287989616394,0.00855211354792118,0.05742133408784866
1782774145596460000,3.5084599609375,0.029932396486401558,-0.009773843921720982,0.042760565876960754
1782774145606490400,3.518490478515625,0.036041051149368286,-0.013439035043120384,0.018936822190880775
1782774145616408800,3.528408935546875,0.036041051149368286,-0.00366519158706069,-0.00427605677396059
1782774145626540300,3.538540283203125,0.02626720629632473,0.009773843921720982,-0.02687807008624077
1782774145636468500,3.548468505859375,0.016493361443281174,0.02321287989616394,-0.04764748737215996
1782774145646468400,3.55846826171875,0.014049900695681572,0.031154127791523933,-0.05253441259264946
1782774145656457500,3.56845751953125,0.015882495790719986,0.010995574295520782,-0.042760565876960754
1782774145666488000,3.578488037109375,0.028099801391363144,0.0012217304902151227,-0.024434609338641167
1782774145676477000,3.588476806640625,0.03481931984424591,-0.00427605677396059,0.001832595793530345
1782774145686476800,3.598476806640625,0.02932153269648552,-0.0024434609804302454,0.013439035043120384
1782774145696466200,3.608466064453125,0.00855211354792118,0.0354301854968071,0.0006108652451075613
1782774145706496300,3.618496337890625,-0.00855211354792118,0.048258353024721146,-0.021991148591041565
1782774145716455000,3.628454833984375,-0.018325956538319588,0.0354301854968071,-0.039706241339445114
1782774145726424600,3.638424560546875,-0.015271631069481373,0.025045474991202354,-0.03726277872920036
1782774145736535600,3.64853564453125,-0.01038470957428217,0.013439035043120384,-0.028099801391363144
1782774145746474500,3.658474609375,-0.00427605677396059,0.007941247895359993,-0.015271631069481373
1782774145756463600,3.668463623046875,0.003054326167330146,0.01710422709584236,-0.005497787147760391
1782774145766433300,3.678433349609375,0.010995574295520782,0.039706241339445114,0.006719517521560192
1782774145776544300,3.688544189453125,0.007941247895359993,0.04153883829712868,0.012217304669320583
1782774145786483000,3.69848291015625,-0.00733038317412138,0.021991148591041565,0.010995574295520782
1782774145796472300,3.708472412109375,-0.006108652334660292,0.003054326167330146,-0.003054326167330146
1782774145806472000,3.718471923828125,0.00366519158706069,-0.006719517521560192,-0.02076941914856434
1782774145816460000,3.7284599609375,0.019547687843441963,-0.001832595793530345,-0.042760565876960754
1782774145826491100,3.7384912109375,0.029932396486401558,0.01038470957428217,-0.05619960278272629
1782774145836449500,3.748449462890625,0.0354301854968071,0.018325956538319588,-0.0507018156349659
1782774145846480100,3.758480224609375,0.04764748737215996,0.022602014243602753,-0.036041051149368286
1782774145856469200,3.76846923828125,0.054367005825042725,0.029932396486401558,-0.025656340643763542
1782774145866468900,3.77846875,0.05253441259264946,0.036041051149368286,-0.018325956538319588
1782774145876458200,3.788458251953125,0.042760565876960754,0.03726277872920036,-0.009162978269159794
1782774145886488600,3.798488525390625,0.03176499158143997,0.04642575979232788,-0.012217304669320583
1782774145896447000,3.808447021484375,0.018936822190880775,0.05192354694008827,-0.018936822190880775
1782774145906477600,3.8184775390625,0,0.0354301854968071,-0.02321287989616394
1782774145916467200,3.82846728515625,-0.018325956538319588,0.025656340643763542,-0.02871066704392433
1782774145926436900,3.838436767578125,-0.028099801391363144,0.0354301854968071,-0.027488935738801956
1782774145936547800,3.8485478515625,-0.036651913076639175,0.045204028487205505,-0.02626720629632473
1782774145946425900,3.85842578125,-0.04153883829712868,0.051312681287527084,-0.019547687843441963
1782774145956527000,3.868527099609375,-0.04337143152952194,0.06169738993048668,-0.004886921960860491
1782774145966520300,3.878520263671875,-0.04214970022439957,0.06902777403593063,0.00366519158706069
1782774145976465000,3.88846484375,-0.042760565876960754,0.0757472887635231,0.006108652334660292
1782774145986495200,3.8984951171875,-0.04153883829712868,0.07330382615327835,0.0006108652451075613
1782774145996454000,3.908453857421875,-0.059864792972803116,0.06108652427792549,0
1782774146006484200,3.918484130859375,-0.0757472887635231,0.042760565876960754,0.003054326167330146
1782774146016433200,3.92843310546875,-0.07696902006864548,0.03420845419168472,0
1782774146026565000,3.938565185546875,-0.06902777403593063,0.030543262138962746,-0.0006108652451075613
1782774146036462300,3.94846240234375,-0.06291911751031876,0.04398229718208313,0.0006108652451075613
1782774146046493000,3.958492919921875,-0.05803219974040985,0.07635815441608429,-0.005497787147760391
1782774146056451300,3.968451416015625,-0.05375614017248154,0.09224065393209457,-0.022602014243602753
1782774146066481700,3.978481689453125,-0.04764748737215996,0.07452555745840073,-0.036651913076639175
1782774146076470800,3.988470703125,-0.039706241339445114,0.04459316283464432,-0.03787364438176155
1782774146086471000,3.998470947265625,-0.03787364438176155,0.02871066704392433,-0.02871066704392433
1782774146096459800,4.008459716796875,-0.04092797264456749,0.039095375686883926,-0.018936822190880775
1782774146106490400,4.018490478515625,-0.04642575979232788,0.0659734457731247,-0.012217304669320583
1782774146116449300,4.02844921875,-0.060475658625364304,0.06169738993048668,0.00427605677396059
1782774146126479400,4.038479248046875,-0.06291911751031876,0.05009094998240471,0.012217304669320583
1782774146136468200,4.04846826171875,-0.05314527451992035,0.05253441259264946,0.007941247895359993
1782774146146407700,4.05840771484375,-0.03481931984424591,0.06902777403593063,-0.009162978269159794
1782774146156548900,4.068548828125,-0.03237585723400116,0.07635815441608429,-0.021380282938480377
1782774146166488000,4.078488037109375,-0.03237585723400116,0.06414084881544113,-0.0354301854968071
1782774146176477000,4.088476806640625,-0.019547687843441963,0.05192354694008827,-0.051312681287527084
1782774146186477000,4.09847705078125,-0.006108652334660292,0.05192354694008827,-0.04948008432984352
1782774146196466200,4.108466064453125,-0.00427605677396059,0.05314527451992035,-0.03848451003432274
1782774146206435600,4.118435546875,-0.005497787147760391,0.06169738993048668,-0.033597588539123535
1782774146216546600,4.128546630859375,-0.013439035043120384,0.059864792972803116,-0.03176499158143997
1782774146226424600,4.138424560546875,-0.021991148591041565,0.04886921867728233,-0.028099801391363144
1782774146236495400,4.148495361328125,-0.029932396486401558,0.02932153269648552,-0.024434609338641167
1782774146246566100,4.158566162109375,-0.028099801391363144,0.018325956538319588,-0.02321287989616394
1782774146256423400,4.16842333984375,-0.01771509274840355,0.018936822190880775,-0.02321287989616394
1782774146266494200,4.178494140625,-0.007941247895359993,0.02382374368607998,-0.02687807008624077
1782774146277324000,4.189323974609375,0.0024434609804302454,0.02932153269648552,-0.02932153269648552
1782774146296472300,4.208472412109375,0.03420845419168472,0.048258353024721146,-0.01038470957428217
1782774146306472000,4.218471923828125,0.04703662544488907,0.04153883829712868,0.0006108652451075613
1782774146316461000,4.2284609375,0.05803219974040985,0.03481931984424591,0.012217304669320583
1782774146326491600,4.23849169921875,0.07513642311096191,0.03481931984424591,0.021991148591041565
1782774146336450000,4.248449951171875,0.0910189226269722,0.039095375686883926,0.02076941914856434
1782774146346480600,4.258480712890625,0.09712757170200348,0.04642575979232788,0.009162978269159794
1782774146356469500,4.268469482421875,0.09285151958465576,0.06169738993048668,-0.01160643994808197
1782774146366470000,4.278469970703125,0.08857546001672745,0.07696902006864548,-0.033597588539123535
1782774146376458800,4.288458740234375,0.07330382615327835,0.08552113175392151,-0.039706241339445114
1782774146386489300,4.2984892578125,0.051312681287527084,0.04948008432984352,-0.04398229718208313
1782774146396447700,4.30844775390625,0.054367005825042725,0.022602014243602753,-0.03726277872920036
1782774146406478000,4.31847802734375,0.0757472887635231,0.027488935738801956,-0.012828170321881771
1782774146416467200,4.32846728515625,0.09468411654233932,0.04581489413976669,0.013439035043120384
1782774146426497800,4.338497802734375,0.09346238523721695,0.059864792972803116,0.03481931984424591
1782774146436456200,4.348456298828125,0.07880161702632904,0.07391469180583954,0.05314527451992035
1782774146446486800,4.35848681640625,0.0507018156349659,0.06719517707824707,0.05253441259264946
1782774146456475600,4.3684755859375,0.021380282938480377,0.054367005825042725,0.03481931984424591
1782774146466475800,4.378475830078125,0.001832595793530345,0.04214970022439957,0.00366519158706069
1782774146476465000,4.38846484375,0.0012217304902151227,0.02687807008624077,-0.031154127791523933
1782774146486495000,4.398494873046875,0.012828170321881771,0.01710422709584236,-0.04703662544488907
1782774146496454000,4.408453857421875,0.02871066704392433,0.015882495790719986,-0.039706241339445114
1782774146506484200,4.418484130859375,0.03726277872920036,0.022602014243602753,-0.022602014243602753
1782774146516473600,4.4284736328125,0.04764748737215996,0.027488935738801956,0.0006108652451075613
1782774146526473500,4.438473388671875,0.06414084881544113,0.015882495790719986,0.012828170321881771
1782774146536462000,4.448462158203125,0.0910189226269722,0.012828170321881771,0.025656340643763542
1782774146546493000,4.458492919921875,0.08552113175392151,0.01038470957428217,0.027488935738801956
1782774146556451300,4.468451416015625,0.0659734457731247,0.022602014243602753,0.025045474991202354
1782774146566482200,4.478482177734375,0.042760565876960754,0.03237585723400116,0.02076941914856434
1782774146576470800,4.488470703125,0.02687807008624077,0.015271631069481373,0.01771509274840355
1782774146586410000,4.498409912109375,0.021991148591041565,0,0.02076941914856434
1782774146597320000,4.50931982421875,0.02871066704392433,0.003054326167330146,0.02687807008624077
1782774146616449000,4.528448974609375,0.025656340643763542,0.04337143152952194,0.04153883829712868
1782774146626479600,4.538479736328125,0.02321287989616394,0.048258353024721146,0.03726277872920036
1782774146636498400,4.54849853515625,0.019547687843441963,0.045204028487205505,0.025045474991202354
1782774146646407700,4.55840771484375,0.013439035043120384,0.03481931984424591,0.016493361443281174
1782774146656509000,4.568509033203125,0.00366519158706069,0.018936822190880775,0.018936822190880775
1782774146666549000,4.578549072265625,0.0024434609804302454,0.015882495790719986,0.03176499158143997
1782774146676477000,4.588476806640625,0.001832595793530345,0.03176499158143997,0.04703662544488907
1782774146686477000,4.59847705078125,-0.001832595793530345,0.051312681287527084,0.05192354694008827
1782774146696466200,4.608466064453125,-0.009773843921720982,0.06108652427792549,0.05253441259264946
1782774146706496500,4.61849658203125,-0.02015855349600315,0.05864306539297104,0.04642575979232788
1782774146716455000,4.628454833984375,-0.028099801391363144,0.045204028487205505,0.02687807008624077
1782774146726485500,4.638485595703125,-0.02382374368607998,0.04337143152952194,0.009162978269159794
1782774146736474400,4.648474365234375,-0.019547687843441963,0.06475171446800232,0.013439035043120384
1782774146746413600,4.65841357421875,-0.02076941914856434,0.0757472887635231,0.02871066704392433
1782774146757379300,4.66937939453125,-0.02015855349600315,0.0861319974064827,0.05009094998240471
1782774146776452600,4.68845263671875,-0.025045474991202354,0.0806342139840126,0.08246681094169617
1782774146786483200,4.698483154296875,-0.03176499158143997,0.0659734457731247,0.07513642311096191
1782774146796472000,4.70847216796875,-0.042760565876960754,0.06230825558304787,0.04948008432984352
1782774146806472200,4.71847216796875,-0.04153883829712868,0.07269296050071716,0.02626720629632473
1782774146816460000,4.7284599609375,-0.03176499158143997,0.0861319974064827,0.015271631069481373
1782774146826430700,4.7384306640625,-0.02015855349600315,0.08124507963657379,0.009773843921720982
1782774146836501500,4.74850146484375,-0.00427605677396059,0.09346238523721695,0.021380282938480377
1782774146846541000,4.758541015625,0.006719517521560192,0.10445795953273773,0.04153883829712868
1782774146856469200,4.76846923828125,0.006719517521560192,0.10323622822761536,0.06352998316287994
1782774146866468900,4.77846875,-0.0024434609804302454,0.09957103431224823,0.08002334833145142
1782774146876458000,4.7884580078125,-0.00733038317412138,0.08979719132184982,0.08368854224681854
1782774146886488600,4.798488525390625,-0.007941247895359993,0.08674286305904388,0.07330382615327835
1782774146896447000,4.808447021484375,-0.007941247895359993,0.08491026610136032,0.05497787147760391
1782774146906477600,4.8184775390625,-0.0006108652451075613,0.08918632566928864,0.03481931984424591
1782774146916467500,4.828467529296875,0.01160643994808197,0.08918632566928864,0.025656340643763542
1782774146926497800,4.838497802734375,0.02321287989616394,0.08491026610136032,0.019547687843441963
1782774146936456000,4.8484560546875,0.036041051149368286,0.09468411654233932,0.018936822190880775
1782774146946486500,4.858486572265625,0.048258353024721146,0.11545353382825851,0.02382374368607998
1782774146956475600,4.8684755859375,0.04459316283464432,0.13011430203914642,0.039095375686883926
1782774146966475500,4.8784755859375,0.03420845419168472,0.12950342893600464,0.04703662544488907
1782774146976464600,4.888464599609375,0.007941247895359993,0.10506882518529892,0.04459316283464432
1782774146986495000,4.898494873046875,-0.01466076634824276,0.08491026610136032,0.021380282938480377
1782774146996454000,4.908453857421875,-0.02321287989616394,0.10323622822761536,0.00366519158706069
1782774147006484000,4.91848388671875,-0.02687807008624077,0.11239920556545258,0
1782774147016473600,4.9284736328125,-0.018325956538319588,0.10201449692249298,0.012828170321881771
1782774147026473200,4.93847314453125,-0.00855211354792118,0.08796459436416626,0.045204028487205505
1782774147036462300,4.94846240234375,-0.009773843921720982,0.08185594528913498,0.07880161702632904
1782774147046493000,4.958492919921875,-0.02321287989616394,0.07880161702632904,0.09224065393209457
1782774147056451300,4.968451416015625,-0.039095375686883926,0.08491026610136032,0.0806342139840126
1782774147066481700,4.978481689453125,-0.04886921867728233,0.09651670604944229,0.04337143152952194
1782774147076471000,4.988470947265625,-0.054367005825042725,0.10506882518529892,0
1782774147086471000,4.998470947265625,-0.05803219974040985,0.11056660860776901,-0.03176499158143997
1782774147096460000,5.0084599609375,-0.059864792972803116,0.0959058403968811,-0.060475658625364304
1782774147106490400,5.018490478515625,-0.05375614017248154,0.07024950534105301,-0.0659734457731247
1782774147116448800,5.02844873046875,-0.04703662544488907,0.05864306539297104,-0.04214970022439957
1782774147126509800,5.038509765625,-0.051312681287527084,0.048258353024721146,-0.013439035043120384
1782774147136428300,5.04842822265625,-0.06352998316287994,0.04153883829712868,0.009162978269159794
1782774147146560300,5.058560302734375,-0.07208210229873657,0.04214970022439957,0.02871066704392433
1782774147156417300,5.068417236328125,-0.06658431142568588,0.03420845419168472,0.033597588539123535
1782774147166518800,5.078518798828125,-0.05925392732024193,0.010995574295520782,0.019547687843441963
1782774147176537900,5.088537841796875,-0.05009094998240471,0.001832595793530345,-0.00427605677396059
1782774147186416000,5.098416015625,-0.04153883829712868,0.028099801391363144,-0.025656340643763542
1782774147197412600,5.10941259765625,-0.03481931984424591,0.036651913076639175,-0.03481931984424591
1782774147216455000,5.128454833984375,-0.016493361443281174,0.00366519158706069,-0.009162978269159794
1782774147226485500,5.138485595703125,-0.007941247895359993,-0.00855211354792118,0.02015855349600315
1782774147236474400,5.148474365234375,-0.006108652334660292,-0.003054326167330146,0.04398229718208313
1782774147246474800,5.158474853515625,-0.01160643994808197,0.01466076634824276,0.05314527451992035
1782774147256463600,5.168463623046875,-0.015882495790719986,0.027488935738801956,0.05192354694008827
1782774147266494000,5.178493896484375,-0.01466076634824276,0.015882495790719986,0.04337143152952194
1782774147276452600,5.18845263671875,0.00366519158706069,0.009162978269159794,0.03481931984424591
1782774147286483200,5.198483154296875,0.025656340643763542,0.018325956538319588,0.027488935738801956
1782774147296472000,5.20847216796875,0.04092797264456749,0.028099801391363144,0.018325956538319588
1782774147306472000,5.218471923828125,0.060475658625364304,0.04764748737215996,0.025656340643763542
1782774147316461000,5.2284609375,0.07330382615327835,0.04581489413976669,0.04642575979232788
1782774147326491600,5.23849169921875,0.07147123664617538,0.039706241339445114,0.06536258012056351
1782774147336450000,5.248449951171875,0.060475658625364304,0.03298672288656235,0.07208210229873657
1782774147346481000,5.25848095703125,0.05314527451992035,0.0354301854968071,0.07513642311096191
1782774147356469500,5.268469482421875,0.05375614017248154,0.03176499158143997,0.06536258012056351
1782774147366470000,5.278469970703125,0.06475171446800232,0.02932153269648552,0.05253441259264946
1782774147376458800,5.288458740234375,0.07880161702632904,0.06169738993048668,0.05742133408784866
1782774147386489000,5.298489013671875,0.07391469180583954,0.07391469180583954,0.07269296050071716
1782774147396447700,5.30844775390625,0.05497787147760391,0.06963863968849182,0.09407325088977814
1782774147406478000,5.31847802734375,0.036041051149368286,0.06780604273080826,0.10812314599752426
1782774147416467500,5.328467529296875,0.013439035043120384,0.0757472887635231,0.10018189996480942
1782774147426497500,5.33849755859375,-0.013439035043120384,0.08185594528913498,0.08124507963657379
1782774147436456200,5.348456298828125,-0.039095375686883926,0.05619960278272629,0.0659734457731247
1782774147446486500,5.358486572265625,-0.04337143152952194,0.031154127791523933,0.06536258012056351
1782774147456475600,5.3684755859375,-0.042760565876960754,0.024434609338641167,0.08002334833145142
1782774147466476000,5.37847607421875,-0.0507018156349659,0.03237585723400116,0.09957103431224823
1782774147476465000,5.38846484375,-0.06291911751031876,0.05497787147760391,0.1111774742603302
1782774147486495000,5.398494873046875,-0.06963863968849182,0.0659734457731247,0.11545353382825851
1782774147496454000,5.408453857421875,-0.06719517707824707,0.06230825558304787,0.11972958594560623
1782774147506484200,5.418484130859375,-0.06169738993048668,0.02932153269648552,0.12461651116609573
1782774147516473300,5.428473388671875,-0.0507018156349659,-0.001832595793530345,0.12400564551353455
1782774147526473500,5.438473388671875,-0.029932396486401558,-0.00733038317412138,0.11423180252313614
1782774147536462000,5.448462158203125,-0.016493361443281174,0.00855211354792118,0.09285151958465576
1782774147546493000,5.458492919921875,-0.01160643994808197,0.02382374368607998,0.06108652427792549
1782774147556451300,5.468451416015625,-0.00366519158706069,0.02687807008624077,0.02932153269648552
1782774147566482000,5.47848193359375,0.00733038317412138,0.01771509274840355,0.014049900695681572
1782774147576470800,5.488470703125,0.021991148591041565,0.0012217304902151227,0.01038470957428217
1782774147586471000,5.498470947265625,0.03848451003432274,0.00366519158706069,0.015882495790719986
1782774147596460000,5.5084599609375,0.04398229718208313,0.015882495790719986,0.022602014243602753
1782774147606490400,5.518490478515625,0.04642575979232788,0.02321287989616394,0.028099801391363144
1782774147616449000,5.528448974609375,0.04886921867728233,0.00733038317412138,0.04092797264456749
1782774147626479400,5.538479248046875,0.059864792972803116,-0.02626720629632473,0.054367005825042725
1782774147636468500,5.548468505859375,0.07696902006864548,-0.051312681287527084,0.06108652427792549
1782774147646468900,5.55846875,0.08796459436416626,-0.06291911751031876,0.04948008432984352
1782774147656457500,5.56845751953125,0.0959058403968811,-0.05925392732024193,0.012828170321881771
1782774147666488000,5.578488037109375,0.0959058403968811,-0.03420845419168472,-0.016493361443281174
1782774147676477000,5.588476806640625,0.08735372871160507,-0.022602014243602753,-0.029932396486401558
1782774147686477000,5.59847705078125,0.08429940044879913,-0.018936822190880775,-0.02871066704392433
1782774147696466000,5.6084658203125,0.0910189226269722,-0.012217304669320583,-0.016493361443281174
1782774147706496500,5.61849658203125,0.09162978827953339,-0.006108652334660292,0.003054326167330146
1782774147716455000,5.628454833984375,0.0910189226269722,-0.00855211354792118,0.027488935738801956
1782774147726485500,5.638485595703125,0.07819075137376785,-0.018936822190880775,0.0708603709936142
1782774147736434400,5.648434326171875,0.05803219974040985,-0.028099801391363144,0.10262536257505417
1782774147746566100,5.658566162109375,0.036041051149368286,-0.03787364438176155,0.10934487730264664
1782774147756423400,5.66842333984375,0.025045474991202354,-0.027488935738801956,0.10262536257505417
1782774147766555100,5.67855517578125,0.024434609338641167,-0.016493361443281174,0.08674286305904388
1782774147776452600,5.68845263671875,0.039706241339445114,-0.009773843921720982,0.06902777403593063
1782774147786483200,5.698483154296875,0.059864792972803116,-0.00427605677396059,0.06230825558304787
1782774147796472300,5.708472412109375,0.06108652427792549,-0.01038470957428217,0.06291911751031876
1782774147806472000,5.718471923828125,0.04703662544488907,-0.01710422709584236,0.06780604273080826
1782774147816460000,5.7284599609375,0.02626720629632473,-0.021991148591041565,0.07391469180583954
1782774147826491100,5.7384912109375,0.009773843921720982,-0.03237585723400116,0.07880161702632904
1782774147836449500,5.748449462890625,0.014049900695681572,-0.045204028487205505,0.07208210229873657
1782774147846480100,5.758480224609375,0.03298672288656235,-0.045204028487205505,0.054367005825042725
1782774147856469200,5.76846923828125,0.04948008432984352,-0.029932396486401558,0.039706241339445114
1782774147866469400,5.778469482421875,0.05009094998240471,-0.015882495790719986,0.028099801391363144
1782774147876458200,5.788458251953125,0.04642575979232788,-0.006719517521560192,0.01710422709584236
1782774147886488800,5.79848876953125,0.04092797264456749,-0.00855211354792118,0.01771509274840355
1782774147896447000,5.808447021484375,0.03176499158143997,-0.018936822190880775,0.025656340643763542
1782774147906477800,5.818477783203125,0.02321287989616394,-0.039095375686883926,0.02871066704392433
1782774147916467500,5.828467529296875,0.01710422709584236,-0.0555887371301651,0.0354301854968071
1782774147926497500,5.83849755859375,0.018325956538319588,-0.056810468435287476,0.04153883829712868
1782774147936456200,5.848456298828125,0.015271631069481373,-0.0555887371301651,0.04703662544488907
1782774147946486800,5.85848681640625,0.012217304669320583,-0.05497787147760391,0.05009094998240471
1782774147956475600,5.8684755859375,0.00733038317412138,-0.06169738993048668,0.04642575979232788
1782774147966475500,5.8784755859375,0.006719517521560192,-0.07024950534105301,0.03848451003432274
1782774147976464600,5.888464599609375,0.012217304669320583,-0.06841690838336945,0.027488935738801956
1782774147986495000,5.898494873046875,0.02015855349600315,-0.05864306539297104,0.007941247895359993
1782774147996454000,5.908453857421875,0.031154127791523933,-0.04764748737215996,-0.013439035043120384
1782774148006484200,5.918484130859375,0.045204028487205505,-0.029932396486401558,-0.02626720629632473
1782774148016473300,5.928473388671875,0.048258353024721146,-0.03237585723400116,-0.031154127791523933
1782774148026473200,5.93847314453125,0.04459316283464432,-0.04703662544488907,-0.02932153269648552
1782774148036462300,5.94846240234375,0.04642575979232788,-0.0555887371301651,-0.018936822190880775
1782774148046432000,5.958431884765625,0.04581489413976669,-0.04948008432984352,-0.004886921960860491
1782774148056542700,5.968542724609375,0.036041051149368286,-0.03787364438176155,-0.006108652334660292
1782774148066421000,5.9784208984375,0.01771509274840355,-0.019547687843441963,-0.02321287989616394
1782774148076553000,5.988552978515625,0.006108652334660292,0.019547687843441963,-0.02871066704392433
1782774148086562300,5.998562255859375,-0.006108652334660292,0.00855211354792118,-0.016493361443281174
1782774148096460000,6.0084599609375,-0.0012217304902151227,-0.02076941914856434,-0.0006108652451075613
1782774148106490000,6.018489990234375,0.01771509274840355,-0.03787364438176155,0.025045474991202354
1782774148116449000,6.028448974609375,0.0354301854968071,-0.05253441259264946,0.054367005825042725
1782774148126479400,6.038479248046875,0.04764748737215996,-0.03420845419168472,0.0757472887635231
1782774148136468200,6.04846826171875,0.05864306539297104,0.0006108652451075613,0.0806342139840126
1782774148146468400,6.05846826171875,0.05619960278272629,0.021991148591041565,0.07269296050071716
1782774148156457500,6.06845751953125,0.0507018156349659,0.018936822190880775,0.04764748737215996
1782774148166427100,6.07842724609375,0.04214970022439957,0.005497787147760391,0.013439035043120384
1782774148176537900,6.088537841796875,0.028099801391363144,-0.006719517521560192,-0.007941247895359993
1782774148186477000,6.09847705078125,0.018325956538319588,-0.024434609338641167,-0.014049900695681572
1782774148196466200,6.108466064453125,0.021991148591041565,-0.03298672288656235,-0.006108652334660292
1782774148206496300,6.118496337890625,0.0403171069920063,-0.02871066704392433,0.012217304669320583
1782774148216455000,6.128454833984375,0.06536258012056351,-0.007941247895359993,0.03481931984424591
1782774148226485500,6.138485595703125,0.06719517707824707,0.006108652334660292,0.033597588539123535
1782774148236474400,6.148474365234375,0.06475171446800232,0.02076941914856434,0.015271631069481373
1782774148246474800,6.158474853515625,0.05619960278272629,0.025045474991202354,-0.005497787147760391
1782774148256463600,6.168463623046875,0.039706241339445114,0.013439035043120384,-0.030543262138962746
1782774148266494000,6.178493896484375,0.01160643994808197,-0.013439035043120384,-0.04642575979232788
1782774148276452600,6.18845263671875,-0.00366519158706069,-0.03298672288656235,-0.05925392732024193
1782774148286483000,6.19848291015625,0.001832595793530345,-0.027488935738801956,-0.06841690838336945
1782774148296472000,6.20847216796875,0.016493361443281174,-0.019547687843441963,-0.06963863968849182
1782774148306472000,6.218471923828125,0.03420845419168472,-0.001832595793530345,-0.05742133408784866
1782774148316461000,6.2284609375,0.04948008432984352,0.018325956538319588,-0.03481931984424591
1782774148326491600,6.23849169921875,0.04886921867728233,0.022602014243602753,-0.02015855349600315
1782774148336450000,6.248449951171875,0.031154127791523933,0.006108652334660292,-0.009162978269159794
1782774148346480600,6.258480712890625,0.006719517521560192,-0.021380282938480377,-0.00855211354792118
1782774148356469500,6.268469482421875,-0.00366519158706069,-0.033597588539123535,-0.016493361443281174
1782774148366470000,6.278469970703125,-0.0006108652451075613,-0.022602014243602753,-0.024434609338641167
1782774148376458800,6.288458740234375,0.006719517521560192,0.0006108652451075613,-0.02871066704392433
1782774148386488800,6.29848876953125,0.016493361443281174,0.027488935738801956,-0.03481931984424591
1782774148396447700,6.30844775390625,0.021991148591041565,0.03298672288656235,-0.036651913076639175
1782774148406478000,6.31847802734375,0.018936822190880775,0.01771509274840355,-0.02932153269648552
1782774148416467200,6.32846728515625,-0.0024434609804302454,-0.0012217304902151227,-0.01466076634824276
1782774148426497500,6.33849755859375,-0.01710422709584236,-0.01160643994808197,0.00855211354792118
1782774148436456200,6.348456298828125,-0.007941247895359993,-0.021380282938480377,0.031154127791523933
1782774148446486800,6.35848681640625,0.018936822190880775,-0.018936822190880775,0.05192354694008827
1782774148456476000,6.368475830078125,0.04214970022439957,-0.0024434609804302454,0.07391469180583954
1782774148466475500,6.3784755859375,0.054367005825042725,0.01466076634824276,0.08124507963657379
1782774148476464600,6.388464599609375,0.04581489413976669,0.02321287989616394,0.06536258012056351
1782774148486495500,6.39849560546875,0.028099801391363144,0.025656340643763542,0.03420845419168472
1782774148496454000,6.408453857421875,0.010995574295520782,0.015271631069481373,-0.0006108652451075613
1782774148506484000,6.41848388671875,0.006719517521560192,-0.0012217304902151227,-0.024434609338641167
1782774148516473600,6.4284736328125,0.01771509274840355,-0.015271631069481373,-0.021380282938480377
1782774148526473200,6.43847314453125,0.04214970022439957,-0.01771509274840355,-0.0024434609804302454
1782774148536462300,6.44846240234375,0.06352998316287994,-0.012828170321881771,0.022602014243602753
1782774148546493200,6.4584931640625,0.0708603709936142,-0.006108652334660292,0.04764748737215996
1782774148556451300,6.468451416015625,0.06291911751031876,-0.0006108652451075613,0.05009094998240471
1782774148566482000,6.47848193359375,0.05192354694008827,0.0006108652451075613,0.0354301854968071
1782774148576470800,6.488470703125,0.0403171069920063,-0.00427605677396059,0.02932153269648552
1782774148586471000,6.498470947265625,0.025656340643763542,-0.029932396486401558,0.02626720629632473
1782774148596460000,6.5084599609375,0.02015855349600315,-0.03420845419168472,0.02076941914856434
1782774148606490600,6.51849072265625,0.015271631069481373,-0.013439035043120384,0.013439035043120384
1782774148616449000,6.528448974609375,0.006108652334660292,-0.004886921960860491,0.005497787147760391
1782774148626479400,6.538479248046875,-0.001832595793530345,-0.006108652334660292,-0.007941247895359993
1782774148636496600,6.54849658203125,-0.012828170321881771,-0.03237585723400116,-0.03237585723400116
1782774148646468400,6.55846826171875,-0.013439035043120384,-0.033597588539123535,-0.03237585723400116
1782774148656457500,6.56845751953125,-0.012828170321881771,-0.02382374368607998,-0.027488935738801956
1782774148666488000,6.578488037109375,-0.01466076634824276,-0.00855211354792118,-0.018325956538319588
1782774148676477000,6.588476806640625,-0.015882495790719986,0.00366519158706069,-0.009162978269159794
1782774148686477000,6.59847705078125,-0.019547687843441963,0.00366519158706069,0.004886921960860491
1782774148696466200,6.608466064453125,-0.030543262138962746,-0.019547687843441963,0.00855211354792118
1782774148706496800,6.618496826171875,-0.03420845419168472,-0.04153883829712868,-0.005497787147760391
1782774148716455000,6.628454833984375,-0.02076941914856434,-0.039706241339445114,-0.024434609338641167
1782774148726485500,6.638485595703125,-0.0024434609804302454,-0.019547687843441963,-0.04153883829712868
1782774148736474400,6.648474365234375,0.0006108652451075613,-0.015271631069481373,-0.05253441259264946
1782774148746474800,6.658474853515625,0.006719517521560192,-0.007941247895359993,-0.05619960278272629
1782774148756463600,6.668463623046875,0.01038470957428217,0.009162978269159794,-0.04398229718208313
1782774148766494000,6.678493896484375,-0.006719517521560192,0.007941247895359993,-0.02382374368607998
1782774148776452600,6.68845263671875,-0.02626720629632473,-0.0024434609804302454,-0.006719517521560192
1782774148786483200,6.698483154296875,-0.03420845419168472,-0.01710422709584236,0.001832595793530345
1782774148796472000,6.70847216796875,-0.02626720629632473,-0.018325956538319588,0.009773843921720982
1782774148806472200,6.71847216796875,-0.00366519158706069,-0.010995574295520782,0.018325956538319588
1782774148816460300,6.728460205078125,0.021991148591041565,0.005497787147760391,0.03237585723400116
1782774148826491100,6.7384912109375,0.03787364438176155,0.029932396486401558,0.04581489413976669
1782774148836449500,6.748449462890625,0.042760565876960754,0.0403171069920063,0.056810468435287476
1782774148846480100,6.758480224609375,0.03237585723400116,0.021991148591041565,0.0555887371301651
1782774148856469000,6.768468994140625,0.019547687843441963,0.010995574295520782,0.04337143152952194
1782774148866468900,6.77846875,0.007941247895359993,0.015271631069481373,0.022602014243602753
1782774148876458200,6.788458251953125,0.001832595793530345,0.01771509274840355,0.0024434609804302454
1782774148886488600,6.798488525390625,0.005497787147760391,0.018325956538319588,-0.00733038317412138
1782774148896447000,6.808447021484375,0.018936822190880775,0.027488935738801956,-0.005497787147760391
1782774148906477800,6.818477783203125,0.02871066704392433,0.016493361443281174,0.006719517521560192
1782774148916467200,6.82846728515625,0.027488935738801956,0,0.025045474991202354
1782774148926497800,6.838497802734375,0.019547687843441963,-0.009773843921720982,0.039095375686883926
1782774148936456200,6.848456298828125,0.013439035043120384,0.0024434609804302454,0.039706241339445114
1782774148946486800,6.85848681640625,0.0006108652451075613,0.018325956538319588,0.03481931984424591
1782774148956475600,6.8684755859375,-0.009162978269159794,0.018325956538319588,0.025045474991202354
1782774148966414800,6.878414794921875,-0.005497787147760391,0.007941247895359993,0.009162978269159794
1782774148976525800,6.88852587890625,0.0012217304902151227,-0.00733038317412138,-0.00733038317412138
1782774148986495000,6.898494873046875,-0.0012217304902151227,-0.021991148591041565,-0.021991148591041565
1782774148996413400,6.908413330078125,-0.00855211354792118,-0.033597588539123535,-0.03481931984424591
1782774149006545200,6.918545166015625,-0.01160643994808197,-0.045204028487205505,-0.04398229718208313
1782774149016473300,6.928473388671875,0,-0.0555887371301651,-0.045204028487205505
1782774149026473500,6.938473388671875,0.02321287989616394,-0.05619960278272629,-0.03176499158143997
1782774149036462300,6.94846240234375,0.04337143152952194,-0.045204028487205505,-0.01466076634824276
1782774149046492700,6.95849267578125,0.04398229718208313,-0.031154127791523933,-0.005497787147760391
1782774149056451300,6.968451416015625,0.019547687843441963,-0.03298672288656235,-0.003054326167330146
1782774149066482000,6.97848193359375,0.009162978269159794,-0.04459316283464432,-0.014049900695681572
1782774149076430800,6.988430908203125,0.003054326167330146,-0.04948008432984352,-0.029932396486401558
1782774149086562300,6.998562255859375,0.0024434609804302454,-0.04214970022439957,-0.04398229718208313
1782774149096460000,7.0084599609375,0.009162978269159794,-0.039095375686883926,-0.06169738993048668
1782774149106490000,7.018489990234375,0.021380282938480377,-0.021380282938480377,-0.06352998316287994
1782774149116449000,7.028448974609375,0.019547687843441963,-0.0012217304902151227,-0.03726277872920036
1782774149126479400,7.038479248046875,0.009162978269159794,-0.00427605677396059,-0.00855211354792118
1782774149136428300,7.04842822265625,0.0024434609804302454,-0.007941247895359993,0.016493361443281174
1782774149146499000,7.0584990234375,-0.0012217304902151227,-0.00733038317412138,0.03420845419168472
1782774149157488400,7.06948828125,-0.00427605677396059,0.0006108652451075613,0.04214970022439957
1782774149176537900,7.088537841796875,-0.009773843921720982,0.009773843921720982,0.015271631069481373
1782774149186477000,7.09847705078125,-0.01710422709584236,-0.0012217304902151227,-0.018325956538319588
1782774149196466200,7.108466064453125,-0.015882495790719986,-0.00733038317412138,-0.04337143152952194
1782774149206496500,7.11849658203125,-0.006108652334660292,-0.009162978269159794,-0.04703662544488907
1782774149216455000,7.128454833984375,0.013439035043120384,0.00733038317412138,-0.03237585723400116
1782774149226485500,7.138485595703125,0.02871066704392433,0.027488935738801956,-0.00855211354792118
1782774149236474400,7.148474365234375,0.0354301854968071,0.03176499158143997,0.024434609338641167
1782774149246474500,7.158474609375,0.025045474991202354,0.024434609338641167,0.0555887371301651
1782774149256463600,7.168463623046875,0.004886921960860491,0.015271631069481373,0.06719517707824707
1782774149266494200,7.178494140625,-0.006719517521560192,0.005497787147760391,0.05375614017248154
1782774149276412700,7.18841259765625,-0.01160643994808197,0.010995574295520782,0.02871066704392433
1782774149286544000,7.1985439453125,-0.01160643994808197,0.021380282938480377,0
1782774149296472000,7.20847216796875,-0.00855211354792118,0.02687807008624077,-0.03237585723400116
1782774149306472000,7.218471923828125,-0.00427605677396059,0.02015855349600315,-0.05742133408784866
1782774149316461000,7.2284609375,0.00366519158706069,0.003054326167330146,-0.06719517707824707
1782774149326491600,7.23849169921875,0.016493361443281174,0.0012217304902151227,-0.05742133408784866
1782774149336450300,7.2484501953125,0.03481931984424591,0.00427605677396059,-0.0403171069920063
1782774149346480600,7.258480712890625,0.0507018156349659,0.01466076634824276,-0.012217304669320583
1782774149356469500,7.268469482421875,0.051312681287527084,0.01710422709584236,0.006108652334660292
1782774149366439400,7.278439453125,0.03787364438176155,0.015882495790719986,0.010995574295520782
1782774149376519700,7.288519775390625,0.021380282938480377,0.00855211354792118,0.010995574295520782
1782774149386489000,7.298489013671875,0.010995574295520782,-0.00366519158706069,0.00733038317412138
1782774149396447700,7.30844775390625,0.009773843921720982,-0.01038470957428217,-0.006108652334660292
1782774149406477800,7.318477783203125,0.012828170321881771,-0.00427605677396059,-0.009773843921720982
1782774149416467200,7.32846728515625,0.02076941914856434,0.01710422709584236,0.0024434609804302454
1782774149426497800,7.338497802734375,0.02382374368607998,0.036041051149368286,0.01771509274840355
1782774149436456200,7.348456298828125,0.02321287989616394,0.04703662544488907,0.025656340643763542
1782774149446486800,7.35848681640625,0.02076941914856434,0.04948008432984352,0.0354301854968071
1782774149456475600,7.3684755859375,0.007941247895359993,0.029932396486401558,0.04153883829712868
1782774149466475500,7.3784755859375,-0.007941247895359993,0.01160643994808197,0.03420845419168472
1782774149476465000,7.38846484375,-0.02382374368607998,-0.0012217304902151227,0.010995574295520782
1782774149486495500,7.39849560546875,-0.02687807008624077,0.0012217304902151227,0.00733038317412138
1782774149496454000,7.408453857421875,-0.02382374368607998,0.003054326167330146,0.01038470957428217
1782774149506484500,7.418484375,-0.015271631069481373,0.010995574295520782,0.01771509274840355
1782774149516473300,7.428473388671875,-0.009773843921720982,0.021991148591041565,0.01466076634824276
1782774149526473200,7.43847314453125,-0.00733038317412138,0.027488935738801956,0.004886921960860491
1782774149536462300,7.44846240234375,-0.00366519158706069,0.031154127791523933,-0.006719517521560192
1782774149546493000,7.458492919921875,-0.0006108652451075613,0.02932153269648552,-0.012828170321881771
1782774149556451300,7.468451416015625,-0.0012217304902151227,0.013439035043120384,-0.018325956538319588
1782774149566482000,7.47848193359375,-0.007941247895359993,-0.019547687843441963,-0.014049900695681572
1782774149576470800,7.488470703125,-0.01466076634824276,-0.036651913076639175,-0.01038470957428217
1782774149586470700,7.498470703125,-0.02076941914856434,-0.028099801391363144,-0.013439035043120384
1782774149596460000,7.5084599609375,-0.02321287989616394,-0.014049900695681572,-0.025045474991202354
1782774149606490000,7.518489990234375,-0.01466076634824276,0.01038470957428217,-0.0403171069920063
1782774149616449000,7.528448974609375,-0.004886921960860491,0.021380282938480377,-0.05253441259264946
1782774149626479600,7.538479736328125,0.00366519158706069,0.021380282938480377,-0.04459316283464432
1782774149636468500,7.548468505859375,0.006108652334660292,-0.00427605677396059,-0.022602014243602753
1782774149646468400,7.55846826171875,0.00427605677396059,-0.027488935738801956,-0.009773843921720982
1782774149656457500,7.56845751953125,0.00366519158706069,-0.02015855349600315,0.001832595793530345
1782774149666488000,7.578488037109375,0.001832595793530345,-0.0006108652451075613,0.00855211354792118
1782774149676477000,7.588476806640625,-0.003054326167330146,0.012828170321881771,0.01038470957428217
1782774149686477000,7.59847705078125,-0.006108652334660292,0.018325956538319588,0.00427605677396059
1782774149696466200,7.608466064453125,-0.009162978269159794,0.015882495790719986,0.0012217304902151227
1782774149706496500,7.61849658203125,-0.012828170321881771,0.00855211354792118,-0.00733038317412138
1782774149716455200,7.628455078125,-0.007941247895359993,0.001832595793530345,-0.01710422709584236
1782774149726485500,7.638485595703125,-0.003054326167330146,0.0006108652451075613,-0.01710422709584236
1782774149736474400,7.648474365234375,0.006719517521560192,0.006719517521560192,-0.00855211354792118
1782774149746474500,7.658474609375,0.015882495790719986,0.01160643994808197,0.009773843921720982
1782774149756463600,7.668463623046875,0.018325956538319588,0.018325956538319588,0.03176499158143997
1782774149766494200,7.678494140625,0.013439035043120384,0.02076941914856434,0.04764748737215996
1782774149776452600,7.68845263671875,0,0.014049900695681572,0.05619960278272629
1782774149786483200,7.698483154296875,-0.005497787147760391,0.006719517521560192,0.05497787147760391
1782774149796472000,7.70847216796875,-0.005497787147760391,-0.005497787147760391,0.04337143152952194
1782774149806472000,7.718471923828125,-0.01038470957428217,-0.02626720629632473,0.025656340643763542
1782774149816460000,7.7284599609375,-0.006719517521560192,-0.039095375686883926,0.00855211354792118
1782774149826491000,7.738490966796875,0.006108652334660292,-0.027488935738801956,-0.00427605677396059
1782774149836410000,7.74841015625,0.01466076634824276,-0.01160643994808197,-0.013439035043120384
1782774149846541000,7.758541015625,0.021991148591041565,-0.0012217304902151227,-0.022602014243602753
1782774149856469200,7.76846923828125,0.021991148591041565,-0.0012217304902151227,-0.021991148591041565
1782774149866469000,7.77846923828125,0.02015855349600315,-0.009162978269159794,-0.021991148591041565
1782774149876418600,7.78841845703125,0.014049900695681572,-0.02076941914856434,-0.02382374368607998
1782774149886549800,7.7985498046875,0.003054326167330146,-0.025045474991202354,-0.027488935738801956
1782774149896447200,7.808447265625,0.0006108652451075613,-0.02321287989616394,-0.02932153269648552
1782774149906417200,7.818417236328125,0.00427605677396059,-0.024434609338641167,-0.03237585723400116
1782774149917632800,7.8296328125,0.009773843921720982,-0.030543262138962746,-0.030543262138962746
1782774149936456200,7.848456298828125,0.018325956538319588,-0.03420845419168472,-0.036651913076639175
1782774149946486800,7.85848681640625,0.028099801391363144,-0.006719517521560192,-0.03787364438176155
1782774149956435700,7.868435791015625,0.03237585723400116,0.012828170321881771,-0.030543262138962746
1782774149966506500,7.878506591796875,0.021991148591041565,0.003054326167330146,-0.022602014243602753
1782774149976525800,7.88852587890625,0.00427605677396059,-0.013439035043120384,-0.00855211354792118
1782774149986495200,7.8984951171875,-0.019547687843441963,-0.02626720629632473,0.006719517521560192
1782774149996454000,7.908453857421875,-0.030543262138962746,-0.02871066704392433,0.013439035043120384
1782774150006484200,7.918484130859375,-0.02626720629632473,-0.019547687843441963,0.015882495790719986
1782774150016473300,7.928473388671875,-0.01710422709584236,-0.015882495790719986,0.00733038317412138
1782774150026412500,7.93841259765625,-0.006108652334660292,-0.012828170321881771,-0.00855211354792118
1782774150036523300,7.948523193359375,0.003054326167330146,-0.012828170321881771,-0.021991148591041565
1782774150046492700,7.95849267578125,0.009162978269159794,-0.00855211354792118,-0.039706241339445114
1782774150056451300,7.968451416015625,0.012217304669320583,-0.024434609338641167,-0.05864306539297104
1782774150066482000,7.97848193359375,0.030543262138962746,-0.02932153269648552,-0.05497787147760391
1782774150076470800,7.988470703125,0.03848451003432274,-0.02382374368607998,-0.03420845419168472
1782774150086471000,7.998470947265625,0.025656340643763542,-0.025045474991202354,-0.014049900695681572
1782774150096419800,8.008419921875,0.012828170321881771,-0.021991148591041565,0.001832595793530345
1782774150106551300,8.01855126953125,0.006719517521560192,-0.012828170321881771,0.010995574295520782
1782774150117528000,8.029528076171875,0.0012217304902151227,-0.013439035043120384,0.009773843921720982
1782774150136468200,8.04846826171875,0.021991148591041565,-0.02626720629632473,-0.019547687843441963
1782774150146468400,8.05846826171875,0.04398229718208313,-0.021991148591041565,-0.025045474991202354
1782774150156457500,8.06845751953125,0.05497787147760391,-0.007941247895359993,-0.025045474991202354
1782774150166488000,8.078488037109375,0.04764748737215996,0.01160643994808197,-0.016493361443281174
1782774150176477000,8.088476806640625,0.03298672288656235,0.013439035043120384,-0.005497787147760391
1782774150186476800,8.098476806640624,0.018936822190880775,0.00427605677396059,-0.00855211354792118
1782774150196466200,8.108466064453125,0.00427605677396059,-0.00427605677396059,-0.02626720629632473
1782774150206496000,8.11849609375,-0.0024434609804302454,-0.006719517521560192,-0.04459316283464432
1782774150216455000,8.128454833984375,0.001832595793530345,-0.013439035043120384,-0.05742133408784866
1782774150226485500,8.138485595703125,0.015271631069481373,-0.01466076634824276,-0.05375614017248154
1782774150236474400,8.148474365234375,0.018936822190880775,-0.009162978269159794,-0.0354301854968071
1782774150246413600,8.15841357421875,0.012217304669320583,0.003054326167330146,-0.009773843921720982
1782774150256524500,8.168524658203125,-0.001832595793530345,0.02015855349600315,0.00855211354792118
1782774150266494000,8.178493896484374,-0.01160643994808197,0.02871066704392433,0.012217304669320583
1782774150276452600,8.18845263671875,-0.01160643994808197,0.013439035043120384,-0.001832595793530345
1782774150286422300,8.19842236328125,0,-0.009773843921720982,-0.025045474991202354
1782774150296533200,8.208533203125,0.01466076634824276,-0.02687807008624077,-0.045204028487205505
1782774150306472000,8.218471923828124,0.025045474991202354,-0.025045474991202354,-0.0555887371301651
1782774150316461000,8.2284609375,0.025656340643763542,0.016493361443281174,-0.04642575979232788
1782774150326491600,8.23849169921875,0.010995574295520782,0.0354301854968071,-0.033597588539123535
1782774150336410000,8.24841015625,-0.005497787147760391,0.033597588539123535,-0.030543262138962746
1782774150346541800,8.258541748046875,-0.013439035043120384,0.02687807008624077,-0.03176499158143997
1782774150356469800,8.2684697265625,-0.015882495790719986,-0.013439035043120384,-0.039095375686883926
1782774150366469600,8.2784697265625,-0.01038470957428217,-0.0403171069920063,-0.04398229718208313
1782774150376418600,8.28841845703125,0.00427605677396059,-0.03848451003432274,-0.039095375686883926
1782774150386550300,8.29855029296875,0.01466076634824276,-0.024434609338641167,-0.02687807008624077
1782774150396447700,8.30844775390625,0.015271631069481373,-0.00366519158706069,-0.012217304669320583
1782774150406478000,8.31847802734375,0.010995574295520782,0.02015855349600315,0.001832595793530345
1782774150416467500,8.328467529296875,0.006108652334660292,0.027488935738801956,0.005497787147760391
1782774150426497800,8.338497802734375,-0.0006108652451075613,0.012217304669320583,0.0024434609804302454
1782774150436456200,8.348456298828125,-0.00427605677396059,-0.00855211354792118,0
1782774150446486500,8.358486572265624,0.0012217304902151227,-0.01771509274840355,-0.006719517521560192
1782774150456475600,8.3684755859375,0.001832595793530345,-0.015271631069481373,-0.01710422709584236
1782774150466476000,8.37847607421875,0.0024434609804302454,-0.00366519158706069,-0.025045474991202354
1782774150476465000,8.38846484375,0.00366519158706069,0.01771509274840355,-0.025656340643763542
1782774150486495200,8.3984951171875,0.00427605677396059,0.02321287989616394,-0.01710422709584236
1782774150496454000,8.408453857421875,0.01038470957428217,0.013439035043120384,0.003054326167330146
1782774150506484200,8.418484130859374,0.014049900695681572,0.01038470957428217,0.03176499158143997
1782774150516473600,8.4284736328125,0.012217304669320583,0.012828170321881771,0.048258353024721146
1782774150526434300,8.438434326171874,0.0006108652451075613,0.02382374368607998,0.04459316283464432
1782774150536423700,8.448423583984376,-0.00427605677396059,0.04214970022439957,0.02932153269648552
1782774150546453800,8.458453857421874,-0.009773843921720982,0.042760565876960754,0.00855211354792118
1782774150556412700,8.46841259765625,-0.01710422709584236,0.02076941914856434,-0.012217304669320583
1782774150566442800,8.47844287109375,-0.018325956538319588,-0.00366519158706069,-0.025045474991202354
1782774150576432000,8.48843212890625,-0.004886921960860491,-0.006719517521560192,-0.02382374368607998
1782774150586432000,8.498431884765624,0.009162978269159794,-0.00427605677396059,-0.022602014243602753
1782774150596421000,8.508421142578126,0.013439035043120384,0.022602014243602753,-0.01466076634824276
1782774150606451200,8.518451171875,0.01038470957428217,0.045204028487205505,-0.00855211354792118
1782774150616410000,8.52841015625,0.009773843921720982,0.0403171069920063,-0.00366519158706069
1782774150626440400,8.5384404296875,0.00733038317412138,0.03176499158143997,0.009773843921720982
1782774150636457700,8.548457763671875,0.00366519158706069,0.02626720629632473,0.012217304669320583
1782774150646429400,8.558429443359374,0,0.01038470957428217,0.004886921960860491
1782774150656418800,8.568418701171876,0.009162978269159794,-0.00366519158706069,-0.006108652334660292
1782774150666449000,8.578448974609374,0.019547687843441963,-0.007941247895359993,-0.022602014243602753
1782774150676438300,8.588438232421876,0.02626720629632473,-0.004886921960860491,-0.04153883829712868
1782774150686438100,8.598438232421875,0.02382374368607998,0.01160643994808197,-0.05314527451992035
1782774150696427300,8.60842724609375,0.021380282938480377,0.03481931984424591,-0.04337143152952194
1782774150706457900,8.618457763671875,0.013439035043120384,0.04948008432984352,-0.02932153269648552
1782774150716416300,8.628416259765626,0.006108652334660292,0.031154127791523933,-0.007941247895359993
1782774150726446800,8.63844677734375,0.0024434609804302454,0.02321287989616394,0.04642575979232788
1782774150736436000,8.64843603515625,0.003054326167330146,0.045204028487205505,0.051312681287527084
1782774150746435300,8.658435302734375,-0.009773843921720982,0.07269296050071716,0.02687807008624077
1782774150756425000,8.668425048828125,-0.02076941914856434,0.09285151958465576,-0.01038470957428217
1782774150766455300,8.678455322265625,-0.02321287989616394,0.09285151958465576,-0.03420845419168472
1782774150776414000,8.6884140625,-0.02321287989616394,0.09957103431224823,-0.0354301854968071
1782774150786444300,8.6984443359375,-0.030543262138962746,0.08429940044879913,-0.016493361443281174
1782774150796433200,8.70843310546875,-0.02626720629632473,0.12217304855585098,0.08246681094169617
1782774150806433300,8.718433349609375,-0.039095375686883926,-0.021991148591041565,0.1417207419872284
1782774150816421400,8.72842138671875,-0.004886921960860491,-0.06536258012056351,0.14416420459747314
1782774150826452200,8.7384521484375,0.015271631069481373,-0.04398229718208313,0.10751228034496307
1782774150836411000,8.748410888671875,-0.021991148591041565,-0.015271631069481373,0.04214970022439957
1782774150846441200,8.758441162109374,-0.06352998316287994,-0.018325956538319588,-0.04459316283464432
1782774150856430300,8.768430419921875,-0.06841690838336945,-0.014049900695681572,-0.1215621829032898
1782774150866430200,8.77843017578125,-0.04642575979232788,0.007941247895359993,-0.16737708449363708
1782774150876419300,8.78841943359375,-0.028099801391363144,0.02321287989616394,-0.19792033731937408
1782774150886450000,8.798449951171875,-0.019547687843441963,0.03298672288656235,-0.1966986060142517
1782774150896408300,8.808408203125,-0.009773843921720982,0.04703662544488907,-0.1722639948129654
1782774150906439000,8.81843896484375,-0.01160643994808197,0.07269296050071716,-0.13072516024112701
