time,seconds_elapsed,z,y,x
1782774918676443400,0.171443359375,0.10706138610839844,-0.23185396194458008,-0.6393664479255676
1782774918686361600,0.181361572265625,0.08421087265014648,-0.266693115234375,-0.18424224853515625
1782774918696371500,0.191371337890625,0.11986684799194336,-0.2018747329711914,0.1700190305709839
1782774918706350600,0.2013505859375,-0.02585458755493164,-0.0974578857421875,0.09577882289886475
1782774918716360400,0.2113603515625,-0.07206964492797852,0.0032663345336914062,0.039081454277038574
1782774918726370300,0.221370361328125,-0.10714960098266602,-0.0015764236450195312,0.06667482852935791
1782774918736380000,0.2313798828125,-0.2903480529785156,-0.059836387634277344,0.01706075668334961
1782774918746359000,0.241359130859375,-0.49526166915893555,-0.11717796325683594,-0.09648585319519043
1782774918756369000,0.251368896484375,-0.6661663055419922,-0.17395973205566406,-0.3265879154205322
1782774918766378500,0.26137841796875,-0.6940913200378418,-0.10205459594726562,-0.43572115898132324
1782774918776358000,0.27135791015625,-0.6304769515991211,-0.13678455352783203,-0.4842635989189148
1782774918786367700,0.28136767578125,-0.5165791511535645,-0.20685863494873047,-0.23300886154174805
1782774918796377600,0.291377685546875,-0.3273029327392578,-0.28531885147094727,-0.22000324726104736
1782774918806356700,0.301356689453125,-0.20987796783447266,-0.30371904373168945,-0.3458976745605469
1782774918816366600,0.31136669921875,-0.26082706451416016,-0.23079490661621094,-0.3368412256240845
1782774918826376400,0.32137646484375,-0.4370918273925781,0.034010887145996094,-0.14340925216674805
1782774918836355300,0.331355224609375,-0.32900333404541016,0.1391010284423828,0.09261035919189453
1782774918846365200,0.341365234375,-0.2867255210876465,0.1458120346069336,0.23941969871520996
1782774918856375000,0.351375,-0.26526784896850586,0.13664722442626953,0.2483607530593872
1782774918866354200,0.361354248046875,-0.22817373275756836,0.10033512115478516,0.14822542667388916
1782774918876364000,0.371364013671875,-0.24219226837158203,-0.02812957763671875,-0.17009234428405762
1782774918886374000,0.381373779296875,-0.24141788482666016,-0.23011112213134766,-0.4255805015563965
1782774918896353000,0.39135302734375,-0.16583919525146484,-0.2491283416748047,-0.3930983543395996
1782774918906363000,0.40136279296875,-0.04221773147583008,-0.07254695892333984,-0.17088842391967773
1782774918916372700,0.411372802734375,0.026889801025390625,0.07193279266357422,-0.010282635688781738
1782774918926352000,0.421351806640625,0.057549476623535156,0.049103736877441406,0.0725398063659668
1782774918936361500,0.431361572265625,-0.0756368637084961,0.00640106201171875,-0.010478496551513672
1782774918946371300,0.441371337890625,-0.27515172958374023,-0.02132129669189453,-0.09895515441894531
1782774918956350700,0.451350830078125,-0.6093845367431641,-0.017871856689453125,-0.07838702201843262
1782774918966360300,0.4613603515625,-0.7630476951599121,-0.06675910949707031,-0.14880585670471191
1782774918976370200,0.4713701171875,-0.7784953117370605,-0.07942962646484375,-0.10846126079559326
1782774918986379800,0.4813798828125,-0.717064380645752,-0.043956756591796875,0.07372844219207764
1782774918996359200,0.491359130859375,-0.46936559677124023,-0.06853485107421875,0.11736500263214111
1782774919006369000,0.501369140625,0.13211870193481445,-0.15632915496826172,0.1414729356765747
1782774919016378600,0.511378662109375,0.5563139915466309,-0.29674816131591797,0.06141650676727295
1782774919026358000,0.52135791015625,0.766383171081543,-0.29908037185668945,0.051128387451171875
1782774919036368000,0.531367919921875,0.7205491065979004,-0.19195842742919922,0.002733469009399414
1782774919046377500,0.54137744140625,0.48112964630126953,-0.14689254760742188,0.009261131286621094
1782774919056356900,0.55135693359375,0.11856937408447266,-0.21946430206298828,-0.10506331920623779
1782774919066366500,0.561366455078125,-0.10301685333251953,-0.2913374900817871,-0.1751319169998169
1782774919076376000,0.5713759765625,-0.18177366256713867,-0.396639347076416,-0.27966856956481934
1782774919086355500,0.58135546875,-0.13059520721435547,-0.34901857376098633,-0.15729451179504395
1782774919096365300,0.591365234375,-0.1311502456665039,-0.17114639282226562,0.10600590705871582
1782774919106375000,0.601375,-0.06140279769897461,-0.0523223876953125,0.24806177616119385
1782774919116354300,0.611354248046875,-0.008405208587646484,-0.04867839813232422,0.24089956283569336
1782774919126364200,0.6213642578125,-0.0521235466003418,-0.11078643798828125,0.1202094554901123
1782774919136374000,0.6313740234375,0.05102348327636719,-0.11886024475097656,0.003375530242919922
1782774919146353200,0.641353271484375,0.03752422332763672,-0.15169048309326172,-0.14109444618225098
1782774919156362800,0.65136279296875,0.02254962921142578,-0.15894508361816406,-0.29535484313964844
1782774919166372600,0.66137255859375,-0.058032989501953125,-0.20621299743652344,-0.32462143898010254
1782774919176351700,0.671351806640625,-0.24627065658569336,-0.25344085693359375,-0.3303031921386719
1782774919186361600,0.681361572265625,-0.23669099807739258,-0.2311992645263672,-0.06800079345703125
1782774919196371500,0.691371337890625,-0.5470271110534668,-0.12561607360839844,0.16524028778076172
1782774919206350600,0.7013505859375,-0.728215217590332,0.007597923278808594,0.26906299591064453
1782774919216360400,0.7113603515625,-1.1559927463531494,0.12332725524902344,0.44938600063323975
1782774919226370300,0.721370361328125,-1.2544925212860107,0.04335212707519531,0.17419397830963135
1782774919236380000,0.7313798828125,-0.7924046516418457,-0.06638240814208984,0.11657071113586426
1782774919246359000,0.741359130859375,-0.5791888236999512,-0.1096649169921875,0.05015408992767334
1782774919256369000,0.751368896484375,-0.3358731269836426,-0.12253093719482422,-0.0896075963973999
1782774919266378800,0.761378662109375,0.045957088470458984,-0.07756423950195312,-0.13523411750793457
1782774919276358000,0.77135791015625,0.3378562927246094,-0.038727760314941406,0.035239219665527344
1782774919286367700,0.78136767578125,0.29090023040771484,-0.08522319793701172,0.04257845878601074
1782774919296377300,0.79137744140625,0.08707618713378906,-0.0942068099975586,-0.20000529289245605
1782774919306356700,0.801356689453125,-0.06967926025390625,-0.04064464569091797,-0.22795093059539795
1782774919316448800,0.81144873046875,-0.00838470458984375,-0.1028127670288086,-0.29439330101013184
1782774919326376400,0.82137646484375,0.13243961334228516,-0.1546630859375,-0.20849013328552246
1782774919336355300,0.831355224609375,0.2244710922241211,-0.17769527435302734,-0.2284069061279297
1782774919346365200,0.841365234375,0.14728498458862305,-0.11506366729736328,-0.2165910005569458
1782774919356375000,0.851375,0.12077999114990234,-0.11952686309814453,-0.18620002269744873
1782774919366354200,0.861354248046875,0.2252049446105957,-0.08240127563476562,-0.122536301612854
1782774919376364000,0.871364013671875,0.24130821228027344,-0.05422687530517578,-0.051807522773742676
1782774919386374000,0.881373779296875,0.12335443496704102,-0.0735788345336914,-0.014417767524719238
1782774919396353000,0.89135302734375,-0.035275936126708984,-0.037026405334472656,-0.1026148796081543
1782774919406363000,0.90136279296875,-0.13043546676635742,-0.0675344467163086,-0.20745348930358887
1782774919416372700,0.911372802734375,-0.22768831253051758,-0.10475349426269531,-0.13247358798980713
1782774919426351900,0.921351806640625,-0.2084493637084961,-0.062397003173828125,-0.05334341526031494
1782774919436361700,0.93136181640625,-0.17910385131835938,-0.018909454345703125,0.1019366979598999
1782774919446371300,0.941371337890625,-0.12139892578125,0.009298324584960938,0.15495586395263672
1782774919456350700,0.951350830078125,-0.05123710632324219,0.050347328186035156,0.09223413467407227
1782774919466360300,0.9613603515625,0.06156635284423828,-0.018509864807128906,0.020172953605651855
1782774919476370200,0.9713701171875,0.0007224082946777344,-0.10230445861816406,-0.04759013652801514
1782774919486379800,0.9813798828125,-0.034096717834472656,-0.08898735046386719,-0.051697492599487305
1782774919496359200,0.991359130859375,-0.11751031875610352,-0.07163238525390625,0.04564201831817627
1782774919506369000,1.001369140625,-0.2685360908508301,-0.08143901824951172,0.057650208473205566
1782774919516378600,1.011378662109375,-0.37740659713745117,-0.11834335327148438,-0.06963074207305908
1782774919526358000,1.02135791015625,-0.3596839904785156,-0.10721206665039062,-0.08422648906707764
1782774919536367900,1.031367919921875,-0.2357335090637207,-0.03056621551513672,0.008864641189575195
1782774919546377500,1.04137744140625,-0.06317710876464844,0.02321624755859375,0.11296951770782471
1782774919556356900,1.05135693359375,-0.01309967041015625,0.09659671783447266,0.28962135314941406
1782774919566366500,1.061366455078125,-0.10785102844238281,0.16462993621826172,0.26661837100982666
1782774919576376000,1.0713759765625,-0.2674741744995117,0.10194873809814453,0.10866761207580566
1782774919586355500,1.08135546875,-0.3079090118408203,0.02263927459716797,0.01656341552734375
1782774919596365300,1.091365234375,-0.18959331512451172,0.03519153594970703,0.0326160192489624
1782774919606375200,1.101375244140625,-0.09392786026000977,0.0055980682373046875,0.24263107776641846
1782774919616354300,1.111354248046875,-0.20787286758422852,-0.036240577697753906,0.39518463611602783
1782774919626364200,1.1213642578125,-0.2301025390625,-0.11665916442871094,0.34328675270080566
1782774919636373800,1.131373779296875,-0.04878520965576172,-0.23670196533203125,0.18062734603881836
1782774919646353200,1.141353271484375,0.15743112564086914,-0.3669090270996094,0.14014983177185059
1782774919656362800,1.15136279296875,0.16289901733398438,-0.43889808654785156,-0.02209603786468506
1782774919666372600,1.16137255859375,0.09280204772949219,-0.4088630676269531,-0.2681431174278259
1782774919676351700,1.171351806640625,-0.0197296142578125,-0.3373270034790039,-0.29240185022354126
1782774919686361600,1.181361572265625,-0.12208032608032227,-0.3316640853881836,-0.16187822818756104
1782774919696371500,1.191371337890625,-0.0842289924621582,-0.2545967102050781,-0.043290138244628906
1782774919706350600,1.2013505859375,-0.09263086318969727,-0.2081460952758789,0.012527823448181152
1782774919716360400,1.2113603515625,-0.03321361541748047,-0.20878982543945312,-0.07208108901977539
1782774919726370300,1.221370361328125,0.055762290954589844,-0.1607828140258789,-0.043355464935302734
1782774919736380000,1.2313798828125,0.15352916717529297,-0.09065055847167969,0.22143268585205078
1782774919746359000,1.241359130859375,0.2437143325805664,-0.09201526641845703,0.19819176197052002
1782774919756369000,1.251368896484375,0.16869592666625977,-0.24448394775390625,-0.06017887592315674
1782774919766378800,1.261378662109375,0.032033443450927734,-0.37625885009765625,-0.40591341257095337
1782774919776358000,1.27135791015625,-0.13299131393432617,-0.5253415107727051,-0.6439343094825745
1782774919786367700,1.28136767578125,-0.2409653663635254,-0.5402703285217285,-0.7012971639633179
1782774919796377300,1.29137744140625,-0.18494939804077148,-0.518305778503418,-0.5333235859870911
1782774919806356700,1.301356689453125,-0.05797576904296875,-0.32248783111572266,-0.03946733474731445
1782774919816361500,1.311361572265625,0.10209226608276367,-0.0367279052734375,0.43943560123443604
1782774919826371000,1.32137109375,0.3213157653808594,0.28100109100341797,0.7884573936462402
1782774919836350500,1.3313505859375,0.30512475967407227,0.3647136688232422,0.9545669555664062
1782774919846360300,1.3413603515625,0.08665132522583008,0.19841575622558594,0.6370143890380859
1782774919856370200,1.3513701171875,-0.1483154296875,-0.06611824035644531,0.053115248680114746
1782774919866349000,1.36134912109375,-0.312563419342041,-0.2915515899658203,-0.41002488136291504
1782774919876359000,1.37135888671875,-0.28611040115356445,-0.411376953125,-0.5868638157844543
1782774919886368800,1.38136865234375,-0.08240461349487305,-0.3668088912963867,-0.44715648889541626
1782774919896348000,1.391347900390625,0.08558130264282227,-0.26066112518310547,-0.11430084705352783
1782774919906357800,1.401357666015625,0.24490690231323242,-0.12714099884033203,0.13588643074035645
1782774919916367600,1.41136767578125,0.2336573600769043,-0.043514251708984375,0.29002249240875244
1782774919926346800,1.4213466796875,0.08025979995727539,0.024730682373046875,0.35192716121673584
1782774919936356600,1.431356689453125,-0.1533212661743164,0.03565788269042969,0.295430064201355
1782774919946366200,1.4413662109375,-0.4491100311279297,-0.032683372497558594,0.2096308469772339
1782774919956345600,1.451345703125,-0.675055980682373,-0.1540679931640625,0.08195376396179199
1782774919966355200,1.461355224609375,-0.8024196624755859,-0.3128337860107422,-0.10867106914520264
1782774919976365000,1.471364990234375,-0.7678070068359375,-0.3444223403930664,-0.19501638412475586
1782774919986375000,1.481375,-0.6265549659729004,-0.33347320556640625,-0.13678407669067383
1782774919996354000,1.49135400390625,-0.4291691780090332,-0.2317047119140625,0.04991257190704346
1782774920006364000,1.501364013671875,-0.14797258377075195,-0.19186019897460938,0.044838666915893555
1782774920016373500,1.51137353515625,0.08482074737548828,-0.167236328125,0.09551644325256348
1782774920026353000,1.521352783203125,0.27544307708740234,-0.08454322814941406,0.14041876792907715
1782774920036362800,1.53136279296875,0.3022899627685547,-0.04350852966308594,0.1599864959716797
1782774920046372400,1.541372314453125,0.08498096466064453,-0.07935905456542969,0.1192924976348877
1782774920056351700,1.551351806640625,-0.20046043395996094,-0.0994729995727539,-0.02924668788909912
1782774920066361300,1.561361328125,-0.48613643646240234,-0.12436103820800781,-0.07113313674926758
1782774920076371000,1.571370849609375,-0.7312455177307129,-0.1791982650756836,-0.08445143699645996
1782774920086350300,1.581350341796875,-0.8708882331848145,-0.1864643096923828,-0.2181558609008789
1782774920096360200,1.591360107421875,-0.7829380035400391,-0.19040393829345703,-0.28026843070983887
1782774920106369800,1.601369873046875,-0.5989680290222168,-0.1608409881591797,-0.1618349552154541
1782774920116349200,1.61134912109375,-0.3888578414916992,-0.0015344619750976562,0.12369370460510254
1782774920126359000,1.621359130859375,-0.10768938064575195,0.08428478240966797,0.14079248905181885
1782774920136368600,1.63136865234375,0.05201911926269531,0.11860179901123047,0.10500776767730713
1782774920146348000,1.64134814453125,0.25090551376342773,0.10804367065429688,-0.01526188850402832
1782774920156357600,1.651357666015625,0.41171884536743164,-0.0032548904418945312,-0.13971567153930664
1782774920166367500,1.661367431640625,0.7348828315734863,-0.055736541748046875,-0.039197444915771484
1782774920176346600,1.6713466796875,0.829038143157959,-0.11785602569580078,-0.020780563354492188
1782774920186356500,1.6813564453125,0.6333961486816406,-0.10359764099121094,0.019511938095092773
1782774920196366300,1.691366455078125,0.3942127227783203,-0.03175163269042969,0.011594414710998535
1782774920206345500,1.701345458984375,0.19687986373901367,-0.10350799560546875,-0.03199267387390137
1782774920216355300,1.711355224609375,-0.03981161117553711,-0.15539836883544922,0.024866700172424316
1782774920226365200,1.721365234375,-0.18757009506225586,-0.12372398376464844,0.0005965232849121094
1782774920236374800,1.731374755859375,-0.27864599227905273,-0.16822338104248047,0.02196049690246582
1782774920246354200,1.741354248046875,-0.3657679557800293,-0.31503963470458984,-0.019852757453918457
1782774920256363800,1.75136376953125,-0.43245744705200195,-0.49216461181640625,-0.1848541498184204
1782774920266373600,1.76137353515625,-0.45742082595825195,-0.457857608795166,-0.1603550910949707
1782774920276353000,1.77135302734375,-0.35699033737182617,-0.30291080474853516,-0.10750699043273926
1782774920286362600,1.781362548828125,-0.1698751449584961,-0.1681051254272461,0.08695518970489502
1782774920296372200,1.791372314453125,0.03836870193481445,-0.16005706787109375,0.25628650188446045
1782774920306351600,1.8013515625,0.1443619728088379,-0.18239688873291016,0.2099684476852417
1782774920316098600,1.8110986328125,0.21555519104003906,-0.21305084228515625,-0.03397417068481445
1782774920326371300,1.821371337890625,0.19126510620117188,-0.28153324127197266,-0.20576751232147217
1782774920336350500,1.8313505859375,0.0835566520690918,-0.34351539611816406,-0.2498009204864502
1782774920346360300,1.8413603515625,-0.13176727294921875,-0.33077430725097656,-0.2362281084060669
1782774920356370200,1.8513701171875,-0.40982723236083984,-0.3082895278930664,-0.19428086280822754
1782774920366349000,1.86134912109375,-0.5986275672912598,-0.30635738372802734,-0.047176480293273926
1782774920376359000,1.87135888671875,-0.626436710357666,-0.1847248077392578,0.21758413314819336
1782774920386368800,1.88136865234375,-0.7093205451965332,-0.058010101318359375,0.4015754461288452
1782774920396348000,1.891347900390625,-0.6960444450378418,0.018335342407226562,0.3813133239746094
1782774920406357800,1.901357666015625,-0.5520424842834473,0.052124977111816406,0.327791690826416
1782774920416367600,1.91136767578125,-0.31821489334106445,0.020772933959960938,0.31131136417388916
1782774920426346800,1.9213466796875,-0.05427217483520508,-0.03159332275390625,0.14917349815368652
1782774920436356600,1.931356689453125,0.10035467147827148,-0.04742145538330078,0.027179718017578125
1782774920446366200,1.9413662109375,0.08052349090576172,-0.1306629180908203,-0.07920825481414795
1782774920456345600,1.951345703125,0.12550926208496094,-0.11368274688720703,-0.09551846981048584
1782774920466355500,1.96135546875,0.18204021453857422,-0.04150390625,-0.07278704643249512
1782774920476365000,1.971364990234375,0.13805389404296875,-0.050787925720214844,0.022021055221557617
1782774920486374700,1.981374755859375,0.0789484977722168,-0.010648727416992188,0.2048027515411377
1782774920496354000,1.99135400390625,-0.018101215362548828,0.09996509552001953,0.33575427532196045
1782774920506364000,2.001364013671875,-0.2096390724182129,0.10816192626953125,0.32856523990631104
1782774920516373500,2.01137353515625,-0.4694080352783203,0.01140594482421875,0.1366647481918335
1782774920526353000,2.021352783203125,-0.6513867378234863,-0.15564823150634766,-0.10657083988189697
1782774920536362800,2.03136279296875,-0.6133127212524414,-0.19944000244140625,-0.19431233406066895
1782774920546372400,2.041372314453125,-0.3497047424316406,-0.19182109832763672,-0.17227935791015625
1782774920556351700,2.051351806640625,-0.05694103240966797,-0.1660623550415039,-0.01798701286315918
1782774920566361300,2.061361328125,0.17728614807128906,-0.16454315185546875,0.07816565036773682
1782774920576371000,2.071370849609375,0.2441549301147461,-0.1679401397705078,-0.000438690185546875
1782774920586350300,2.081350341796875,0.1850137710571289,-0.19000720977783203,-0.08840727806091309
1782774920596360200,2.091360107421875,0.02425670623779297,-0.19250106811523438,-0.22054767608642578
1782774920606369800,2.101369873046875,-0.13741397857666016,-0.28799915313720703,-0.2893524169921875
1782774920616349200,2.11134912109375,-0.3343801498413086,-0.26996612548828125,-0.2573871612548828
1782774920626359000,2.121359130859375,-0.4366750717163086,-0.18304920196533203,-0.2410043478012085
1782774920636369000,2.131368896484375,-0.4367523193359375,-0.1410989761352539,-0.18932116031646729
1782774920646348000,2.14134814453125,-0.3269162178039551,-0.04252815246582031,-0.04221820831298828
1782774920656358000,2.15135791015625,-0.09373950958251953,0.08681201934814453,0.07371747493743896
1782774920666367500,2.161367431640625,0.007683753967285156,0.069061279296875,0.020036935806274414
1782774920676346600,2.1713466796875,0.03251981735229492,-0.0015659332275390625,-0.17129623889923096
1782774920686356500,2.1813564453125,0.09249639511108398,-0.0062389373779296875,-0.26825082302093506
1782774920696366300,2.191366455078125,0.20220375061035156,0.00261688232421875,-0.15828347206115723
1782774920706345500,2.201345458984375,0.2281794548034668,0.12296676635742188,0.13846898078918457
1782774920716355300,2.211355224609375,0.12080764770507812,0.16516494750976562,0.2254575490951538
1782774920726365200,2.221365234375,0.007376670837402344,0.1548910140991211,0.24912619590759277
1782774920736374800,2.231374755859375,-0.3044142723083496,0.018291473388671875,0.08549439907073975
1782774920746354200,2.241354248046875,-0.44228076934814453,-0.10518360137939453,-0.19052350521087646
1782774920756363800,2.25136376953125,-0.4457230567932129,-0.24825191497802734,-0.3809858560562134
1782774920766373600,2.26137353515625,-0.4376239776611328,-0.3599386215209961,-0.3031594753265381
1782774920776353000,2.27135302734375,-0.303924560546875,-0.2144308090209961,-0.013892292976379395
1782774920786362600,2.281362548828125,-0.24250459671020508,-0.09818172454833984,0.21388399600982666
1782774920796372200,2.291372314453125,-0.24298477172851562,-0.09820175170898438,0.24359452724456787
1782774920806351600,2.3013515625,-0.23462438583374023,-0.09799385070800781,0.22421300411224365
1782774920816361500,2.311361572265625,-0.1782054901123047,-0.1434154510498047,0.11659872531890869
1782774920826371000,2.32137109375,-0.10939598083496094,-0.18189334869384766,0.023479580879211426
1782774920836350500,2.3313505859375,-0.09534978866577148,-0.2204914093017578,0.001965761184692383
1782774920846360300,2.3413603515625,-0.10097932815551758,-0.2252521514892578,0.004270195960998535
1782774920856370200,2.3513701171875,0.05448579788208008,-0.2194538116455078,0.020694732666015625
1782774920866349000,2.36134912109375,0.11388063430786133,-0.19896221160888672,0.10555970668792725
1782774920876359000,2.37135888671875,0.06893587112426758,-0.23392963409423828,0.038660287857055664
1782774920886368800,2.38136865234375,-0.07082700729370117,-0.27666759490966797,-0.08516907691955566
1782774920896348000,2.391347900390625,-0.11255311965942383,-0.1709308624267578,-0.03871810436248779
1782774920906357800,2.401357666015625,-0.0026693344116210938,-0.10725784301757812,0.05946052074432373
1782774920916367600,2.41136767578125,0.12473440170288086,-0.06888675689697266,0.23571765422821045
1782774920926346800,2.4213466796875,0.08778238296508789,-0.06319999694824219,0.3258119821548462
1782774920936356600,2.431356689453125,-0.016630172729492188,-0.12480735778808594,0.08855950832366943
1782774920946366200,2.4413662109375,-0.056601524353027344,-0.1605081558227539,-0.09980642795562744
1782774920956345600,2.451345703125,-0.06136274337768555,-0.2655162811279297,-0.2745997905731201
1782774920966355200,2.461355224609375,-0.040959835052490234,-0.3196573257446289,-0.33897602558135986
1782774920976365000,2.471364990234375,-0.08989620208740234,-0.2539081573486328,-0.16297054290771484
1782774920986375000,2.481375,-0.1618943214416504,-0.1978302001953125,0.010644078254699707
1782774920996354000,2.49135400390625,-0.26459550857543945,-0.21364307403564453,0.0012754201889038086
1782774921006364000,2.501364013671875,-0.2220926284790039,-0.19558429718017578,-0.03381145000457764
1782774921016313900,2.51131396484375,-0.15447235107421875,-0.15769004821777344,-0.0259857177734375
1782774921026385000,2.521385009765625,-0.16870927810668945,-0.16254425048828125,0.07455587387084961
1782774921036831500,2.53183154296875,-0.0650014877319336,-0.17003345489501953,0.059564828872680664
1782774921046372600,2.54137255859375,0.05131387710571289,-0.18983840942382812,0.049384117126464844
1782774921056292000,2.5512919921875,0.17518377304077148,-0.22435665130615234,-0.0867084264755249
1782774921066422300,2.56142236328125,0.31744384765625,-0.23236942291259766,-0.1782149076461792
1782774921076371000,2.571370849609375,0.3057718276977539,-0.22348880767822266,-0.2777292728424072
1782774921086350300,2.581350341796875,0.18757343292236328,-0.18187236785888672,-0.2901819944381714
1782774921096360200,2.591360107421875,-0.03200817108154297,-0.1397380828857422,-0.1868194341659546
1782774921106369800,2.601369873046875,-0.2588057518005371,-0.14994335174560547,-0.14867782592773438
1782774921116349200,2.61134912109375,-0.3628044128417969,-0.1230783462524414,-0.0435633659362793
1782774921126359000,2.621359130859375,-0.3425107002258301,0.0022983551025390625,0.20381200313568115
1782774921136368600,2.63136865234375,-0.2808499336242676,0.0926980972290039,0.5254034996032715
1782774921146348000,2.64134814453125,-0.2770261764526367,0.06592369079589844,0.3638613224029541
1782774921156357600,2.651357666015625,-0.14619874954223633,-0.03801727294921875,0.18164479732513428
1782774921166367500,2.661367431640625,-0.2037820816040039,-0.23263835906982422,-0.2386378049850464
1782774921176346600,2.6713466796875,-0.12667465209960938,-0.27608680725097656,-0.5041942596435547
1782774921186356500,2.6813564453125,0.023148059844970703,-0.2374401092529297,-0.4602257013320923
1782774921196366300,2.691366455078125,0.04601907730102539,-0.20317554473876953,-0.18638241291046143
1782774921206345500,2.701345458984375,-0.06545686721801758,-0.11674308776855469,0.007029891014099121
1782774921216355300,2.711355224609375,-0.20774602890014648,-0.031330108642578125,0.10946905612945557
1782774921226365200,2.721365234375,-0.29604101181030273,-0.03752899169921875,0.08003413677215576
1782774921236374800,2.731374755859375,-0.4445223808288574,-0.1250782012939453,0.02519083023071289
1782774921246354200,2.741354248046875,-0.5293974876403809,-0.1451740264892578,0.08133912086486816
1782774921256363800,2.75136376953125,-0.6173665523529053,-0.15779876708984375,0.01835191249847412
1782774921266373600,2.76137353515625,-0.6223576068878174,-0.15326213836669922,-0.02770709991455078
1782774921276353000,2.77135302734375,-0.4634394645690918,-0.12037372589111328,0.09772384166717529
1782774921286362600,2.781362548828125,-0.2985830307006836,-0.18616771697998047,0.017072677612304688
1782774921296372200,2.791372314453125,-0.17624568939208984,-0.29788970947265625,-0.09833884239196777
1782774921306351600,2.8013515625,-0.06918001174926758,-0.31476306915283203,-0.14060497283935547
1782774921316361500,2.811361572265625,-0.02392721176147461,-0.31392955780029297,-0.19688177108764648
1782774921326371000,2.82137109375,0.008954048156738281,-0.29363536834716797,-0.15084731578826904
1782774921336350500,2.8313505859375,0.12359142303466797,-0.20378589630126953,0.06321573257446289
1782774921346360300,2.8413603515625,0.1586318016052246,-0.1338338851928711,0.18755781650543213
1782774921356370200,2.8513701171875,0.06277227401733398,-0.1348285675048828,0.11488461494445801
1782774921366349000,2.86134912109375,-0.13949251174926758,-0.2048482894897461,-0.11047911643981934
1782774921376359000,2.87135888671875,-0.2773141860961914,-0.24479103088378906,-0.23578357696533203
1782774921386368800,2.88136865234375,-0.29524803161621094,-0.2583036422729492,-0.24977314472198486
1782774921396348000,2.891347900390625,-0.2946767807006836,-0.28569602966308594,-0.16900193691253662
1782774921406357800,2.901357666015625,-0.2258925437927246,-0.2523918151855469,-0.032206058502197266
1782774921416367600,2.91136767578125,-0.1256418228149414,-0.13895893096923828,0.04187512397766113
1782774921426287000,2.921287109375,-0.017305850982666016,-0.0990457534790039,0.04453003406524658
1782774921436598500,2.9315986328125,0.054793357849121094,-0.10451507568359375,-0.07930469512939453
1782774921446306600,2.941306640625,0.046378135681152344,-0.048175811767578125,-0.0930711030960083
1782774921456437200,2.951437255859375,0.029463768005371094,0.08425045013427734,-0.013595938682556152
1782774921466351400,2.961351318359375,0.025284767150878906,0.18049240112304688,0.12737464904785156
1782774921476365000,2.971364990234375,0.033313751220703125,0.24781131744384766,0.26404082775115967
1782774921486315000,2.98131494140625,-0.006638526916503906,0.1665668487548828,0.23422229290008545
1782774921496445400,2.991445556640625,-0.1210484504699707,0.09461402893066406,0.1136542558670044
1782774921506364000,3.001364013671875,-0.19211578369140625,0.041365623474121094,0.050218820571899414
1782774921516373500,3.01137353515625,-0.25275421142578125,-0.014804840087890625,0.04963815212249756
1782774921526353000,3.021352783203125,-0.19795846939086914,-0.10722637176513672,-0.06776249408721924
1782774921536303000,3.03130322265625,-0.17951679229736328,-0.1445302963256836,-0.19122111797332764
1782774921546433500,3.04143359375,-0.13795948028564453,-0.20070838928222656,-0.26105940341949463
1782774921556351700,3.051351806640625,-0.17594528198242188,-0.20641040802001953,-0.2418210506439209
1782774921566361300,3.061361328125,-0.24696779251098633,-0.24099159240722656,-0.208845853805542
1782774921576371000,3.071370849609375,-0.26207542419433594,-0.23755168914794922,-0.10976243019104004
1782774921586350300,3.081350341796875,-0.2675008773803711,-0.20765304565429688,0.021703362464904785
1782774921596360200,3.091360107421875,-0.24644947052001953,-0.2210683822631836,-0.05655777454376221
1782774921606369800,3.101369873046875,-0.21000909805297852,-0.29395294189453125,-0.2500666379928589
1782774921616349200,3.11134912109375,-0.21567106246948242,-0.35413551330566406,-0.2832763195037842
1782774921626359000,3.121359130859375,-0.23528814315795898,-0.3306427001953125,-0.26198136806488037
1782774921636369000,3.131368896484375,-0.17889833450317383,-0.26847076416015625,-0.25782692432403564
1782774921646348000,3.14134814453125,-0.09759187698364258,-0.2629823684692383,-0.19179630279541016
1782774921656357600,3.151357666015625,-0.05391120910644531,-0.21353530883789062,-0.22146594524383545
1782774921666367500,3.161367431640625,0.022271156311035156,-0.18036270141601562,-0.2365027666091919
1782774921676346600,3.1713466796875,0.03860902786254883,-0.1711139678955078,-0.1822364330291748
1782774921686356500,3.1813564453125,0.040157318115234375,-0.13768672943115234,-0.14002454280853271
1782774921696366300,3.191366455078125,0.17222976684570312,-0.048613548278808594,-0.013890743255615234
1782774921706345500,3.201345458984375,0.1787567138671875,-0.016495704650878906,-0.05028581619262695
1782774921716355300,3.211355224609375,0.15490961074829102,-0.06627655029296875,-0.1457303762435913
1782774921726365200,3.221365234375,0.2726469039916992,-0.08038806915283203,-0.19029617309570312
1782774921736374800,3.231374755859375,0.3110194206237793,-0.12073707580566406,-0.21027016639709473
1782774921746354200,3.241354248046875,0.29712820053100586,-0.055962562561035156,-0.14149701595306396
1782774921756363800,3.25136376953125,0.24660778045654297,0.0056934356689453125,-0.04973268508911133
1782774921766373600,3.26137353515625,0.08649063110351562,-0.020216941833496094,-0.07146978378295898
1782774921776353000,3.27135302734375,-0.09484434127807617,-0.06180858612060547,-0.057921409606933594
1782774921786362600,3.281362548828125,-0.22704410552978516,-0.04892730712890625,-0.1141808032989502
1782774921796372200,3.291372314453125,-0.32355737686157227,-0.050223350524902344,-0.07515287399291992
1782774921806351600,3.3013515625,-0.3659071922302246,-0.04367828369140625,0.12533462047576904
1782774921816361500,3.311361572265625,-0.3612651824951172,-0.007773399353027344,0.22408366203308105
1782774921826371300,3.321371337890625,-0.34064817428588867,-0.043274879455566406,0.21499693393707275
1782774921836350500,3.3313505859375,-0.31873559951782227,-0.1405773162841797,0.08468222618103027
1782774921846360300,3.3413603515625,-0.26906633377075195,-0.1488800048828125,0.055542588233947754
1782774921856370200,3.3513701171875,-0.18260526657104492,-0.1708383560180664,-0.03527200222015381
1782774921866289400,3.361289306640625,-0.045053958892822266,-0.16084766387939453,-0.03032374382019043
1782774921876009700,3.371009765625,0.18229198455810547,-0.10709190368652344,0.06288707256317139
1782774921886368800,3.38136865234375,0.2709627151489258,-0.07967853546142578,0.16029417514801025
1782774921896348000,3.391347900390625,0.19108295440673828,-0.0961904525756836,0.09309506416320801
1782774921906357800,3.401357666015625,0.0543975830078125,-0.15272903442382812,-0.07133913040161133
1782774921916367600,3.41136767578125,-0.07225608825683594,-0.1795978546142578,-0.14982616901397705
1782774921926346800,3.4213466796875,-0.15403175354003906,-0.14742374420166016,-0.10704803466796875
1782774921936356600,3.431356689453125,-0.20427608489990234,-0.13684654235839844,-0.1300954818725586
1782774921946366200,3.4413662109375,-0.13118839263916016,-0.11128044128417969,-0.0742332935333252
1782774921956345600,3.451345703125,-0.010498523712158203,-0.12746906280517578,-0.05146825313568115
1782774921966355200,3.461355224609375,0.1084890365600586,-0.15001201629638672,-0.04742419719696045
1782774921976365000,3.471364990234375,0.14908647537231445,-0.08897876739501953,0.11151063442230225
1782774921986374700,3.481374755859375,0.08228397369384766,0.061928749084472656,0.39741766452789307
1782774921996354000,3.49135400390625,-0.06719017028808594,0.1202993392944336,0.41072404384613037
1782774922006364000,3.501364013671875,-0.20662593841552734,0.1126413345336914,0.44485294818878174
1782774922016373500,3.51137353515625,-0.325836181640625,0.030260086059570312,0.42596590518951416
1782774922026353000,3.521352783203125,-0.41040754318237305,-0.1644287109375,0.020063281059265137
1782774922036362800,3.53136279296875,-0.44029951095581055,-0.37038421630859375,-0.38531428575515747
1782774922046372400,3.541372314453125,-0.3022465705871582,-0.43796443939208984,-0.457403302192688
1782774922056351700,3.551351806640625,0.06011247634887695,-0.3444805145263672,-0.22181761264801025
1782774922066361300,3.561361328125,0.32531070709228516,-0.2964763641357422,-0.027613162994384766
1782774922076371000,3.571370849609375,0.4551863670349121,-0.2666807174682617,0.13106966018676758
1782774922086350300,3.581350341796875,0.3806791305541992,-0.1823902130126953,0.18770694732666016
1782774922096360200,3.591360107421875,0.1602177619934082,-0.18668842315673828,0.06846344470977783
1782774922106310100,3.60131005859375,-0.18253660202026367,-0.24488067626953125,-0.08232605457305908
1782774922116440800,3.61144091796875,-0.4602527618408203,-0.31053924560546875,-0.20704948902130127
1782774922126299400,3.62129931640625,-0.4760251045227051,-0.2604990005493164,-0.2649475932121277
1782774922136429800,3.631429931640625,-0.2815237045288086,-0.21014976501464844,-0.0592954158782959
1782774922146288400,3.641288330078125,0.011546134948730469,-0.049666404724121094,0.18633460998535156
1782774922156601900,3.651601806640625,0.14586114883422852,0.022735595703125,0.3258014917373657
1782774922166367500,3.661367431640625,0.03599834442138672,-0.004214286804199219,0.2612152099609375
1782774922176346600,3.6713466796875,-0.061676025390625,-0.020765304565429688,0.11667835712432861
1782774922186356500,3.6813564453125,-0.1111149787902832,-0.07601451873779297,-0.02879774570465088
1782774922196366300,3.691366455078125,-0.16084671020507812,-0.13605976104736328,-0.201851487159729
1782774922206345500,3.701345458984375,-0.13899564743041992,-0.14088153839111328,-0.21949923038482666
1782774922216355300,3.711355224609375,-0.060640811920166016,-0.1354541778564453,-0.1114434003829956
1782774922226365200,3.721365234375,0.13415241241455078,-0.03365516662597656,0.16797888278961182
1782774922236374800,3.731374755859375,0.15439844131469727,0.05127906799316406,0.18395280838012695
1782774922246354200,3.741354248046875,0.06405925750732422,-0.03732490539550781,0.07159078121185303
1782774922256364000,3.751364013671875,-0.042496681213378906,-0.060532569885253906,-0.04244410991668701
1782774922266373600,3.76137353515625,-0.1847844123840332,-0.08512401580810547,-0.09637951850891113
1782774922276352800,3.771352783203125,-0.2831559181213379,-0.03350257873535156,-0.07386255264282227
1782774922286362600,3.781362548828125,-0.3145327568054199,-0.012935638427734375,-0.03486275672912598
1782774922296372200,3.791372314453125,-0.3013010025024414,-0.05415058135986328,0.011317253112792969
1782774922306351600,3.8013515625,-0.22535324096679688,-0.09922981262207031,0.026944398880004883
1782774922316361500,3.811361572265625,-0.19486379623413086,-0.12893295288085938,0.02735590934753418
1782774922326371000,3.82137109375,-0.1516580581665039,-0.17001056671142578,-0.11168467998504639
1782774922336350500,3.8313505859375,-0.11099767684936523,-0.2159261703491211,-0.2905316948890686
1782774922346360300,3.8413603515625,0.059746742248535156,-0.20221328735351562,-0.1211249828338623
1782774922356370200,3.8513701171875,0.0836648941040039,-0.13384437561035156,0.05486607551574707
1782774922366349300,3.861349365234375,0.01913738250732422,-0.07141780853271484,0.09087705612182617
1782774922376359000,3.87135888671875,-0.14864301681518555,-0.1298503875732422,-0.009095430374145508
1782774922386368500,3.881368408203125,-0.21780681610107422,-0.16959762573242188,-0.10260498523712158
1782774922396348000,3.891347900390625,-0.1756458282470703,-0.16103267669677734,-0.17555439472198486
1782774922406357800,3.901357666015625,-0.09969377517700195,-0.2113332748413086,-0.230987548828125
1782774922416367600,3.91136767578125,0.08182954788208008,-0.20549488067626953,-0.17836642265319824
1782774922426287000,3.921287109375,0.1996326446533203,-0.1101837158203125,0.005037426948547363
1782774922436388400,3.931388427734375,0.16192245483398438,-0.079376220703125,0.12482655048370361
1782774922446427400,3.941427490234375,0.06901359558105469,-0.06158733367919922,0.15759789943695068
1782774922456345600,3.951345703125,-0.07612133026123047,-0.09792900085449219,0.06827020645141602
1782774922466355200,3.961355224609375,-0.1718301773071289,-0.1998128890991211,-0.11604022979736328
1782774922476365000,3.971364990234375,-0.1650857925415039,-0.20347118377685547,-0.16485679149627686
1782774922486374700,3.981374755859375,-0.09141731262207031,-0.2394247055053711,-0.20366501808166504
1782774922496354000,3.99135400390625,0.012779712677001953,-0.24283599853515625,-0.19140076637268066
1782774922506364000,4.001364013671875,0.12426376342773438,-0.21394824981689453,-0.09298038482666016
1782774922516373500,4.01137353515625,0.10129356384277344,-0.18233871459960938,-0.050582170486450195
1782774922526353000,4.021352783203125,0.015614509582519531,-0.19942760467529297,0.004984378814697266
1782774922536362800,4.03136279296875,-0.05052518844604492,-0.18425369262695312,0.009094953536987305
1782774922546372400,4.041372314453125,-0.13602113723754883,-0.1342020034790039,0.07010245323181152
1782774922556351700,4.051351806640625,-0.1491069793701172,-0.05096912384033203,0.08114683628082275
1782774922566361300,4.061361328125,-0.0690164566040039,0.03951740264892578,0.10680186748504639
1782774922576371000,4.071370849609375,-0.08679008483886719,0.08922767639160156,0.21097469329833984
1782774922586350300,4.081350341796875,-0.30227231979370117,0.011533737182617188,0.18587565422058105
1782774922596360200,4.091360107421875,-0.5221271514892578,-0.08811092376708984,0.016176342964172363
1782774922606369800,4.101369873046875,-0.7337048053741455,-0.2544574737548828,-0.23262429237365723
1782774922616349200,4.11134912109375,-0.5310163497924805,-0.3443784713745117,-0.26228606700897217
1782774922626359000,4.121359130859375,-0.2120800018310547,-0.3880729675292969,-0.07535898685455322
1782774922636368600,4.13136865234375,0.02462482452392578,-0.28610801696777344,0.16394710540771484
1782774922646288400,4.141288330078125,0.18805408477783203,-0.07656288146972656,0.31245970726013184
1782774922656418800,4.151418701171875,0.24741840362548828,0.030918121337890625,0.4297720193862915
1782774922666367500,4.161367431640625,0.17967796325683594,-0.052794456481933594,0.348904013633728
1782774922676346600,4.1713466796875,0.032474517822265625,-0.11973190307617188,0.09939980506896973
1782774922686281500,4.181281494140625,-0.15049457550048828,-0.2433929443359375,-0.15222454071044922
1782774922696427300,4.19142724609375,-0.3050518035888672,-0.30492496490478516,-0.27252519130706787
1782774922706285800,4.201285888671875,-0.3326597213745117,-0.31026172637939453,-0.3373776078224182
1782774922716446700,4.21144677734375,-0.19325971603393555,-0.2875833511352539,-0.16644799709320068
1782774922726365200,4.221365234375,0.008380413055419922,-0.18198299407958984,0.1531449556350708
1782774922736374800,4.231374755859375,0.1304922103881836,-0.08315658569335938,0.2801729440689087
1782774922746354200,4.241354248046875,0.04828357696533203,-0.11445236206054688,0.19683074951171875
1782774922756364000,4.251364013671875,-0.138885498046875,-0.1689281463623047,-0.03567838668823242
1782774922766373600,4.26137353515625,-0.2953972816467285,-0.2580604553222656,-0.19515609741210938
1782774922776352800,4.271352783203125,-0.37069177627563477,-0.3111906051635742,-0.30188655853271484
1782774922786362600,4.281362548828125,-0.3619651794433594,-0.3009757995605469,-0.33685821294784546
1782774922796372200,4.291372314453125,-0.20050382614135742,-0.2271099090576172,-0.3068944215774536
1782774922806351600,4.3013515625,0.09884309768676758,-0.13461589813232422,-0.08188676834106445
1782774922816361500,4.311361572265625,0.2977771759033203,-0.040770530700683594,0.13199496269226074
1782774922826371000,4.32137109375,0.30072498321533203,-0.0740041732788086,0.06829822063446045
1782774922836350500,4.3313505859375,0.15771865844726562,-0.11832046508789062,-0.07977986335754395
1782774922846360300,4.3413603515625,-0.06836605072021484,-0.16913700103759766,-0.20047318935394287
1782774922856370200,4.3513701171875,-0.19356155395507812,-0.18776416778564453,-0.16817045211791992
1782774922866349300,4.361349365234375,-0.2862844467163086,-0.21167469024658203,-0.13467061519622803
1782774922876359000,4.37135888671875,-0.2841157913208008,-0.23990631103515625,-0.16597223281860352
1782774922886368500,4.381368408203125,-0.19166088104248047,-0.24049091339111328,-0.17417287826538086
1782774922896348000,4.391347900390625,0.018573284149169922,-0.1551809310913086,-0.02636253833770752
1782774922906357800,4.401357666015625,0.28320932388305664,-0.08506202697753906,0.0876615047454834
1782774922916367600,4.41136767578125,0.3724370002746582,-0.10555458068847656,0.1534970998764038
1782774922926287000,4.421287109375,0.28392791748046875,-0.14143657684326172,0.004623889923095703
1782774922936388400,4.431388427734375,0.04044485092163086,-0.1935100555419922,-0.23559355735778809
1782774922946427400,4.441427490234375,-0.1379704475402832,-0.21612167358398438,-0.3879147171974182
1782774922956345600,4.451345703125,-0.25224828720092773,-0.21812725067138672,-0.353526771068573
1782774922966355200,4.461355224609375,-0.19707584381103516,-0.19105148315429688,-0.3124675750732422
1782774922976365000,4.471364990234375,-0.1373143196105957,-0.12644577026367188,-0.08683860301971436
1782774922986374700,4.481374755859375,-0.16501617431640625,-0.05618095397949219,0.053392767906188965
1782774922996354000,4.49135400390625,-0.14307737350463867,0.012070655822753906,0.1620926856994629
1782774923006364000,4.501364013671875,-0.043343544006347656,0.03537464141845703,0.18027889728546143
1782774923016373500,4.51137353515625,-0.023447513580322266,0.0014600753784179688,0.09430146217346191
1782774923026353000,4.521352783203125,-0.08205986022949219,-0.10707569122314453,-0.17739880084991455
1782774923036362800,4.53136279296875,-0.04680061340332031,-0.20396900177001953,-0.27616333961486816
1782774923046372400,4.541372314453125,0.010159969329833984,-0.243408203125,-0.27723586559295654
1782774923056351700,4.551351806640625,0.07672643661499023,-0.31861019134521484,-0.24830329418182373
1782774923066361300,4.561361328125,0.11313772201538086,-0.2767972946166992,-0.14642047882080078
1782774923076371000,4.571370849609375,0.11331844329833984,-0.16151142120361328,-0.008250832557678223
1782774923086350300,4.581350341796875,0.10181617736816406,-0.08086109161376953,0.06367814540863037
1782774923096360200,4.591360107421875,0.07346343994140625,-0.046700477600097656,0.12501788139343262
1782774923106370000,4.6013701171875,-0.02931690216064453,-0.051947593688964844,0.13610422611236572
1782774923116349200,4.61134912109375,-0.1924271583557129,-0.060619354248046875,-0.0030748844146728516
1782774923126359000,4.621359130859375,-0.3471550941467285,-0.14902687072753906,-0.2131444215774536
1782774923136369000,4.631368896484375,-0.28647470474243164,-0.17043590545654297,-0.2980971336364746
1782774923146348000,4.64134814453125,-0.19397640228271484,-0.20754241943359375,-0.17850279808044434
1782774923156357600,4.651357666015625,-0.23643064498901367,-0.21033287048339844,0.008220314979553223
1782774923166367500,4.661367431640625,-0.30242300033569336,-0.1437826156616211,0.05066955089569092
1782774923176347000,4.671346923828125,-0.2916526794433594,-0.09887409210205078,0.06942760944366455
1782774923186356500,4.6813564453125,-0.2606830596923828,-0.08686351776123047,0.17235183715820312
1782774923196366000,4.691365966796875,-0.19835472106933594,-0.09072494506835938,0.16156768798828125
1782774923206345500,4.701345458984375,-0.057204246520996094,-0.08879852294921875,0.09986591339111328
1782774923216355300,4.711355224609375,-0.08741950988769531,-0.0935068130493164,0.146753191947937
1782774923226365200,4.721365234375,-0.15839433670043945,-0.14378929138183594,0.06987631320953369
1782774923236374800,4.731374755859375,-0.16164731979370117,-0.1730031967163086,-0.046787142753601074
1782774923246354200,4.741354248046875,-0.22861242294311523,-0.21944713592529297,-0.12263119220733643
1782774923256364000,4.751364013671875,-0.25490903854370117,-0.22990703582763672,-0.08871924877166748
1782774923266373600,4.76137353515625,-0.22273492813110352,-0.1486806869506836,0.0024993419647216797
1782774923276352800,4.771352783203125,-0.07034969329833984,-0.023385047912597656,0.08146142959594727
1782774923286362600,4.781362548828125,0.07345294952392578,0.014057159423828125,0.18647682666778564
1782774923296372200,4.791372314453125,0.04766082763671875,-0.018072128295898438,0.2384880781173706
1782774923306351600,4.8013515625,-0.002799510955810547,-0.06307029724121094,0.16411805152893066
1782774923316361500,4.811361572265625,-0.0803842544555664,-0.06587791442871094,0.1503380537033081
1782774923326371000,4.82137109375,-0.1448822021484375,-0.0644845962524414,0.1535855531692505
1782774923336350500,4.8313505859375,-0.20317983627319336,-0.04222583770751953,0.17352569103240967
1782774923346360300,4.8413603515625,-0.3248438835144043,-0.05642509460449219,0.08525228500366211
1782774923356370000,4.851369873046875,-0.35430049896240234,-0.14301395416259766,0.027893781661987305
1782774923366349300,4.861349365234375,-0.3274970054626465,-0.2506389617919922,-0.07922720909118652
1782774923376359000,4.87135888671875,-0.26376914978027344,-0.2872333526611328,-0.11060738563537598
1782774923386368500,4.881368408203125,-0.13321733474731445,-0.2234792709350586,-0.04940950870513916
1782774923396348000,4.891347900390625,0.03589153289794922,-0.19335269927978516,0.03292560577392578
1782774923406357800,4.901357666015625,0.10712242126464844,-0.2255105972290039,0.006904721260070801
1782774923416367600,4.91136767578125,0.1589040756225586,-0.24896812438964844,0.06378626823425293
1782774923426346800,4.9213466796875,0.1361088752746582,-0.2014007568359375,0.12421643733978271
1782774923436356600,4.931356689453125,0.05466747283935547,-0.1617279052734375,0.07046175003051758
1782774923446366500,4.941366455078125,-0.02153635025024414,-0.20867061614990234,-0.005921483039855957
1782774923456345600,4.951345703125,-0.11424064636230469,-0.29193878173828125,-0.24333560466766357
1782774923466355200,4.961355224609375,-0.07826852798461914,-0.37508678436279297,-0.35271430015563965
1782774923476365000,4.971364990234375,0.003943920135498047,-0.35439491271972656,-0.2495049238204956
1782774923486374700,4.981374755859375,0.16307306289672852,-0.28713226318359375,-0.10586965084075928
1782774923496354000,4.99135400390625,0.2726421356201172,-0.1806783676147461,0.013505339622497559
1782774923506364000,5.001364013671875,0.33892011642456055,-0.11484813690185547,0.09475851058959961
1782774923516373800,5.011373779296875,0.17356443405151367,-0.09354877471923828,0.07995963096618652
1782774923526353000,5.021352783203125,-0.11774682998657227,-0.11570262908935547,-0.035971760749816895
1782774923536362800,5.03136279296875,-0.38486289978027344,-0.18822193145751953,-0.18794596195220947
1782774923546372600,5.04137255859375,-0.5096089839935303,-0.2228860855102539,-0.2567096948623657
1782774923556351500,5.0513515625,-0.4549441337585449,-0.17724990844726562,-0.17003095149993896
1782774923566361300,5.061361328125,-0.24170732498168945,-0.146270751953125,-0.059450507164001465
1782774923576371000,5.071370849609375,-0.0347743034362793,-0.09419822692871094,0.07502532005310059
1782774923586350300,5.081350341796875,0.12034749984741211,-0.03183937072753906,0.15237021446228027
1782774923596360200,5.091360107421875,0.15443038940429688,0.013115882873535156,0.1323171854019165
1782774923606370000,5.1013701171875,0.004634380340576172,0.04463768005371094,0.0550614595413208
1782774923616349200,5.11134912109375,-0.08980703353881836,-0.004246711730957031,-0.028941035270690918
1782774923626359000,5.121359130859375,-0.14740991592407227,-0.05128288269042969,-0.028589487075805664
1782774923636369000,5.131368896484375,-0.23598957061767578,-0.028949737548828125,-0.0019588470458984375
1782774923646348000,5.14134814453125,-0.34765005111694336,-0.03815650939941406,-0.09748685359954834
1782774923656357600,5.151357666015625,-0.3511662483215332,-0.07146644592285156,-0.02087700366973877
1782774923666367500,5.161367431640625,-0.1455698013305664,-0.03442668914794922,0.0907602310180664
1782774923676347000,5.171346923828125,0.09320926666259766,0.013597488403320312,0.19245004653930664
1782774923686356500,5.1813564453125,0.14896726608276367,-0.03851509094238281,0.09372580051422119
1782774923696366000,5.191365966796875,0.1578836441040039,-0.074615478515625,-0.03224194049835205
1782774923706345500,5.201345458984375,0.0880131721496582,-0.12164497375488281,-0.08837974071502686
1782774923716355300,5.211355224609375,-0.024910449981689453,-0.1434173583984375,-0.023192882537841797
1782774923726365200,5.221365234375,-0.12685155868530273,-0.11791610717773438,0.003172159194946289
1782774923736374800,5.231374755859375,-0.22641658782958984,-0.10439109802246094,-0.01822185516357422
1782774923746354200,5.241354248046875,-0.2859158515930176,-0.1456155776977539,-0.010872960090637207
1782774923756364000,5.251364013671875,-0.3217473030090332,-0.1507110595703125,0.02707827091217041
1782774923766373600,5.26137353515625,-0.32910585403442383,-0.16748809814453125,0.05920708179473877
1782774923776352800,5.271352783203125,-0.3088674545288086,-0.20046710968017578,0.0625920295715332
1782774923786362600,5.281362548828125,-0.31905031204223633,-0.24941253662109375,0.04707205295562744
1782774923796372200,5.291372314453125,-0.25899457931518555,-0.2689323425292969,0.04405534267425537
1782774923806351600,5.3013515625,-0.08556795120239258,-0.24459075927734375,0.06252515316009521
1782774923816361500,5.311361572265625,0.11261129379272461,-0.27698612213134766,0.011917829513549805
1782774923826371000,5.32137109375,0.17801380157470703,-0.3211336135864258,-0.2879645824432373
1782774923836350500,5.3313505859375,0.1838831901550293,-0.2913246154785156,-0.39798134565353394
1782774923846360300,5.3413603515625,0.17167234420776367,-0.1755685806274414,-0.15551412105560303
1782774923856370200,5.3513701171875,0.09942150115966797,-0.09156990051269531,0.016915321350097656
1782774923866349300,5.361349365234375,0.0056324005126953125,-0.04206371307373047,0.1400824785232544
1782774923876359000,5.37135888671875,-0.11352729797363281,0.0021562576293945312,0.17005598545074463
1782774923886368500,5.381368408203125,-0.19235467910766602,-0.00628662109375,0.06230032444000244
1782774923896348000,5.391347900390625,-0.20935869216918945,-0.07690811157226562,-0.08761680126190186
1782774923906357800,5.401357666015625,-0.1077275276184082,-0.13981246948242188,-0.05084097385406494
1782774923916367600,5.41136767578125,0.01624584197998047,-0.10852718353271484,0.02162766456604004
1782774923926346800,5.4213466796875,0.14371776580810547,-0.05277061462402344,-0.012959718704223633
1782774923936356600,5.431356689453125,0.17238378524780273,-0.08062076568603516,-0.022764205932617188
1782774923946366500,5.441366455078125,0.1365818977355957,-0.14929771423339844,-0.04187333583831787
1782774923956345600,5.451345703125,0.049307823181152344,-0.1611928939819336,-0.07952094078063965
1782774923966355200,5.461355224609375,-0.07029247283935547,-0.17364501953125,-0.10298395156860352
1782774923976365000,5.471364990234375,-0.09821128845214844,-0.1336688995361328,-0.048091888427734375
1782774923986374700,5.481374755859375,-0.1114506721496582,-0.1463308334350586,-0.02322709560394287
1782774923996354000,5.49135400390625,-0.10539007186889648,-0.1636829376220703,0.04600059986114502
1782774924006364000,5.501364013671875,-0.11375045776367188,-0.2096872329711914,0.09093773365020752
1782774924016373500,5.51137353515625,-0.13466262817382812,-0.22196102142333984,-0.0144500732421875
1782774924026353000,5.521352783203125,-0.05569744110107422,-0.20526599884033203,-0.006698966026306152
1782774924036362800,5.53136279296875,-0.0728464126586914,-0.24580001831054688,-0.07357347011566162
1782774924046372400,5.541372314453125,-0.010348320007324219,-0.1644763946533203,-0.04752504825592041
1782774924056351500,5.5513515625,0.0714106559753418,-0.07589912414550781,0.04711592197418213
1782774924066361300,5.561361328125,0.0695962905883789,-0.03280925750732422,0.1481877565383911
1782774924076371000,5.571370849609375,0.08512687683105469,-0.0067539215087890625,0.1438523530960083
1782774924086350300,5.581350341796875,-0.04114103317260742,-0.046319007873535156,0.09210097789764404
1782774924096360200,5.591360107421875,-0.15346574783325195,-0.05100727081298828,0.033675193786621094
1782774924106370000,5.6013701171875,-0.19784784317016602,-0.10650348663330078,-0.0744173526763916
1782774924116349200,5.61134912109375,-0.22827577590942383,-0.19293785095214844,-0.11294317245483398
1782774924126359000,5.621359130859375,-0.20276498794555664,-0.194854736328125,-0.06274557113647461
1782774924136369000,5.631368896484375,-0.0928044319152832,-0.0833272933959961,0.16177904605865479
1782774924146348000,5.64134814453125,-0.06261014938354492,-0.09335803985595703,0.22469985485076904
1782774924156357600,5.651357666015625,-0.08670330047607422,-0.2043142318725586,0.1151731014251709
1782774924166367500,5.661367431640625,-0.1740713119506836,-0.2538728713989258,-0.0816720724105835
1782774924176347000,5.671346923828125,-0.22009897232055664,-0.2679710388183594,-0.19133424758911133
1782774924186356500,5.6813564453125,-0.29968738555908203,-0.3275575637817383,-0.22186684608459473
1782774924196366000,5.691365966796875,-0.2986617088317871,-0.3436088562011719,-0.24557888507843018
1782774924206345500,5.701345458984375,-0.19884204864501953,-0.2677631378173828,-0.09496605396270752
1782774924216355300,5.711355224609375,-0.12249422073364258,-0.186065673828125,-0.01706254482269287
1782774924226365200,5.721365234375,-0.12372827529907227,-0.19959259033203125,-0.06418049335479736
1782774924236374800,5.731374755859375,-0.10572385787963867,-0.2299823760986328,-0.15875470638275146
1782774924246354200,5.741354248046875,-0.08826494216918945,-0.23383045196533203,-0.19309186935424805
1782774924256364000,5.751364013671875,0.026614665985107422,-0.12476825714111328,-0.10786068439483643
1782774924266373600,5.76137353515625,0.15301036834716797,-0.08247947692871094,-0.08757305145263672
1782774924276352800,5.771352783203125,0.18155574798583984,-0.10263442993164062,-0.0765531063079834
1782774924286362600,5.781362548828125,0.18898248672485352,-0.14718914031982422,-0.21230757236480713
1782774924296372200,5.791372314453125,0.20138263702392578,-0.1585397720336914,-0.2771272659301758
1782774924306351600,5.8013515625,0.3616652488708496,-0.1457681655883789,-0.2742960453033447
1782774924316361500,5.811361572265625,0.41953039169311523,-0.10668087005615234,-0.10067296028137207
1782774924326371000,5.82137109375,0.31085205078125,-0.05682182312011719,0.10810708999633789
1782774924336350500,5.8313505859375,0.05489158630371094,-0.04779338836669922,0.15883851051330566
1782774924346360300,5.8413603515625,-0.1915292739868164,-0.052971839904785156,0.10389673709869385
1782774924356370000,5.851369873046875,-0.36667537689208984,-0.14049625396728516,0.013579010963439941
1782774924366349300,5.861349365234375,-0.449723482131958,-0.19876861572265625,0.0389329195022583
1782774924376359000,5.87135888671875,-0.43756985664367676,-0.183868408203125,0.05054676532745361
1782774924386368500,5.881368408203125,-0.3638739585876465,-0.16275405883789062,0.08653759956359863
1782774924396348000,5.891347900390625,-0.2902350425720215,-0.16200923919677734,0.1608142852783203
1782774924406357800,5.901357666015625,-0.18267250061035156,-0.1075754165649414,0.23224222660064697
1782774924416367600,5.91136767578125,-0.06952714920043945,-0.10750675201416016,0.16281747817993164
1782774924426346800,5.9213466796875,-0.026906967163085938,-0.07356643676757812,0.13758480548858643
1782774924436356600,5.931356689453125,0.024462223052978516,-0.104034423828125,0.07032740116119385
1782774924446366500,5.941366455078125,0.08257865905761719,-0.0937204360961914,0.03021073341369629
1782774924456345600,5.951345703125,0.09792232513427734,-0.0955352783203125,0.011690497398376465
1782774924466355200,5.961355224609375,0.0826411247253418,-0.08315849304199219,0.08133018016815186
1782774924476365000,5.971364990234375,0.10093164443969727,-0.013329505920410156,0.07902765274047852
1782774924486374700,5.981374755859375,0.035744667053222656,-0.0706186294555664,0.06762886047363281
1782774924496354000,5.99135400390625,-0.07916879653930664,-0.14736175537109375,-0.05126631259918213
1782774924506364000,6.001364013671875,-0.12395048141479492,-0.2174510955810547,-0.10662364959716797
1782774924516373500,6.01137353515625,-0.15413665771484375,-0.2565326690673828,-0.13559401035308838
1782774924526353000,6.021352783203125,-0.18207359313964844,-0.29305076599121094,-0.150848388671875
1782774924536362800,6.03136279296875,-0.19799184799194336,-0.2839622497558594,-0.10718059539794922
1782774924546372400,6.041372314453125,-0.2108626365661621,-0.2510976791381836,-0.02137124538421631
1782774924556351500,6.0513515625,-0.16316843032836914,-0.17774486541748047,0.02052915096282959
1782774924566361300,6.061361328125,-0.2482442855834961,-0.10977458953857422,0.016747117042541504
1782774924576371000,6.071370849609375,-0.40320372581481934,-0.112213134765625,-0.10395312309265137
1782774924586350300,6.081350341796875,-0.536729097366333,-0.008015632629394531,-0.03534245491027832
1782774924596360200,6.091360107421875,-0.42374205589294434,0.022027015686035156,-0.007538795471191406
1782774924606370000,6.1013701171875,-0.2500643730163574,0.015576362609863281,0.058968424797058105
1782774924616349200,6.11134912109375,-0.0774683952331543,0.013972282409667969,-0.028037667274475098
1782774924626359000,6.121359130859375,-0.006972789764404297,-0.002864837646484375,-0.131974458694458
1782774924636369000,6.131368896484375,0.08828067779541016,-0.019073486328125,-0.19435882568359375
1782774924646348000,6.14134814453125,0.2240281105041504,0.039150238037109375,-0.0994335412979126
1782774924656357600,6.151357666015625,0.2763638496398926,0.02800273895263672,-0.06830084323883057
1782774924666367500,6.161367431640625,0.37298107147216797,0.0713663101196289,-0.0180356502532959
1782774924676347000,6.171346923828125,0.36937713623046875,0.07040882110595703,0.07243716716766357
1782774924686356500,6.1813564453125,0.2649807929992676,0.006075859069824219,-0.011207818984985352
1782774924696366000,6.191365966796875,0.16033601760864258,-0.03067779541015625,-0.060489535331726074
1782774924706345500,6.201345458984375,0.03087329864501953,-0.06822490692138672,-0.13563799858093262
1782774924716355300,6.211355224609375,-0.0452117919921875,-0.1420574188232422,-0.16264629364013672
1782774924726365200,6.221365234375,-0.030128002166748047,-0.13919448852539062,-0.06389880180358887
1782774924736374800,6.231374755859375,-0.005337715148925781,-0.07872200012207031,0.0933070182800293
1782774924746354200,6.241354248046875,-0.01374197006225586,-0.042252540588378906,0.12537682056427002
1782774924756364000,6.251364013671875,-0.07429361343383789,-0.09706783294677734,0.11953914165496826
1782774924766373600,6.26137353515625,-0.16104793548583984,-0.16643047332763672,-0.048284292221069336
1782774924776352800,6.271352783203125,-0.15285682678222656,-0.21155261993408203,-0.10291612148284912
1782774924786362600,6.281362548828125,-0.10059404373168945,-0.23203659057617188,-0.00927579402923584
1782774924796372200,6.291372314453125,-0.08736324310302734,-0.20656967163085938,0.052439332008361816
1782774924806351600,6.3013515625,-0.18138694763183594,-0.23152637481689453,0.12555921077728271
1782774924816361500,6.311361572265625,-0.34365367889404297,-0.25461769104003906,0.11705899238586426
1782774924826371000,6.32137109375,-0.48639655113220215,-0.2539815902709961,-0.00847470760345459
1782774924836350500,6.3313505859375,-0.386279821395874,-0.20972824096679688,-0.06857848167419434
1782774924846360300,6.3413603515625,-0.3648951053619385,-0.23860645294189453,0.05986368656158447
1782774924856370000,6.351369873046875,-0.42881131172180176,-0.27153682708740234,0.02532660961151123
1782774924866349300,6.361349365234375,-0.4174540042877197,-0.23695755004882812,-0.13738727569580078
1782774924876359000,6.37135888671875,-0.1936054229736328,-0.28247833251953125,-0.3088982105255127
1782774924886368800,6.38136865234375,0.22283458709716797,-0.2709360122680664,-0.16109657287597656
1782774924896348000,6.391347900390625,0.4747905731201172,-0.1792306900024414,0.04178023338317871
1782774924906357800,6.401357666015625,0.5904664993286133,-0.10669612884521484,-0.01667320728302002
1782774924916367600,6.41136767578125,0.6440563201904297,-0.06310367584228516,-0.016632914543151855
1782774924926346800,6.4213466796875,0.600304126739502,-0.10135269165039062,-0.03532910346984863
1782774924936356600,6.431356689453125,0.43503332138061523,-0.0978689193725586,-0.0448530912399292
1782774924946366500,6.441366455078125,0.22667551040649414,-0.11587047576904297,-0.11405718326568604
1782774924956345600,6.451345703125,0.05107259750366211,-0.1692638397216797,-0.08796143531799316
1782774924966355200,6.461355224609375,-0.11802434921264648,-0.21631240844726562,-0.17433440685272217
1782774924976365000,6.471364990234375,-0.17466306686401367,-0.2874279022216797,-0.2763357162475586
1782774924986374700,6.481374755859375,-0.16295909881591797,-0.3340282440185547,-0.2302391529083252
1782774924996354000,6.49135400390625,-0.15916681289672852,-0.3321342468261719,-0.14523208141326904
1782774925006364000,6.501364013671875,-0.129180908203125,-0.26997852325439453,-0.017071843147277832
1782774925016373500,6.51137353515625,-0.04610919952392578,-0.1262807846069336,0.18059766292572021
1782774925026353000,6.521352783203125,0.08055496215820312,0.03417396545410156,0.312050461769104
1782774925036362800,6.53136279296875,0.09790563583374023,0.04345893859863281,0.23247289657592773
1782774925046372600,6.54137255859375,-0.019531726837158203,0.008616447448730469,-0.015519499778747559
1782774925056351500,6.5513515625,-0.1065530776977539,-0.04404735565185547,-0.20908641815185547
1782774925066361300,6.561361328125,-0.06901073455810547,-0.05853557586669922,-0.26784205436706543
1782774925076371000,6.571370849609375,0.053904056549072266,-0.019858360290527344,-0.18118393421173096
1782774925086350300,6.581350341796875,0.17651844024658203,0.01200103759765625,0.009370207786560059
1782774925096360200,6.591360107421875,0.21216201782226562,0.08652019500732422,0.2983309030532837
1782774925106370000,6.6013701171875,-0.010162353515625,0.11654090881347656,0.39092588424682617
1782774925116349200,6.61134912109375,-0.33470916748046875,0.0514373779296875,0.2675994634628296
1782774925126359000,6.621359130859375,-0.5622308254241943,-0.06002044677734375,0.07201254367828369
1782774925136369000,6.631368896484375,-0.6512260437011719,-0.137908935546875,-0.08198940753936768
1782774925146348000,6.64134814453125,-0.5597729682922363,-0.13363361358642578,-0.030272960662841797
1782774925156357600,6.651357666015625,-0.36156344413757324,-0.07735347747802734,0.13788926601409912
1782774925166367500,6.661367431640625,-0.16007184982299805,-0.0024232864379882812,0.30082011222839355
1782774925176347000,6.671346923828125,-0.07867431640625,-0.05570411682128906,0.1994103193283081
1782774925186356500,6.6813564453125,-0.07313203811645508,-0.17084312438964844,0.06687068939208984
1782774925196366000,6.691365966796875,-0.057093143463134766,-0.2736234664916992,-0.07332706451416016
1782774925206345500,6.701345458984375,0.046097755432128906,-0.25141239166259766,-0.1645115613937378
1782774925216355300,6.711355224609375,0.16806936264038086,-0.24798583984375,-0.012767553329467773
1782774925226365200,6.721365234375,0.19043493270874023,-0.23748207092285156,0.13921046257019043
1782774925236374800,6.731374755859375,0.12331199645996094,-0.21799087524414062,0.11573827266693115
1782774925246354200,6.741354248046875,0.026082515716552734,-0.220672607421875,-0.00970447063446045
1782774925256364000,6.751364013671875,0.008227348327636719,-0.2955160140991211,-0.11493265628814697
1782774925266373600,6.76137353515625,-0.02414417266845703,-0.36552906036376953,-0.17207562923431396
1782774925276352800,6.771352783203125,-0.03043222427368164,-0.35631656646728516,-0.13649487495422363
1782774925286362600,6.781362548828125,-0.03948068618774414,-0.2533607482910156,0.053417325019836426
1782774925296372200,6.791372314453125,-0.09619855880737305,-0.1454935073852539,0.23232614994049072
1782774925306351600,6.8013515625,-0.1669020652770996,-0.13830089569091797,0.2265232801437378
1782774925316361500,6.811361572265625,-0.21160316467285156,-0.2149372100830078,0.11656928062438965
1782774925326371000,6.82137109375,-0.22633075714111328,-0.24339962005615234,-0.018158435821533203
1782774925336350500,6.8313505859375,-0.1251683235168457,-0.21144390106201172,-0.0037915706634521484
1782774925346360300,6.8413603515625,-0.09242630004882812,-0.18595504760742188,0.012501716613769531
1782774925356370000,6.851369873046875,0.05914735794067383,-0.12171745300292969,0.03337240219116211
1782774925366349300,6.861349365234375,0.19585657119750977,-0.12183380126953125,0.09220457077026367
1782774925376359000,6.87135888671875,0.1913461685180664,-0.10767364501953125,0.015057802200317383
1782774925386368500,6.881368408203125,0.12766361236572266,-0.1011972427368164,-0.06571626663208008
1782774925396348000,6.891347900390625,0.04639387130737305,-0.09548377990722656,-0.043329477310180664
1782774925406357800,6.901357666015625,-0.018799781799316406,-0.13832378387451172,0.030905961990356445
1782774925416367600,6.91136767578125,-0.15187454223632812,-0.13634967803955078,-0.04123854637145996
1782774925426346800,6.9213466796875,-0.19104623794555664,-0.1107339859008789,-0.05795490741729736
1782774925436356600,6.931356689453125,-0.15146160125732422,-0.08738994598388672,-0.022031545639038086
1782774925446366500,6.941366455078125,-0.16772222518920898,-0.11631298065185547,-0.058194637298583984
1782774925456345600,6.951345703125,-0.09893941879272461,-0.13756942749023438,-0.08445882797241211
1782774925466355200,6.961355224609375,0.02545785903930664,-0.09824180603027344,-0.08353602886199951
1782774925476365000,6.971364990234375,0.1504225730895996,-0.04853630065917969,-0.020000338554382324
1782774925486374700,6.981374755859375,0.2343144416809082,-0.07526493072509766,-0.009166240692138672
1782774925496354000,6.99135400390625,0.1760725975036621,-0.07153701782226562,-0.022534728050231934
1782774925506364000,7.001364013671875,0.05077171325683594,-0.04739952087402344,-0.04531562328338623
1782774925516373500,7.01137353515625,-0.04636049270629883,0.01655292510986328,0.0015038251876831055
1782774925526353000,7.021352783203125,-0.12772512435913086,-0.01598358154296875,0.008044123649597168
1782774925536362800,7.03136279296875,-0.26366233825683594,-0.03927421569824219,-0.013506650924682617
1782774925546372400,7.041372314453125,-0.3041043281555176,-0.07462310791015625,-0.09829056262969971
1782774925556351500,7.0513515625,-0.3742496967315674,-0.13364124298095703,-0.21539640426635742
1782774925566361300,7.061361328125,-0.2573723793029785,-0.1654825210571289,-0.2333388328552246
1782774925576371000,7.071370849609375,-0.019136428833007812,-0.10244560241699219,-0.1437528133392334
1782774925586350300,7.081350341796875,0.14032459259033203,-0.03819465637207031,0.0067996978759765625
1782774925596360200,7.091360107421875,0.19053888320922852,-0.0005254745483398438,0.07725811004638672
1782774925606370000,7.1013701171875,0.1669449806213379,0.007190704345703125,0.09444451332092285
1782774925616349200,7.11134912109375,0.019623756408691406,0.0038509368896484375,0.07326960563659668
1782774925626359000,7.121359130859375,-0.13305330276489258,-0.021971702575683594,0.02389359474182129
1782774925636369000,7.131368896484375,-0.19979572296142578,0.0048923492431640625,-0.036728739738464355
1782774925646348000,7.14134814453125,-0.1318359375,-0.017754554748535156,-0.08734452724456787
1782774925656357600,7.151357666015625,-0.006180286407470703,-0.06095314025878906,-0.08278703689575195
1782774925666367500,7.161367431640625,0.0630793571472168,-0.07950019836425781,0.03375232219696045
1782774925676347000,7.171346923828125,0.03950214385986328,-0.04310417175292969,0.14703118801116943
1782774925686356500,7.1813564453125,0.008036136627197266,-0.050459861755371094,0.2306910753250122
1782774925696366000,7.191365966796875,-0.10748529434204102,-0.09701251983642578,0.1651390790939331
1782774925706345500,7.201345458984375,-0.22132635116577148,-0.18509387969970703,0.07114171981811523
1782774925716355300,7.211355224609375,-0.32029080390930176,-0.21120166778564453,-0.013017416000366211
1782774925726365200,7.221365234375,-0.24310922622680664,-0.2703523635864258,-0.03250586986541748
1782774925736374800,7.231374755859375,-0.11550092697143555,-0.32362842559814453,-0.040256619453430176
1782774925746354200,7.241354248046875,-0.049117088317871094,-0.2995281219482422,0.044547319412231445
1782774925756364000,7.251364013671875,-0.0494999885559082,-0.27535533905029297,0.07053101062774658
1782774925766373600,7.26137353515625,-0.12975311279296875,-0.2660942077636719,0.10254025459289551
1782774925776352800,7.271352783203125,-0.24672508239746094,-0.2502727508544922,0.07628238201141357
1782774925786362600,7.281362548828125,-0.2673072814941406,-0.22745895385742188,0.11160659790039062
1782774925796372200,7.291372314453125,-0.2502326965332031,-0.12750816345214844,0.2484201192855835
1782774925806351600,7.3013515625,-0.18185901641845703,-0.12508583068847656,0.15544188022613525
1782774925816361500,7.311361572265625,-0.09599781036376953,-0.24665069580078125,-0.05544412136077881
1782774925826371000,7.32137109375,0.009795665740966797,-0.26240062713623047,-0.16626453399658203
1782774925836350500,7.3313505859375,0.09300661087036133,-0.1963052749633789,-0.15709149837493896
1782774925846360300,7.3413603515625,0.10170888900756836,-0.09643745422363281,-0.03858757019042969
1782774925856370000,7.351369873046875,0.04619407653808594,0.01776409149169922,0.12192368507385254
1782774925866349300,7.361349365234375,-0.1133875846862793,0.02852153778076172,0.11413288116455078
1782774925876359000,7.37135888671875,-0.24098777770996094,0.019718170166015625,0.1351311206817627
1782774925886368800,7.38136865234375,-0.4645678997039795,0.008572578430175781,0.11334455013275146
1782774925896348000,7.391347900390625,-0.4724266529083252,-0.04256725311279297,-0.11951398849487305
1782774925906357800,7.401357666015625,-0.4954688549041748,-0.06618309020996094,-0.19221699237823486
1782774925916367600,7.41136767578125,-0.2909388542175293,-0.07810020446777344,-0.06809461116790771
1782774925926346800,7.4213466796875,-0.025424480438232422,-0.09656715393066406,0.00001811981201171875
1782774925936356600,7.431356689453125,0.07941818237304688,-0.05399799346923828,0.1495811939239502
1782774925946366500,7.441366455078125,0.15016603469848633,-0.032685279846191406,0.1703031063079834
1782774925956345600,7.451345703125,0.15428781509399414,-0.12427711486816406,-0.013097763061523438
1782774925966355200,7.461355224609375,0.19349956512451172,-0.1857309341430664,-0.19923317432403564
1782774925976365000,7.471364990234375,0.18184804916381836,-0.29485607147216797,-0.3553343415260315
1782774925986374700,7.481374755859375,0.2060680389404297,-0.3277606964111328,-0.32152092456817627
1782774925996354000,7.49135400390625,0.32013940811157227,-0.2015399932861328,-0.04443621635437012
1782774926006364000,7.501364013671875,0.4123802185058594,-0.11147880554199219,0.1293882131576538
1782774926016373500,7.51137353515625,0.32581186294555664,-0.11592674255371094,0.1331324577331543
1782774926026353000,7.521352783203125,0.19121456146240234,-0.0674905776977539,0.08369529247283936
1782774926036362800,7.53136279296875,0.06876754760742188,-0.03027629852294922,-0.037503838539123535
1782774926046372400,7.541372314453125,-0.04233694076538086,-0.14598846435546875,-0.0968865156173706
1782774926056351500,7.5513515625,-0.2271728515625,-0.13735675811767578,-0.03957080841064453
1782774926066361300,7.561361328125,-0.28350067138671875,-0.06589698791503906,-0.031566500663757324
1782774926076371000,7.571370849609375,-0.26833009719848633,-0.011059761047363281,0.041312575340270996
1782774926086350300,7.581350341796875,-0.1933426856994629,0.03171825408935547,0.01200246810913086
1782774926096360200,7.591360107421875,-0.049166202545166016,-0.046454429626464844,-0.04964399337768555
1782774926106370000,7.6013701171875,-0.01719522476196289,-0.042266845703125,0.02097177505493164
1782774926116349200,7.61134912109375,0.08257484436035156,0.0009222030639648438,-0.03684687614440918
1782774926126359000,7.621359130859375,0.17460870742797852,-0.0682220458984375,-0.0725470781326294
1782774926136369000,7.631368896484375,0.19300603866577148,-0.1749134063720703,-0.08086872100830078
1782774926146348000,7.64134814453125,0.08644533157348633,-0.16904544830322266,-0.1237267255783081
1782774926156357600,7.651357666015625,-0.08162355422973633,-0.18641090393066406,-0.13232648372650146
1782774926166367500,7.661367431640625,-0.0809321403503418,-0.1487874984741211,-0.10142183303833008
1782774926176347000,7.671346923828125,-0.03974771499633789,-0.1660614013671875,-0.04938304424285889
1782774926186356500,7.6813564453125,-0.04841804504394531,-0.18102455139160156,-0.04127657413482666
1782774926196366000,7.691365966796875,-0.06510782241821289,-0.11043548583984375,0.04968464374542236
1782774926206345500,7.701345458984375,-0.1380319595336914,-0.10499954223632812,0.056197404861450195
1782774926216355300,7.711355224609375,-0.23990964889526367,-0.15461063385009766,0.005937814712524414
1782774926226365200,7.721365234375,-0.29543018341064453,-0.14853286743164062,-0.15823829174041748
1782774926236374800,7.731374755859375,-0.34272289276123047,-0.14668560028076172,-0.2641338109970093
1782774926246354200,7.741354248046875,-0.22640466690063477,-0.07453727722167969,-0.12393200397491455
1782774926256364000,7.751364013671875,-0.0808563232421875,0.14731502532958984,0.222312331199646
1782774926266373600,7.76137353515625,0.022574901580810547,0.21919631958007812,0.33999907970428467
1782774926276352800,7.771352783203125,0.015019893646240234,0.12363243103027344,0.14832627773284912
1782774926286362600,7.781362548828125,-0.041608333587646484,0.040085792541503906,-0.07071137428283691
1782774926296372200,7.791372314453125,-0.05648088455200195,-0.028848648071289062,-0.2964341640472412
1782774926306351600,7.8013515625,-0.0002989768981933594,-0.14303302764892578,-0.403789758682251
1782774926316361500,7.811361572265625,0.12278032302856445,-0.17801952362060547,-0.25095486640930176
1782774926326371000,7.82137109375,0.05470609664916992,-0.11467742919921875,0.004756331443786621
1782774926336350500,7.8313505859375,-0.026543140411376953,-0.11166095733642578,0.02499532699584961
1782774926346360300,7.8413603515625,-0.041423797607421875,-0.14795780181884766,-0.03751182556152344
1782774926356370200,7.8513701171875,-0.10518693923950195,-0.22571945190429688,-0.13541555404663086
1782774926366349300,7.861349365234375,-0.2727532386779785,-0.29230308532714844,-0.14213943481445312
1782774926376359000,7.87135888671875,-0.2880692481994629,-0.27820682525634766,-0.19417834281921387
1782774926386368500,7.881368408203125,-0.3231830596923828,-0.2852640151977539,-0.05517387390136719
1782774926396348000,7.891347900390625,-0.3517003059387207,-0.23688316345214844,0.05453777313232422
1782774926406357800,7.901357666015625,-0.45380687713623047,-0.23669052124023438,-0.04646337032318115
1782774926416367600,7.91136767578125,-0.47380971908569336,-0.31351757049560547,-0.19730126857757568
1782774926426346800,7.9213466796875,-0.37784814834594727,-0.2818937301635742,-0.16885244846343994
1782774926436356600,7.931356689453125,-0.22000646591186523,-0.12907123565673828,-0.035942792892456055
1782774926446366500,7.941366455078125,-0.04351186752319336,-0.10158157348632812,0.02660822868347168
1782774926456345600,7.951345703125,0.12924528121948242,-0.07573795318603516,0.11010384559631348
1782774926466355200,7.961355224609375,0.14991044998168945,-0.04080486297607422,0.13799941539764404
1782774926476365000,7.971364990234375,0.08700227737426758,-0.12207508087158203,0.10590255260467529
1782774926486374700,7.981374755859375,-0.04091691970825195,-0.18529987335205078,0.02671682834625244
1782774926496354000,7.99135400390625,-0.1392374038696289,-0.17486572265625,-0.044313907623291016
1782774926506364000,8.001364013671875,-0.192596435546875,-0.2264547348022461,-0.08873140811920166
1782774926516373500,8.01137353515625,-0.15177631378173828,-0.2293529510498047,-0.018373847007751465
1782774926526353000,8.021352783203126,-0.07409143447875977,-0.20987510681152344,0.060726165771484375
1782774926536362800,8.03136279296875,-0.07854032516479492,-0.19467830657958984,0.11719310283660889
1782774926546372400,8.041372314453126,-0.1331191062927246,-0.193878173828125,0.07758593559265137
1782774926556351500,8.0513515625,-0.17307376861572266,-0.10938453674316406,0.1886199712753296
1782774926566361300,8.061361328125,-0.1631307601928711,-0.09167766571044922,0.20581769943237305
1782774926576371000,8.071370849609375,-0.08819437026977539,-0.12821578979492188,0.09758865833282471
1782774926586350300,8.081350341796876,-0.041837215423583984,-0.1518840789794922,-0.011371970176696777
1782774926596360200,8.091360107421876,0.0290679931640625,-0.20114803314208984,-0.11194312572479248
1782774926606370000,8.1013701171875,0.03026294708251953,-0.21437454223632812,-0.1907806396484375
1782774926616349200,8.11134912109375,0.03291130065917969,-0.2616300582885742,-0.18259763717651367
1782774926626359000,8.121359130859375,-0.015767574310302734,-0.22310829162597656,0.01518404483795166
1782774926636369000,8.131368896484375,-0.06832122802734375,-0.10106849670410156,0.06318461894989014
1782774926646348000,8.14134814453125,0.039703369140625,-0.005398750305175781,0.15392398834228516
1782774926656358000,8.15135791015625,-0.005115032196044922,-0.060690879821777344,0.22741103172302246
1782774926666367500,8.161367431640626,-0.1296253204345703,-0.08325862884521484,0.15913593769073486
1782774926676347000,8.171346923828125,-0.43342113494873047,-0.10718250274658203,0.07657194137573242
1782774926686356500,8.1813564453125,-0.5794305801391602,-0.038849830627441406,0.0205380916595459
1782774926696366000,8.191365966796875,-0.4105391502380371,-0.03451728820800781,0.11001968383789062
1782774926706345500,8.201345458984376,-0.26935911178588867,-0.13602638244628906,0.05825245380401611
1782774926716355300,8.211355224609376,-0.19325780868530273,-0.13812732696533203,-0.08550858497619629
1782774926726365200,8.221365234375,-0.1635451316833496,-0.21164321899414062,-0.09722030162811279
1782774926736374800,8.231374755859376,-0.14858722686767578,-0.19864463806152344,-0.07394134998321533
1782774926746354200,8.241354248046875,-0.08094406127929688,-0.12810039520263672,-0.07285559177398682
1782774926756364000,8.251364013671875,-0.010708808898925781,-0.06230926513671875,-0.02006852626800537
1782774926766373600,8.26137353515625,-0.051668643951416016,0.07722663879394531,0.21559202671051025
1782774926776352800,8.271352783203126,-0.12436294555664062,0.1585226058959961,0.23244214057922363
1782774926786362600,8.281362548828126,-0.17649412155151367,0.191070556640625,0.1953502893447876
1782774926796372200,8.291372314453126,-0.26528310775756836,0.12290477752685547,0.018629074096679688
1782774926806351600,8.3013515625,-0.21789979934692383,-0.0064754486083984375,-0.15077698230743408
1782774926816361500,8.311361572265625,-0.1425333023071289,0.02117919921875,-0.14146852493286133
1782774926826371000,8.32137109375,-0.0650944709777832,0.040694236755371094,-0.13480186462402344
1782774926836350500,8.3313505859375,0.0076770782470703125,0.011113166809082031,-0.080169677734375
1782774926846360300,8.3413603515625,0.055994510650634766,0.0059146881103515625,-0.012295722961425781
1782774926856370000,8.351369873046876,0.12834978103637695,-0.02553558349609375,0.07392966747283936
1782774926866349300,8.361349365234375,0.08847951889038086,-0.07633113861083984,-0.006959199905395508
1782774926876359000,8.37135888671875,0.15145587921142578,-0.15596675872802734,-0.12230372428894043
1782774926886368500,8.381368408203125,0.1499948501586914,-0.22855567932128906,-0.09593594074249268
1782774926896348000,8.391347900390626,0.15407419204711914,-0.29433536529541016,-0.21082180738449097
1782774926906357800,8.401357666015626,0.026076316833496094,-0.2989177703857422,-0.1435936689376831
1782774926916367600,8.41136767578125,0.1924891471862793,-0.3643198013305664,0.005560159683227539
1782774926926346800,8.4213466796875,-0.057155609130859375,-0.38570213317871094,-0.3869677782058716
1782774926936356600,8.431356689453125,0.11517763137817383,-0.21745777130126953,-0.07664906978607178
1782774926946366500,8.441366455078125,-0.12380075454711914,-0.23032474517822266,0.37961113452911377
1782774926956345600,8.451345703125,-0.337679386138916,-0.15173721313476562,0.34547483921051025
1782774926966355200,8.461355224609376,-0.5178322792053223,-0.1801910400390625,0.09710586071014404
1782774926976365000,8.471364990234376,-0.5481481552124023,-0.2567768096923828,-0.05670928955078125
1782774926986374700,8.481374755859376,-0.5120358467102051,-0.2507295608520508,-0.07217919826507568
1782774926996354000,8.49135400390625,-0.40610218048095703,-0.18314266204833984,0.09363734722137451
1782774927006364000,8.501364013671875,-0.22776126861572266,-0.11588382720947266,0.22736060619354248
1782774927016373500,8.51137353515625,-0.17987442016601562,-0.11541557312011719,0.3840898275375366
1782774927026353000,8.521352783203126,-0.1930828094482422,-0.10125350952148438,0.12819945812225342
1782774927036362800,8.53136279296875,-0.2313065528869629,-0.3946371078491211,-0.18571150302886963
1782774927046372400,8.541372314453126,-0.14864730834960938,-0.4840688705444336,-0.5693843960762024
1782774927056351700,8.551351806640625,-0.06186819076538086,-0.28652191162109375,-0.33206647634506226
1782774927066361300,8.561361328125,0.06926584243774414,0.05111408233642578,0.30681848526000977
1782774927076371000,8.571370849609375,0.29859209060668945,0.16414356231689453,0.5472464561462402
1782774927086350300,8.581350341796876,0.6452393531799316,0.01882648468017578,0.31403160095214844
1782774927096360200,8.591360107421876,0.8049392700195312,-0.16193103790283203,0.04672837257385254
1782774927106370000,8.6013701171875,0.5288105010986328,-0.3450765609741211,-0.3131457567214966
1782774927116349200,8.61134912109375,0.08566427230834961,-0.3965167999267578,-0.6426138877868652
1782774927126359000,8.621359130859375,-0.09549474716186523,-0.4020576477050781,-0.6301125288009644
1782774927136369000,8.631368896484375,-0.006847381591796875,-0.3108959197998047,-0.3483470678329468
1782774927146288400,8.641288330078124,0.08879423141479492,-0.20024585723876953,0.011824369430541992
1782774927156418800,8.651418701171876,-0.030614376068115234,-0.18806838989257812,0.10293865203857422
1782774927166367500,8.661367431640626,-0.24344682693481445,-0.14241600036621094,-0.007247567176818848
1782774927176347000,8.671346923828125,-0.32826900482177734,-0.040062904357910156,0.09419429302215576
1782774927186356500,8.6813564453125,-0.364992618560791,-0.06459808349609375,0.187469482421875
1782774927196366300,8.691366455078125,-0.2565155029296875,-0.16522884368896484,0.11525619029998779
1782774927206345500,8.701345458984376,-0.1761913299560547,-0.23140525817871094,0.09656620025634766
1782774927216355300,8.711355224609376,-0.11245155334472656,-0.22713375091552734,-0.06132853031158447
1782774927226365200,8.721365234375,-0.08101034164428711,-0.16260623931884766,-0.2242426872253418
1782774927236374800,8.731374755859376,0.006215095520019531,-0.16053009033203125,-0.12544602155685425
1782774927246354200,8.741354248046875,0.052462100982666016,-0.1616678237915039,-0.0154188871383667
1782774927256364000,8.751364013671875,0.06082630157470703,-0.05875110626220703,0.14468872547149658
1782774927266373600,8.76137353515625,0.006946563720703125,0.08130359649658203,0.39413928985595703
1782774927276353000,8.77135302734375,-0.22176361083984375,0.12917423248291016,0.4270862340927124
1782774927286362600,8.781362548828126,-0.3511843681335449,0.061260223388671875,0.23676490783691406
1782774927296372200,8.791372314453126,-0.36182260513305664,-0.07104206085205078,-0.011198878288269043
1782774927306351600,8.8013515625,-0.4688892364501953,-0.18873977661132812,-0.11440551280975342
1782774927316361500,8.811361572265625,-0.4635934829711914,-0.119537353515625,-0.12704050540924072
1782774927326371000,8.82137109375,-0.30182456970214844,-0.07561683654785156,0.0816650390625
1782774927336350500,8.8313505859375,-0.06244945526123047,-0.07499217987060547,0.13696014881134033
1782774927346360300,8.8413603515625,0.18056440353393555,-0.09636497497558594,0.23112690448760986
1782774927356370200,8.8513701171875,0.1693558692932129,-0.1055154800415039,0.2941974401473999
1782774927366349300,8.861349365234375,0.08933734893798828,-0.03980731964111328,0.23304545879364014
1782774927376359000,8.87135888671875,-0.07483196258544922,-0.05080127716064453,0.10689103603363037
1782774927386368800,8.88136865234375,-0.3114166259765625,-0.15276718139648438,-0.024064183235168457
1782774927396348000,8.891347900390626,-0.43681859970092773,-0.17407798767089844,-0.13703703880310059
1782774927406357800,8.901357666015626,-0.404447078704834,-0.13178253173828125,-0.17467355728149414
1782774927416367600,8.91136767578125,-0.30159664154052734,-0.14002323150634766,-0.09029150009155273
1782774927426346800,8.9213466796875,-0.1530919075012207,-0.09172248840332031,0.10983550548553467
1782774927436356600,8.931356689453125,0.018392086029052734,-0.04014873504638672,0.37455153465270996
1782774927446366500,8.941366455078125,0.06265544891357422,-0.03863048553466797,0.3205990791320801
1782774927456345600,8.951345703125,-0.024418354034423828,-0.06161785125732422,0.0993952751159668
1782774927466355200,8.961355224609376,-0.22304105758666992,-0.15019512176513672,-0.07824218273162842
1782774927476365000,8.971364990234376,-0.32764244079589844,-0.1603221893310547,-0.22573024034500122
1782774927486374700,8.981374755859376,-0.37609386444091797,-0.13022136688232422,-0.1132805347442627
1782774927496354000,8.99135400390625,-0.4282989501953125,-0.17461204528808594,0.02555978298187256
1782774927506364000,9.001364013671875,-0.38501977920532227,-0.09902572631835938,0.000863194465637207
1782774927516373500,9.01137353515625,-0.33118772506713867,-0.06336402893066406,0.03620505332946777
1782774927526353000,9.021352783203126,-0.19754743576049805,-0.11056804656982422,0.061789870262145996
1782774927536362800,9.03136279296875,-0.16740703582763672,-0.0830392837524414,0.19127106666564941
1782774927546372400,9.041372314453126,-0.17465448379516602,-0.06538867950439453,0.24734246730804443
1782774927556351700,9.051351806640625,-0.11505556106567383,-0.13387775421142578,0.10035908222198486
1782774927566361300,9.061361328125,-0.07296609878540039,-0.15196514129638672,-0.02767813205718994
1782774927576371000,9.071370849609375,-0.0028939247131347656,-0.1219940185546875,-0.09648239612579346
1782774927586350300,9.081350341796876,0.02128124237060547,-0.14453506469726562,-0.07139527797698975
1782774927596360200,9.091360107421876,0.050174713134765625,-0.18147659301757812,-0.12717747688293457
1782774927606369800,9.101369873046876,0.018609046936035156,-0.15827083587646484,-0.12271559238433838
1782774927616349200,9.11134912109375,-0.004558563232421875,-0.11769485473632812,-0.0029219388961791992
1782774927626359000,9.121359130859375,-0.07387971878051758,-0.07911968231201172,0.13115286827087402
1782774927636369000,9.131368896484375,-0.15228891372680664,-0.11011409759521484,0.16369867324829102
1782774927646348000,9.14134814453125,-0.23000383377075195,-0.22298812866210938,0.005284428596496582
1782774927656358000,9.15135791015625,-0.25853919982910156,-0.2586984634399414,-0.05677914619445801
1782774927666367500,9.161367431640626,-0.059773921966552734,-0.28116512298583984,-0.2922993302345276
1782774927676347000,9.171346923828125,0.12986469268798828,-0.32638072967529297,-0.2721368670463562
1782774927686356500,9.1813564453125,0.1902308464050293,-0.30182838439941406,-0.0771639347076416
1782774927696366300,9.191366455078125,0.21836423873901367,-0.2179422378540039,0.008613824844360352
1782774927706345500,9.201345458984376,0.3725743293762207,-0.20428085327148438,0.12715566158294678
1782774927716355300,9.211355224609376,0.1981797218322754,-0.22539424896240234,-0.15015757083892822
1782774927726365200,9.221365234375,0.05251121520996094,-0.17706298828125,-0.14055180549621582
1782774927736374800,9.231374755859376,-0.17511796951293945,-0.08368396759033203,0.22126686573028564
1782774927746354200,9.241354248046875,-0.40500545501708984,-0.05373096466064453,0.2484440803527832
1782774927756364000,9.251364013671875,-0.508547306060791,-0.032029151916503906,0.07480263710021973
1782774927766373600,9.26137353515625,-0.5807709693908691,-0.05587959289550781,0.011071443557739258
1782774927776352800,9.271352783203126,-0.5596323013305664,-0.061598777770996094,0.000072479248046875
1782774927786362600,9.281362548828126,-0.359591007232666,-0.12166690826416016,0.05854666233062744
1782774927796372200,9.291372314453126,-0.1959991455078125,-0.2097492218017578,0.16448235511779785
1782774927806351600,9.3013515625,-0.1706981658935547,-0.1330251693725586,0.06021273136138916
