time,seconds_elapsed,z,y,x
1782774512096468000,0.178468017578125,0.012828170321881771,-0.05314527451992035,0.07941248267889023
1782774512106499000,0.1884990234375,0.003054326167330146,-0.04886921867728233,0.10384709388017654
1782774512116457000,0.19845703125,-0.0024434609804302454,-0.04642575979232788,0.10506882518529892
1782774512126488000,0.208488037109375,0.006108652334660292,-0.05742133408784866,0.09346238523721695
1782774512136476700,0.2184765625,0.025045474991202354,-0.06963863968849182,0.08307767659425735
1782774512146477300,0.228477294921875,0.04153883829712868,-0.08491026610136032,0.07635815441608429
1782774512156465700,0.238465576171875,0.05375614017248154,-0.10384709388017654,0.07880161702632904
1782774512166496800,0.248496826171875,0.04398229718208313,-0.1466076523065567,0.09346238523721695
1782774512176454400,0.258454345703125,0.005497787147760391,-0.19303341209888458,0.11545353382825851
1782774512186485800,0.26848583984375,-0.025656340643763542,-0.26572638750076294,0.13011430203914642
1782774512196474000,0.27847412109375,-0.00855211354792118,-0.2577851414680481,0.1368338167667389
1782774512206505200,0.288505126953125,0.01771509274840355,-0.24007004499435425,0.14905111491680145
1782774512216463000,0.298463134765625,0.03787364438176155,-0.23640485107898712,0.1618792861700058
1782774512226494200,0.308494140625,0.06108652427792549,-0.2028072625398636,0.16737708449363708
1782774512236482600,0.318482666015625,0.059864792972803116,-0.16798794269561768,0.1508837193250656
1782774512246483200,0.328483154296875,0.04459316283464432,-0.11484266817569733,0.10201449692249298
1782774512256471800,0.338471923828125,0.03481931984424591,-0.059864792972803116,0.04703662544488907
1782774512266503000,0.3485029296875,0.033597588539123535,-0.01038470957428217,0.013439035043120384
1782774512276460800,0.358460693359375,0.039095375686883926,0.025656340643763542,-0.0024434609804302454
1782774512286492000,0.368491943359375,0.054367005825042725,0.0507018156349659,-0.019547687843441963
1782774512296480000,0.37847998046875,0.07147123664617538,0.06230825558304787,-0.04886921867728233
1782774512306480600,0.388480712890625,0.10506882518529892,0.1007927656173706,-0.08796459436416626
1782774512316469200,0.39846923828125,0.14233160018920898,0.16920967400074005,-0.11911872029304504
1782774512326500400,0.408500244140625,0.1459967941045761,0.19792033731937408,-0.1258382350206375
1782774512336458200,0.418458251953125,0.12522737681865692,0.18387043476104736,-0.10262536257505417
1782774512346489300,0.4284892578125,0.09712757170200348,0.12217304855585098,-0.06230825558304787
1782774512356477700,0.438477783203125,0.06719517707824707,0.06230825558304787,-0.02382374368607998
1782774512366478300,0.448478271484375,0.025656340643763542,-0.00733038317412138,-0.019547687843441963
1782774512376466700,0.458466796875,-0.02015855349600315,-0.10018189996480942,-0.07024950534105301
1782774512386498000,0.468498046875,-0.033597588539123535,-0.14782938361167908,-0.16065755486488342
1782774512396455700,0.47845556640625,-0.01771509274840355,-0.1062905490398407,-0.251676470041275
1782774512406487000,0.488487060546875,-0.014049900695681572,-0.059864792972803116,-0.30482175946235657
1782774512416475400,0.498475341796875,-0.02321287989616394,-0.051312681287527084,-0.3194825351238251
1782774512426475800,0.508475830078125,-0.02687807008624077,-0.06291911751031876,-0.2974913716316223
1782774512436464400,0.51846435546875,-0.018936822190880775,-0.06108652427792549,-0.24495697021484375
1782774512446495500,0.52849560546875,-0.009773843921720982,-0.05619960278272629,-0.1765400618314743
1782774512456483800,0.53848388671875,-0.018325956538319588,-0.06719517707824707,-0.10873401165008545
1782774512466484700,0.548484619140625,-0.025656340643763542,-0.07208210229873657,-0.060475658625364304
1782774512476472800,0.558472900390625,-0.02871066704392433,-0.06719517707824707,-0.04214970022439957
1782774512486504200,0.568504150390625,-0.024434609338641167,-0.04214970022439957,-0.045204028487205505
1782774512496462000,0.578462158203125,-0.028099801391363144,-0.02015855349600315,-0.06169738993048668
1782774512506493000,0.588492919921875,-0.0354301854968071,-0.007941247895359993,-0.07941248267889023
1782774512516481500,0.5984814453125,-0.042760565876960754,0.02015855349600315,-0.08491026610136032
1782774512526482000,0.60848193359375,-0.0555887371301651,0.030543262138962746,-0.06780604273080826
1782774512536470500,0.618470458984375,-0.07269296050071716,0.01710422709584236,-0.04092797264456749
1782774512546502000,0.628501953125,-0.06475171446800232,0.01038470957428217,-0.01466076634824276
1782774512556459500,0.63845947265625,-0.05192354694008827,0.009773843921720982,0.005497787147760391
1782774512566491000,0.648490966796875,-0.03848451003432274,0.009773843921720982,0.015882495790719986
1782774512576479000,0.65847900390625,-0.022602014243602753,0.03298672288656235,0.02076941914856434
1782774512586479900,0.66847998046875,-0.021991148591041565,0.0507018156349659,0.030543262138962746
1782774512596468000,0.678468017578125,-0.021991148591041565,0.05619960278272629,0.033597588539123535
1782774512606499000,0.6884990234375,-0.01710422709584236,0.0507018156349659,0.03481931984424591
1782774512616457000,0.69845703125,0.0006108652451075613,0.039095375686883926,0.03726277872920036
1782774512626488000,0.708488037109375,0.018936822190880775,0.029932396486401558,0.04764748737215996
1782774512636506600,0.718506591796875,0.015271631069481373,0.01160643994808197,0.05619960278272629
1782774512646477300,0.728477294921875,0.0006108652451075613,0.009773843921720982,0.05375614017248154
1782774512656465700,0.738465576171875,-0.01466076634824276,0.021991148591041565,0.03298672288656235
1782774512666496800,0.748496826171875,-0.024434609338641167,0.02076941914856434,-0.005497787147760391
1782774512676454700,0.75845458984375,-0.02076941914856434,0.021991148591041565,-0.04459316283464432
1782774512686485800,0.76848583984375,-0.024434609338641167,0.010995574295520782,-0.06475171446800232
1782774512696474000,0.77847412109375,-0.02932153269648552,0.006108652334660292,-0.07391469180583954
1782774512706505200,0.788505126953125,-0.03237585723400116,0.030543262138962746,-0.06841690838336945
1782774512716463000,0.798463134765625,-0.03726277872920036,0.06475171446800232,-0.04886921867728233
1782774512726494200,0.808494140625,-0.031154127791523933,0.0708603709936142,-0.024434609338641167
1782774512736482600,0.818482666015625,-0.014049900695681572,0.06352998316287994,-0.00366519158706069
1782774512746483500,0.8284833984375,0.02015855349600315,0.051312681287527084,0.015271631069481373
1782774512756471800,0.838471923828125,0.0403171069920063,0.03481931984424591,0.03298672288656235
1782774512766503000,0.8485029296875,0.02932153269648552,0.012217304669320583,0.039095375686883926
1782774512776460500,0.85846044921875,0.00733038317412138,-0.00855211354792118,0.027488935738801956
1782774512786491400,0.868491455078125,-0.01038470957428217,0.00427605677396059,0.005497787147760391
1782774512796480300,0.878480224609375,-0.029932396486401558,0.02321287989616394,-0.01710422709584236
1782774512806481000,0.88848095703125,-0.04153883829712868,0.02687807008624077,-0.039706241339445114
1782774512816468200,0.89846826171875,-0.03481931984424591,0.03237585723400116,-0.05742133408784866
1782774512826499800,0.908499755859375,-0.016493361443281174,0.04214970022439957,-0.06841690838336945
1782774512836457700,0.918457763671875,0.004886921960860491,0.04092797264456749,-0.06963863968849182
1782774512846488800,0.92848876953125,0.00427605677396059,0.03176499158143997,-0.059864792972803116
1782774512856477200,0.938477294921875,0.009773843921720982,0.03298672288656235,-0.05253441259264946
1782774512866477800,0.948477783203125,0.01710422709584236,0.048258353024721146,-0.04581489413976669
1782774512876466200,0.958466064453125,0.021991148591041565,0.05925392732024193,-0.03237585723400116
1782774512886497300,0.968497314453125,0.024434609338641167,0.05619960278272629,-0.018936822190880775
1782774512896455200,0.978455078125,0.024434609338641167,0.04398229718208313,-0.00733038317412138
1782774512906486500,0.988486572265625,0.015271631069481373,0.036041051149368286,-0.00733038317412138
1782774512916475400,0.998475341796875,0.013439035043120384,0.03237585723400116,-0.02687807008624077
1782774512926475800,1.008475830078125,0.02382374368607998,0.045204028487205505,-0.05192354694008827
1782774512936464400,1.01846435546875,0.0354301854968071,0.04764748737215996,-0.0659734457731247
1782774512946495500,1.02849560546875,0.042760565876960754,0.02687807008624077,-0.06841690838336945
1782774512956483800,1.03848388671875,0.036651913076639175,0.021380282938480377,-0.05253441259264946
1782774512966484700,1.048484619140625,0.013439035043120384,0.029932396486401558,-0.036651913076639175
1782774512976472800,1.058472900390625,-0.0024434609804302454,0.0507018156349659,-0.02321287989616394
1782774512986504200,1.068504150390625,0.003054326167330146,0.07696902006864548,-0.007941247895359993
1782774512996462000,1.078462158203125,0.01160643994808197,0.08246681094169617,0.012828170321881771
1782774513006493000,1.088492919921875,0.02932153269648552,0.06291911751031876,0.028099801391363144
1782774513016481300,1.098481201171875,0.048258353024721146,0.04398229718208313,0.039095375686883926
1782774513026482000,1.10848193359375,0.04398229718208313,0,0.03726277872920036
1782774513036470500,1.118470458984375,0.036651913076639175,-0.003054326167330146,0.015882495790719986
1782774513046502000,1.128501953125,0.031154127791523933,0.014049900695681572,-0.007941247895359993
1782774513056459500,1.13845947265625,0.016493361443281174,0.025045474991202354,-0.015271631069481373
1782774513066490400,1.148490478515625,-0.0006108652451075613,0.016493361443281174,-0.010995574295520782
1782774513076479200,1.158479248046875,-0.015271631069481373,0.01160643994808197,-0.012217304669320583
1782774513086479600,1.168479736328125,-0.019547687843441963,0.02687807008624077,-0.021380282938480377
1782774513096468000,1.178468017578125,-0.003054326167330146,0.0507018156349659,-0.02932153269648552
1782774513106499000,1.1884990234375,0.010995574295520782,0.05253441259264946,-0.01771509274840355
1782774513116457000,1.19845703125,0.01466076634824276,0.039706241339445114,0.00366519158706069
1782774513126488300,1.20848828125,0.016493361443281174,0.02932153269648552,0.02871066704392433
1782774513136476700,1.2184765625,0.01710422709584236,0.033597588539123535,0.05314527451992035
1782774513146477300,1.228477294921875,0.005497787147760391,0.03481931984424591,0.07330382615327835
1782774513156465700,1.238465576171875,-0.00427605677396059,0.03481931984424591,0.07696902006864548
1782774513166496800,1.248496826171875,0.001832595793530345,0.0507018156349659,0.06108652427792549
1782774513176454400,1.258454345703125,0.004886921960860491,0.054367005825042725,0.04459316283464432
1782774513186485800,1.26848583984375,0.004886921960860491,0.039706241339445114,0.02871066704392433
1782774513196473900,1.278473876953125,0.00366519158706069,0.021380282938480377,0.015271631069481373
1782774513206505000,1.2885048828125,0.003054326167330146,0.02015855349600315,0.006719517521560192
1782774513216463000,1.298463134765625,-0.006719517521560192,0.016493361443281174,0.009162978269159794
1782774513226494200,1.308494140625,-0.015271631069481373,0.010995574295520782,0.005497787147760391
1782774513236482600,1.318482666015625,-0.009773843921720982,0.02015855349600315,-0.00427605677396059
1782774513246483200,1.328483154296875,0.0006108652451075613,0.02382374368607998,-0.00855211354792118
1782774513256471800,1.338471923828125,0.010995574295520782,0.01466076634824276,-0.0024434609804302454
1782774513266502700,1.348502685546875,0.02015855349600315,0.006719517521560192,0.005497787147760391
1782774513276460500,1.35846044921875,0.021991148591041565,0.00427605677396059,0.004886921960860491
1782774513286492000,1.368491943359375,0.024434609338641167,0.015882495790719986,0.0024434609804302454
1782774513296480000,1.37847998046875,0.03237585723400116,0.022602014243602753,0.00855211354792118
1782774513306481000,1.38848095703125,0.039095375686883926,0.010995574295520782,0.015271631069481373
1782774513316469200,1.39846923828125,0.04398229718208313,0.006108652334660292,0.02076941914856434
1782774513326500400,1.408500244140625,0.036651913076639175,-0.00427605677396059,0.02626720629632473
1782774513336458200,1.418458251953125,0.022602014243602753,-0.018936822190880775,0.02321287989616394
1782774513346489600,1.428489501953125,0.009773843921720982,-0.006108652334660292,0.007941247895359993
1782774513356477700,1.438477783203125,-0.004886921960860491,0.018325956538319588,-0.01710422709584236
1782774513366478300,1.448478271484375,-0.01466076634824276,0.0354301854968071,-0.04153883829712868
1782774513376466700,1.458466796875,-0.010995574295520782,0.04337143152952194,-0.04581489413976669
1782774513386497500,1.46849755859375,0.0024434609804302454,0.04581489413976669,-0.021991148591041565
1782774513396455700,1.47845556640625,0.012828170321881771,0.0354301854968071,0.02932153269648552
1782774513406487000,1.488487060546875,0.012217304669320583,0.015882495790719986,0.08674286305904388
1782774513416475400,1.498475341796875,0.018936822190880775,0.00427605677396059,0.1264491081237793
1782774513426475800,1.508475830078125,0.02321287989616394,0.006719517521560192,0.14782938361167908
1782774513436464400,1.51846435546875,0.015271631069481373,0.00366519158706069,0.14233160018920898
1782774513446495500,1.52849560546875,-0.00855211354792118,0.00366519158706069,0.07696902006864548
1782774513456483800,1.53848388671875,-0.025656340643763542,0.022602014243602753,0.01710422709584236
1782774513466484700,1.548484619140625,-0.039095375686883926,0.01710422709584236,-0.04337143152952194
1782774513476472800,1.558472900390625,-0.04459316283464432,0.00366519158706069,-0.07757988572120667
1782774513486504200,1.568504150390625,-0.04398229718208313,-0.012828170321881771,-0.08674286305904388
1782774513496461800,1.5784619140625,-0.042760565876960754,-0.031154127791523933,-0.08307767659425735
1782774513506493000,1.588492919921875,-0.03237585723400116,-0.02871066704392433,-0.07208210229873657
1782774513516481500,1.5984814453125,-0.02076941914856434,-0.013439035043120384,-0.0507018156349659
1782774513526482200,1.608482177734375,-0.012217304669320583,-0.00366519158706069,-0.025045474991202354
1782774513536470500,1.618470458984375,0.0006108652451075613,0.0024434609804302454,-0.0024434609804302454
1782774513546501600,1.628501708984375,0.014049900695681572,0.012217304669320583,0.018325956538319588
1782774513556459500,1.63845947265625,0.00733038317412138,0.021991148591041565,0.039095375686883926
1782774513566490400,1.648490478515625,-0.0006108652451075613,0.014049900695681572,0.042760565876960754
1782774513576479200,1.658479248046875,-0.003054326167330146,0.01771509274840355,0.03176499158143997
1782774513586479600,1.668479736328125,-0.0012217304902151227,0.027488935738801956,0.012217304669320583
1782774513596468000,1.678468017578125,0.0012217304902151227,0.025656340643763542,-0.010995574295520782
1782774513606499000,1.6884990234375,0.00733038317412138,0.022602014243602753,-0.02321287989616394
1782774513616457000,1.69845703125,0.014049900695681572,0.027488935738801956,-0.02321287989616394
1782774513626488000,1.708488037109375,0.021380282938480377,0.02871066704392433,-0.01160643994808197
1782774513636476700,1.7184765625,0.019547687843441963,0.03787364438176155,0.009773843921720982
1782774513646477300,1.728477294921875,0.01466076634824276,0.04153883829712868,0.030543262138962746
1782774513656465700,1.738465576171875,0.0012217304902151227,0.028099801391363144,0.03420845419168472
1782774513666496800,1.748496826171875,-0.006108652334660292,0.02321287989616394,0.02076941914856434
1782774513676454400,1.758454345703125,-0.02076941914856434,0.006719517521560192,-0.00855211354792118
1782774513686485800,1.76848583984375,-0.02871066704392433,-0.009162978269159794,-0.048258353024721146
1782774513696473900,1.778473876953125,-0.02871066704392433,-0.005497787147760391,-0.08368854224681854
1782774513706505200,1.788505126953125,-0.030543262138962746,-0.016493361443281174,-0.10690141469240189
1782774513716463000,1.798463134765625,-0.03176499158143997,-0.02321287989616394,-0.11667526513338089
1782774513726494200,1.808494140625,-0.02932153269648552,-0.016493361443281174,-0.11362093687057495
1782774513736482600,1.818482666015625,-0.027488935738801956,-0.015271631069481373,-0.09896016865968704
1782774513746483500,1.8284833984375,-0.02932153269648552,-0.0024434609804302454,-0.07452555745840073
1782774513756471800,1.838471923828125,-0.02626720629632473,0.004886921960860491,-0.04459316283464432
1782774513766503000,1.8485029296875,-0.02015855349600315,0.005497787147760391,-0.013439035043120384
1782774513776460500,1.85846044921875,-0.015882495790719986,-0.0006108652451075613,0.015271631069481373
1782774513786492200,1.8684921875,-0.01466076634824276,-0.0024434609804302454,0.036651913076639175
1782774513796480300,1.878480224609375,-0.010995574295520782,0.006719517521560192,0.05497787147760391
1782774513806481200,1.888481201171875,-0.01771509274840355,0.01160643994808197,0.07452555745840073
1782774513816468200,1.89846826171875,-0.018936822190880775,0.015271631069481373,0.09407325088977814
1782774513826499800,1.908499755859375,-0.02076941914856434,0.015882495790719986,0.09957103431224823
1782774513836457700,1.918457763671875,-0.012828170321881771,0.016493361443281174,0.08796459436416626
1782774513846489000,1.928489013671875,-0.00427605677396059,0.014049900695681572,0.07147123664617538
1782774513856477000,1.938476806640625,-0.005497787147760391,0.00427605677396059,0.05192354694008827
1782774513866478000,1.94847802734375,-0.00427605677396059,-0.00855211354792118,0.027488935738801956
1782774513876466200,1.958466064453125,0.003054326167330146,-0.00733038317412138,0.018936822190880775
1782774513886497300,1.968497314453125,0.013439035043120384,-0.00366519158706069,0.016493361443281174
1782774513896455200,1.978455078125,0.015882495790719986,-0.007941247895359993,0.018936822190880775
1782774513906486300,1.988486328125,0.016493361443281174,0.00366519158706069,0.02321287989616394
1782774513916475400,1.998475341796875,0.0024434609804302454,0.01710422709584236,0.029932396486401558
1782774513926476000,2.00847607421875,-0.00855211354792118,0.021380282938480377,0.033597588539123535
1782774513936464400,2.01846435546875,-0.004886921960860491,0.036651913076639175,0.042760565876960754
1782774513946495500,2.02849560546875,0.00427605677396059,0.048258353024721146,0.05619960278272629
1782774513956483800,2.03848388671875,0.009162978269159794,0.04337143152952194,0.07819075137376785
1782774513966484200,2.048484130859375,0.012217304669320583,0.024434609338641167,0.09712757170200348
1782774513976472800,2.058472900390625,0.025045474991202354,0.009773843921720982,0.1014036312699318
1782774513986504000,2.06850390625,0.03848451003432274,0.016493361443281174,0.09773843735456467
1782774513996462000,2.078462158203125,0.04764748737215996,0.02626720629632473,0.09407325088977814
1782774514006493000,2.088492919921875,0.051312681287527084,0.030543262138962746,0.09773843735456467
1782774514016481300,2.098481201171875,0.05314527451992035,0.025045474991202354,0.10018189996480942
1782774514026482200,2.108482177734375,0.04642575979232788,0.021380282938480377,0.09712757170200348
1782774514036470500,2.118470458984375,0.0354301854968071,0.02015855349600315,0.09224065393209457
1782774514046501600,2.128501708984375,0.024434609338641167,0.01160643994808197,0.07024950534105301
1782774514056459500,2.13845947265625,0.025656340643763542,0.016493361443281174,0.0403171069920063
1782774514066490600,2.14849072265625,0.02932153269648552,0.02382374368607998,0.012828170321881771
1782774514076479000,2.15847900390625,0.04153883829712868,0.02382374368607998,-0.00733038317412138
1782774514086479600,2.168479736328125,0.05009094998240471,0.028099801391363144,-0.006719517521560192
1782774514096468000,2.178468017578125,0.04703662544488907,0.025045474991202354,0.012217304669320583
1782774514106499300,2.188499267578125,0.04642575979232788,0.02626720629632473,0.03481931984424591
1782774514116457200,2.198457275390625,0.0403171069920063,0.028099801391363144,0.05253441259264946
1782774514126488000,2.208488037109375,0.031154127791523933,0.019547687843441963,0.056810468435287476
1782774514136476700,2.2184765625,0.029932396486401558,0.02626720629632473,0.04459316283464432
1782774514146477300,2.228477294921875,0.021991148591041565,0.029932396486401558,0.02687807008624077
1782774514156465700,2.238465576171875,0.01466076634824276,0.007941247895359993,0.009773843921720982
1782774514166496800,2.248496826171875,0.02321287989616394,0.00366519158706069,-0.00733038317412138
1782774514176454400,2.258454345703125,0.0354301854968071,0.009162978269159794,-0.01710422709584236
1782774514186485800,2.26848583984375,0.036041051149368286,0.00855211354792118,-0.015882495790719986
1782774514196474000,2.27847412109375,0.029932396486401558,0.0012217304902151227,-0.00855211354792118
1782774514206505200,2.288505126953125,0.02626720629632473,0.0024434609804302454,-0.0012217304902151227
1782774514216463000,2.298463134765625,0.02382374368607998,0.0024434609804302454,0
1782774514226494200,2.308494140625,0.02932153269648552,-0.00427605677396059,0.0006108652451075613
1782774514236482600,2.318482666015625,0.03420845419168472,-0.01038470957428217,-0.0006108652451075613
1782774514246483200,2.328483154296875,0.04153883829712868,-0.005497787147760391,0.0024434609804302454
1782774514256471800,2.338471923828125,0.03481931984424591,0.009162978269159794,0.016493361443281174
1782774514266503000,2.3485029296875,0.019547687843441963,0.018325956538319588,0.0403171069920063
1782774514276460500,2.35846044921875,0.009162978269159794,0.016493361443281174,0.05375614017248154
1782774514286491600,2.36849169921875,0.02626720629632473,0.021991148591041565,0.05864306539297104
1782774514296480300,2.378480224609375,0.0354301854968071,0.010995574295520782,0.059864792972803116
1782774514306481200,2.388481201171875,0.031154127791523933,-0.00427605677396059,0.0555887371301651
1782774514316469200,2.39846923828125,0.018936822190880775,0.0024434609804302454,0.04581489413976669
1782774514326500400,2.408500244140625,-0.0012217304902151227,0.021991148591041565,0.033597588539123535
1782774514336458200,2.418458251953125,-0.02015855349600315,0.03420845419168472,0.019547687843441963
1782774514346458400,2.428458251953125,-0.029932396486401558,0.03420845419168472,0.009773843921720982
1782774514357417200,2.439417236328125,-0.03176499158143997,0.02687807008624077,0.006719517521560192
1782774514376466700,2.458466796875,0.003054326167330146,0.0354301854968071,0.013439035043120384
1782774514386498000,2.468498046875,0.02076941914856434,0.0403171069920063,0.03420845419168472
1782774514396455700,2.47845556640625,0.031154127791523933,0.03848451003432274,0.06291911751031876
1782774514406456000,2.4884560546875,0.036041051149368286,0.02321287989616394,0.09285151958465576
1782774514416536300,2.498536376953125,0.039706241339445114,0.016493361443281174,0.1160643994808197
1782774514426475800,2.508475830078125,0.02932153269648552,0.016493361443281174,0.1319468915462494
1782774514436464400,2.51846435546875,0.01466076634824276,0.015882495790719986,0.12278391420841217
1782774514446495500,2.52849560546875,0.01466076634824276,0.01771509274840355,0.08979719132184982
1782774514456443600,2.538443603515625,0.019547687843441963,0.009773843921720982,0.04703662544488907
1782774514466539500,2.54853955078125,0.02687807008624077,-0.0012217304902151227,0.001832595793530345
1782774514477450000,2.559449951171875,0.02871066704392433,0.003054326167330146,-0.025656340643763542
1782774514496462000,2.578462158203125,0.005497787147760391,0.01160643994808197,-0.015882495790719986
1782774514506493000,2.588492919921875,-0.01160643994808197,0.00733038317412138,0.007941247895359993
1782774514516481500,2.5984814453125,-0.014049900695681572,0.010995574295520782,0.02687807008624077
1782774514526482200,2.608482177734375,-0.00855211354792118,0.018936822190880775,0.039095375686883926
1782774514536470500,2.618470458984375,0.00427605677396059,0.018936822190880775,0.04581489413976669
1782774514546501600,2.628501708984375,0.015882495790719986,0.013439035043120384,0.05192354694008827
1782774514556419000,2.638419189453125,0.025656340643763542,0.00733038317412138,0.06291911751031876
1782774514566520600,2.6485205078125,0.02871066704392433,-0.001832595793530345,0.07635815441608429
1782774514576540200,2.6585400390625,0.018325956538319588,-0.009162978269159794,0.08185594528913498
1782774514586448600,2.66844873046875,0.00427605677396059,-0.015882495790719986,0.0708603709936142
1782774514597358000,2.679358154296875,-0.00733038317412138,-0.016493361443281174,0.04153883829712868
1782774514616457000,2.69845703125,-0.039095375686883926,-0.009162978269159794,-0.02321287989616394
1782774514626488000,2.708488037109375,-0.04459316283464432,-0.007941247895359993,-0.04214970022439957
1782774514636467000,2.718467041015625,-0.042760565876960754,0.003054326167330146,-0.042760565876960754
1782774514646568700,2.728568603515625,-0.0403171069920063,-0.00366519158706069,-0.03726277872920036
1782774514656425200,2.73842529296875,-0.029932396486401558,-0.0024434609804302454,-0.031154127791523933
1782774514666587600,2.748587646484375,-0.01466076634824276,0.02076941914856434,-0.016493361443281174
1782774514677468400,2.759468505859375,-0.021991148591041565,0.02015855349600315,0.015882495790719986
1782774514696535000,2.77853515625,-0.01710422709584236,0.02015855349600315,0.0403171069920063
1782774514706505200,2.788505126953125,-0.00855211354792118,0.013439035043120384,0.045204028487205505
1782774514716463000,2.798463134765625,-0.005497787147760391,0.013439035043120384,0.042760565876960754
1782774514726494500,2.808494384765625,-0.00733038317412138,0.003054326167330146,0.025045474991202354
1782774514736442400,2.8184423828125,-0.015882495790719986,-0.01710422709584236,-0.012217304669320583
1782774514746575000,2.8285751953125,-0.02015855349600315,-0.02076941914856434,-0.06902777403593063
1782774514756431600,2.838431640625,-0.018936822190880775,-0.003054326167330146,-0.1258382350206375
1782774514766563800,2.848563720703125,-0.015271631069481373,0.00366519158706069,-0.16554448008537292
1782774514776460500,2.85846044921875,-0.022602014243602753,-0.00366519158706069,-0.1771509200334549
1782774514786492000,2.868491943359375,-0.029932396486401558,-0.0354301854968071,-0.182648703455925
1782774514796480000,2.87847998046875,-0.036041051149368286,-0.04214970022439957,-0.18570303916931152
1782774514806481000,2.88848095703125,-0.031154127791523933,-0.001832595793530345,-0.17776179313659668
1782774514816468200,2.89846826171875,-0.03237585723400116,0.03420845419168472,-0.13866640627384186
1782774514826499800,2.908499755859375,-0.03176499158143997,0.03726277872920036,-0.08735372871160507
1782774514836457700,2.918457763671875,-0.02382374368607998,0.02687807008624077,-0.03787364438176155
1782774514846489000,2.928489013671875,-0.016493361443281174,0.018936822190880775,-0.0006108652451075613
1782774514856477200,2.938477294921875,-0.00733038317412138,0.018325956538319588,0.019547687843441963
1782774514866477800,2.948477783203125,0.004886921960860491,0.014049900695681572,0.02015855349600315
1782774514876466200,2.958466064453125,0.009773843921720982,0.006719517521560192,0.012217304669320583
1782774514886497300,2.968497314453125,0.001832595793530345,-0.005497787147760391,-0.0012217304902151227
1782774514896455200,2.978455078125,-0.013439035043120384,-0.00366519158706069,-0.022602014243602753
1782774514906486500,2.988486572265625,-0.021380282938480377,0.021991148591041565,-0.04092797264456749
1782774514916475400,2.998475341796875,-0.02321287989616394,0.033597588539123535,-0.0507018156349659
1782774514926475800,3.008475830078125,-0.01038470957428217,0.039706241339445114,-0.04764748737215996
1782774514936464400,3.01846435546875,0.00427605677396059,0.033597588539123535,-0.02382374368607998
1782774514946495500,3.02849560546875,0.021380282938480377,0.01710422709584236,0.007941247895359993
1782774514956483800,3.03848388671875,0.03237585723400116,0.016493361443281174,0.04214970022439957
1782774514966484700,3.048484619140625,0.02321287989616394,0.016493361443281174,0.06780604273080826
1782774514976472800,3.058472900390625,0.01160643994808197,0.014049900695681572,0.0708603709936142
1782774514986504200,3.068504150390625,0.012828170321881771,0.025045474991202354,0.06169738993048668
1782774514996462000,3.078462158203125,0.02382374368607998,0.01771509274840355,0.04581489413976669
1782774515006493000,3.088492919921875,0.02871066704392433,0,0.02382374368607998
1782774515016481500,3.0984814453125,0.03848451003432274,-0.01466076634824276,-0.00855211354792118
1782774515026482200,3.108482177734375,0.0403171069920063,-0.006719517521560192,-0.0354301854968071
1782774515036470500,3.118470458984375,0.03420845419168472,-0.0006108652451075613,-0.04459316283464432
1782774515046501600,3.128501708984375,0.01466076634824276,-0.009162978269159794,-0.03787364438176155
1782774515056459500,3.13845947265625,-0.00427605677396059,-0.00855211354792118,-0.025656340643763542
1782774515066490400,3.148490478515625,-0.009162978269159794,0.015271631069481373,-0.012217304669320583
1782774515076438800,3.158438720703125,-0.006108652334660292,0.031154127791523933,0.01038470957428217
1782774515086511600,3.16851171875,0.004886921960860491,0.03176499158143997,0.04398229718208313
1782774515096468000,3.178468017578125,0.02015855349600315,0.018325956538319588,0.07941248267889023
1782774515106499000,3.1884990234375,0.02687807008624077,-0.0006108652451075613,0.1007927656173706
1782774515116457000,3.19845703125,0.04398229718208313,-0.00427605677396059,0.1111774742603302
1782774515126488000,3.208488037109375,0.04581489413976669,0.015882495790719986,0.12950342893600464
1782774515136476400,3.218476318359375,0.036041051149368286,0.018325956538319588,0.12828169763088226
1782774515146477300,3.228477294921875,0.028099801391363144,0.013439035043120384,0.11362093687057495
1782774515156465700,3.238465576171875,0.027488935738801956,-0.003054326167330146,0.08185594528913498
1782774515166496800,3.248496826171875,0.02932153269648552,-0.025045474991202354,0.03787364438176155
1782774515176454700,3.25845458984375,0.03298672288656235,-0.022602014243602753,-0.00366519158706069
1782774515186485500,3.268485595703125,0.03176499158143997,-0.01466076634824276,-0.0354301854968071
1782774515196473900,3.278473876953125,0.03298672288656235,-0.021380282938480377,-0.0555887371301651
1782774515206505200,3.288505126953125,0.03481931984424591,-0.021380282938480377,-0.05497787147760391
1782774515216463000,3.298463134765625,0.042760565876960754,-0.00733038317412138,-0.04092797264456749
1782774515226494200,3.308494140625,0.05192354694008827,0.004886921960860491,-0.016493361443281174
1782774515236482600,3.318482666015625,0.059864792972803116,0.004886921960860491,0.01466076634824276
1782774515246452200,3.3284521484375,0.06352998316287994,-0.006719517521560192,0.045204028487205505
1782774515256532700,3.33853271484375,0.06291911751031876,-0.02015855349600315,0.06536258012056351
1782774515266503200,3.348503173828125,0.060475658625364304,-0.01466076634824276,0.06658431142568588
1782774515276460500,3.35846044921875,0.04948008432984352,-0.001832595793530345,0.04764748737215996
1782774515286492200,3.3684921875,0.04214970022439957,0.0024434609804302454,0.007941247895359993
1782774515296440000,3.378440185546875,0.04337143152952194,0.00733038317412138,-0.02871066704392433
1782774515306572500,3.388572509765625,0.042760565876960754,-0.00427605677396059,-0.05192354694008827
1782774515316469200,3.39846923828125,0.03848451003432274,-0.025045474991202354,-0.07452555745840073
1782774515326500600,3.40850048828125,0.024434609338641167,-0.01160643994808197,-0.0806342139840126
1782774515336458200,3.418458251953125,0.012217304669320583,-0.005497787147760391,-0.0708603709936142
1782774515346489300,3.4284892578125,0.00427605677396059,-0.018936822190880775,-0.05009094998240471
1782774515356477700,3.438477783203125,0.0024434609804302454,-0.025045474991202354,-0.028099801391363144
1782774515366447400,3.448447265625,0.014049900695681572,-0.02321287989616394,-0.01771509274840355
1782774515376528000,3.45852783203125,0.027488935738801956,-0.01466076634824276,-0.02015855349600315
1782774515386498000,3.468498046875,0.028099801391363144,-0.00366519158706069,-0.027488935738801956
1782774515396455700,3.47845556640625,0.016493361443281174,-0.003054326167330146,-0.03481931984424591
1782774515406486800,3.48848681640625,0.009773843921720982,0.0012217304902151227,-0.04948008432984352
1782774515416475400,3.498475341796875,0.003054326167330146,0.005497787147760391,-0.0659734457731247
1782774515426476000,3.50847607421875,-0.009162978269159794,-0.01038470957428217,-0.07819075137376785
1782774515436464400,3.51846435546875,-0.01038470957428217,-0.019547687843441963,-0.08674286305904388
1782774515446495500,3.52849560546875,-0.00427605677396059,-0.01038470957428217,-0.08918632566928864
1782774515456483800,3.53848388671875,0.0006108652451075613,-0.010995574295520782,-0.0806342139840126
1782774515466484500,3.548484375,0.003054326167330146,-0.00733038317412138,-0.05925392732024193
1782774515476432600,3.5584326171875,0.0024434609804302454,0.00427605677396059,-0.030543262138962746
1782774515486565000,3.568565185546875,0.0012217304902151227,0.018936822190880775,-0.001832595793530345
1782774515496421600,3.578421630859375,-0.0006108652451075613,0.03787364438176155,0.02687807008624077
1782774515506554000,3.58855419921875,0.0006108652451075613,0.033597588539123535,0.045204028487205505
1782774515516481300,3.598481201171875,0.00733038317412138,0.02321287989616394,0.05375614017248154
1782774515526482000,3.60848193359375,0.00427605677396059,0.015271631069481373,0.04948008432984352
1782774515536470300,3.61847021484375,0.006108652334660292,-0.0024434609804302454,0.018325956538319588
1782774515546501600,3.628501708984375,0.01160643994808197,0.01160643994808197,-0.02932153269648552
1782774515556459500,3.63845947265625,0.005497787147760391,0.01160643994808197,-0.039706241339445114
1782774515566490600,3.64849072265625,-0.00427605677396059,-0.00427605677396059,-0.0354301854968071
1782774515576479000,3.65847900390625,-0.0012217304902151227,-0.006719517521560192,-0.028099801391363144
1782774515586448600,3.66844873046875,0.004886921960860491,-0.009773843921720982,-0.021991148591041565
1782774515597422000,3.679422119140625,0.016493361443281174,-0.004886921960860491,-0.015882495790719986
1782774515616487400,3.6984873046875,0.00733038317412138,0.001832595793530345,0.01038470957428217
1782774515626518500,3.7085185546875,-0.009162978269159794,0.016493361443281174,0.021991148591041565
1782774515636476700,3.7184765625,-0.019547687843441963,0.036041051149368286,0.025656340643763542
1782774515646477300,3.728477294921875,-0.01710422709584236,0.039095375686883926,0.028099801391363144
1782774515656465700,3.738465576171875,-0.006108652334660292,0.01771509274840355,0.021380282938480377
1782774515666496800,3.748496826171875,0.01160643994808197,0.001832595793530345,0.016493361443281174
1782774515676414500,3.75841455078125,0.00855211354792118,-0.01160643994808197,0.012828170321881771
1782774515686515700,3.768515625,-0.00855211354792118,-0.014049900695681572,0.009162978269159794
1782774515696504600,3.778504638671875,-0.03726277872920036,-0.01710422709584236,-0.00427605677396059
1782774515706505200,3.788505126953125,-0.04703662544488907,-0.010995574295520782,-0.025656340643763542
1782774515716463000,3.798463134765625,-0.039095375686883926,0.003054326167330146,-0.04214970022439957
1782774515726494200,3.808494140625,-0.021380282938480377,0.005497787147760391,-0.04764748737215996
1782774515736442600,3.818442626953125,-0.001832595793530345,0,-0.03848451003432274
1782774515746574800,3.828574951171875,0.01038470957428217,-0.001832595793530345,-0.025045474991202354
1782774515756471800,3.838471923828125,0.013439035043120384,-0.0006108652451075613,-0.012217304669320583
1782774515766503000,3.8485029296875,0.005497787147760391,0.003054326167330146,0.001832595793530345
1782774515776420600,3.858420654296875,-0.01038470957428217,0.004886921960860491,0.013439035043120384
1782774515786552800,3.868552734375,-0.019547687843441963,0.016493361443281174,0.014049900695681572
1782774515797660200,3.87966015625,-0.01160643994808197,0.030543262138962746,0.010995574295520782
1782774515816468200,3.89846826171875,0.02687807008624077,0.025656340643763542,0.01160643994808197
1782774515826499800,3.908499755859375,0.04459316283464432,0.01038470957428217,0.010995574295520782
1782774515836457700,3.918457763671875,0.048258353024721146,0.012217304669320583,0.005497787147760391
1782774515846489000,3.928489013671875,0.04398229718208313,0.029932396486401558,0.004886921960860491
1782774515856477200,3.938477294921875,0.033597588539123535,0.03420845419168472,0.00855211354792118
1782774515866477800,3.948477783203125,0.028099801391363144,0.028099801391363144,0.01466076634824276
1782774515876426500,3.958426513671875,0.039095375686883926,0.02932153269648552,0.00733038317412138
1782774515886558500,3.968558349609375,0.060475658625364304,0.036041051149368286,-0.00427605677396059
1782774515896455200,3.978455078125,0.0757472887635231,0.036651913076639175,-0.00855211354792118
1782774515906425300,3.98842529296875,0.0757472887635231,0.019547687843441963,0.0012217304902151227
1782774515917349400,3.999349365234375,0.05253441259264946,0.00855211354792118,0.015882495790719986
1782774515936464400,4.01846435546875,0.019547687843441963,0.01771509274840355,0.012828170321881771
1782774515946495500,4.02849560546875,0.014049900695681572,0.03726277872920036,0.006108652334660292
1782774515956484000,4.038484130859375,0.010995574295520782,0.024434609338641167,-0.009162978269159794
1782774515966484200,4.048484130859375,0.022602014243602753,0.03237585723400116,-0.03848451003432274
1782774515976432600,4.0584326171875,0.02076941914856434,0.028099801391363144,-0.03420845419168472
1782774515986503400,4.06850341796875,0.009773843921720982,0.013439035043120384,-0.02015855349600315
1782774515997478100,4.07947802734375,-0.0006108652451075613,0.01710422709584236,0
1782774516016481300,4.098481201171875,-0.009162978269159794,0.01466076634824276,0.01466076634824276
1782774516026482000,4.10848193359375,0.006719517521560192,0.01710422709584236,0.007941247895359993
1782774516036470500,4.118470458984375,0.015882495790719986,0.025656340643763542,0.007941247895359993
1782774516046501600,4.128501708984375,0.00855211354792118,0.025656340643763542,0.018936822190880775
1782774516056459500,4.13845947265625,-0.00427605677396059,0.028099801391363144,0.025656340643763542
1782774516066490600,4.14849072265625,-0.015271631069481373,0.036651913076639175,0.025656340643763542
1782774516076479000,4.15847900390625,-0.01160643994808197,0.04153883829712868,0.024434609338641167
1782774516086479600,4.168479736328125,0.0024434609804302454,0.03176499158143997,0.02687807008624077
1782774516096468000,4.178468017578125,0.02626720629632473,0.00733038317412138,0.03298672288656235
1782774516106499300,4.188499267578125,0.048258353024721146,-0.015271631069481373,0.030543262138962746
1782774516116457000,4.19845703125,0.04886921867728233,-0.03237585723400116,0.015882495790719986
1782774516126488300,4.20848828125,0.02871066704392433,-0.025656340643763542,-0.01160643994808197
1782774516136436500,4.2184365234375,0.00427605677396059,-0.006108652334660292,-0.04092797264456749
1782774516146568700,4.228568603515625,-0.012217304669320583,0.004886921960860491,-0.056810468435287476
1782774516156465700,4.238465576171875,-0.015882495790719986,-0.01160643994808197,-0.06108652427792549
1782774516166496800,4.248496826171875,-0.005497787147760391,-0.024434609338641167,-0.05375614017248154
1782774516176454400,4.258454345703125,0.005497787147760391,-0.02932153269648552,-0.04398229718208313
1782774516186485800,4.26848583984375,0.009162978269159794,-0.018936822190880775,-0.031154127791523933
1782774516196473900,4.278473876953125,0.01710422709584236,-0.00733038317412138,-0.015271631069481373
1782774516206505000,4.2885048828125,0.022602014243602753,-0.0006108652451075613,0.00855211354792118
1782774516216463000,4.298463134765625,0.015882495790719986,-0.004886921960860491,0.0354301854968071
1782774516226494500,4.308494384765625,0.00855211354792118,-0.00855211354792118,0.05864306539297104
1782774516236482600,4.318482666015625,-0.00366519158706069,-0.006719517521560192,0.0757472887635231
1782774516246483000,4.32848291015625,-0.016493361443281174,-0.009773843921720982,0.0861319974064827
1782774516256471800,4.338471923828125,-0.030543262138962746,-0.014049900695681572,0.07696902006864548
1782774516266503000,4.3485029296875,-0.04886921867728233,-0.012217304669320583,0.05009094998240471
1782774516276420600,4.358420654296875,-0.06230825558304787,0.005497787147760391,0.015882495790719986
1782774516286553000,4.368552978515625,-0.056810468435287476,0.024434609338641167,-0.012828170321881771
1782774516296480000,4.37847998046875,-0.04337143152952194,0.027488935738801956,-0.016493361443281174
1782774516306480600,4.388480712890625,-0.033597588539123535,0.014049900695681572,0.00733038317412138
1782774516316469200,4.39846923828125,-0.02871066704392433,-0.007941247895359993,0.039706241339445114
1782774516326500000,4.4085,-0.02932153269648552,-0.010995574295520782,0.06414084881544113
1782774516336458200,4.418458251953125,-0.0403171069920063,-0.0024434609804302454,0.07635815441608429
1782774516346489600,4.428489501953125,-0.04214970022439957,0.0006108652451075613,0.07269296050071716
1782774516356478000,4.43847802734375,-0.02687807008624077,0.006719517521560192,0.06108652427792549
1782774516366478600,4.448478515625,-0.014049900695681572,0.0024434609804302454,0.04337143152952194
1782774516376466700,4.458466796875,-0.003054326167330146,0.0024434609804302454,0.024434609338641167
1782774516386497800,4.468497802734375,0.003054326167330146,0.006719517521560192,0.010995574295520782
1782774516396455700,4.47845556640625,-0.00855211354792118,0.0024434609804302454,0.013439035043120384
1782774516406487000,4.488487060546875,-0.018936822190880775,0.01038470957428217,0.01466076634824276
1782774516416475100,4.49847509765625,-0.02015855349600315,0.01771509274840355,0.009162978269159794
1782774516426445000,4.508445068359375,-0.00855211354792118,0.00855211354792118,0.0012217304902151227
1782774516436555800,4.5185556640625,0.009162978269159794,-0.0024434609804302454,0.0012217304902151227
1782774516446495500,4.52849560546875,0.015271631069481373,-0.015271631069481373,0
1782774516456483800,4.53848388671875,0.027488935738801956,-0.012828170321881771,-0.006108652334660292
1782774516466484700,4.548484619140625,0.03298672288656235,-0.0012217304902151227,-0.009162978269159794
1782774516476472800,4.558472900390625,0.029932396486401558,-0.001832595793530345,-0.009773843921720982
1782774516486504000,4.56850390625,0.02871066704392433,-0.003054326167330146,-0.00855211354792118
1782774516496461800,4.5784619140625,0.025045474991202354,-0.01038470957428217,0.00366519158706069
1782774516506493000,4.588492919921875,0.025045474991202354,-0.027488935738801956,0.01160643994808197
1782774516516481300,4.598481201171875,0.033597588539123535,-0.03726277872920036,0.00855211354792118
1782774516526482200,4.608482177734375,0.045204028487205505,-0.03237585723400116,-0.001832595793530345
1782774516536470500,4.618470458984375,0.04398229718208313,-0.02932153269648552,-0.009162978269159794
1782774516546501600,4.628501708984375,0.04153883829712868,-0.02321287989616394,-0.013439035043120384
1782774516556459500,4.63845947265625,0.03298672288656235,-0.009773843921720982,-0.0006108652451075613
1782774516566490400,4.648490478515625,0.006108652334660292,-0.001832595793530345,0.0354301854968071
1782774516576479000,4.65847900390625,-0.012217304669320583,0.00366519158706069,0.06230825558304787
1782774516586479600,4.668479736328125,-0.013439035043120384,0.013439035043120384,0.06963863968849182
1782774516596468000,4.678468017578125,-0.001832595793530345,0.015271631069481373,0.059864792972803116
1782774516606499000,4.6884990234375,0.013439035043120384,0.006108652334660292,0.04459316283464432
1782774516616457000,4.69845703125,0.02687807008624077,0.01160643994808197,0.025656340643763542
1782774516626488000,4.708488037109375,0.0354301854968071,0.024434609338641167,0.01038470957428217
1782774516636506600,4.718506591796875,0.039095375686883926,0.03481931984424591,0.010995574295520782
1782774516646446000,4.728446044921875,0.039706241339445114,0.03848451003432274,0.027488935738801956
1782774516656526600,4.738526611328125,0.036651913076639175,0.04459316283464432,0.05009094998240471
1782774516666465500,4.748465576171875,0.02382374368607998,0.048258353024721146,0.0708603709936142
1782774516676576800,4.75857666015625,0.025656340643763542,0.0555887371301651,0.08185594528913498
1782774516686485800,4.76848583984375,0.039706241339445114,0.04948008432984352,0.08368854224681854
1782774516696474000,4.77847412109375,0.04153883829712868,0.03481931984424591,0.08368854224681854
1782774516706505500,4.78850537109375,0.036041051149368286,0.02076941914856434,0.07452555745840073
1782774516716463000,4.798463134765625,0.039095375686883926,0.021380282938480377,0.0555887371301651
1782774516726494200,4.808494140625,0.045204028487205505,0.02015855349600315,0.03420845419168472
1782774516736482800,4.81848291015625,0.05009094998240471,0.01038470957428217,0.01160643994808197
1782774516746483500,4.8284833984375,0.04764748737215996,0.0024434609804302454,-0.004886921960860491
1782774516756471800,4.838471923828125,0.031154127791523933,-0.010995574295520782,-0.01466076634824276
1782774516766503000,4.8485029296875,0.005497787147760391,-0.006719517521560192,-0.02871066704392433
1782774516776460800,4.858460693359375,-0.019547687843441963,0.00366519158706069,-0.04642575979232788
1782774516786492000,4.868491943359375,-0.025656340643763542,0.025045474991202354,-0.05497787147760391
1782774516796480000,4.87847998046875,-0.018936822190880775,0.03176499158143997,-0.04214970022439957
1782774516806480600,4.888480712890625,-0.015271631069481373,0.018325956538319588,-0.01160643994808197
1782774516816468200,4.89846826171875,0.013439035043120384,0.01771509274840355,0.042760565876960754
1782774516826499800,4.908499755859375,0.03787364438176155,0.012828170321881771,0.07819075137376785
1782774516836457700,4.918457763671875,0.0507018156349659,-0.01160643994808197,0.10262536257505417
1782774516846488600,4.928488525390625,0.051312681287527084,-0.028099801391363144,0.11362093687057495
1782774516856477200,4.938477294921875,0.04398229718208313,-0.02871066704392433,0.10690141469240189
1782774516866477600,4.9484775390625,0.025045474991202354,-0.028099801391363144,0.09040805697441101
1782774516876466200,4.958466064453125,0.00733038317412138,-0.036041051149368286,0.0757472887635231
1782774516886497300,4.968497314453125,-0.00855211354792118,-0.030543262138962746,0.06291911751031876
1782774516896455400,4.978455322265625,-0.02932153269648552,-0.02871066704392433,0.03787364438176155
1782774516906486300,4.988486328125,-0.036041051149368286,-0.018936822190880775,-0.0024434609804302454
1782774516916475100,4.99847509765625,-0.027488935738801956,-0.003054326167330146,-0.033597588539123535
1782774516926476000,5.00847607421875,-0.02321287989616394,-0.00855211354792118,-0.039095375686883926
1782774516936464400,5.01846435546875,-0.024434609338641167,-0.025045474991202354,-0.02626720629632473
1782774516946464500,5.028464599609375,-0.019547687843441963,-0.015882495790719986,-0.00855211354792118
1782774516956606000,5.03860595703125,-0.022602014243602753,-0.00427605677396059,0.01160643994808197
1782774516966453500,5.04845361328125,-0.036041051149368286,-0.016493361443281174,0.025656340643763542
1782774516976533800,5.05853369140625,-0.036651913076639175,-0.01466076634824276,0.02076941914856434
1782774516986504200,5.068504150390625,-0.027488935738801956,0.00855211354792118,0.016493361443281174
1782774516996462000,5.078462158203125,-0.021380282938480377,0.00855211354792118,0.014049900695681572
1782774517006462000,5.0884619140625,-0.012828170321881771,-0.0024434609804302454,0.018936822190880775
1782774517016542500,5.09854248046875,-0.009162978269159794,-0.007941247895359993,0.03298672288656235
1782774517026451200,5.108451171875,-0.005497787147760391,-0.01771509274840355,0.0354301854968071
1782774517036531500,5.118531494140625,0.006108652334660292,-0.01160643994808197,0.02076941914856434
1782774517046501400,5.12850146484375,0.01466076634824276,-0.003054326167330146,0.0006108652451075613
1782774517056459500,5.13845947265625,0.02076941914856434,-0.0024434609804302454,-0.018936822190880775
1782774517066490600,5.14849072265625,0.024434609338641167,-0.001832595793530345,-0.02626720629632473
1782774517076479200,5.158479248046875,0.02076941914856434,0.0006108652451075613,-0.01710422709584236
1782774517086479600,5.168479736328125,0.01466076634824276,-0.007941247895359993,-0.00733038317412138
1782774517096468000,5.178468017578125,0.01160643994808197,-0.012217304669320583,-0.009162978269159794
1782774517106468000,5.188468017578125,0.009773843921720982,0.0006108652451075613,-0.010995574295520782
1782774517117352000,5.19935205078125,0.00427605677396059,0.004886921960860491,-0.005497787147760391
1782774517136476400,5.218476318359375,0.001832595793530345,-0.021380282938480377,0.006719517521560192
1782774517146477300,5.228477294921875,0.015271631069481373,-0.015271631069481373,0.0006108652451075613
1782774517156465700,5.238465576171875,0.02015855349600315,-0.009162978269159794,-0.006108652334660292
1782774517166496500,5.24849658203125,0.019547687843441963,-0.014049900695681572,-0.019547687843441963
1782774517176454700,5.25845458984375,0.01466076634824276,-0.00427605677396059,-0.025656340643763542
1782774517186485500,5.268485595703125,-0.0006108652451075613,0.012828170321881771,-0.022602014243602753
1782774517196474000,5.27847412109375,-0.016493361443281174,0.01771509274840355,-0.015882495790719986
1782774517206505200,5.288505126953125,-0.024434609338641167,0.009773843921720982,-0.015271631069481373
1782774517216463000,5.298463134765625,-0.025045474991202354,0.007941247895359993,-0.015271631069481373
1782774517226494200,5.308494140625,-0.027488935738801956,0.016493361443281174,-0.006719517521560192
1782774517236482800,5.31848291015625,-0.036651913076639175,0.018936822190880775,0.01160643994808197
1782774517246483500,5.3284833984375,-0.04337143152952194,0.013439035043120384,0.01466076634824276
1782774517256471800,5.338471923828125,-0.03848451003432274,0.01771509274840355,0.006719517521560192
1782774517266503000,5.3485029296875,-0.024434609338641167,0.02382374368607998,-0.007941247895359993
1782774517276460500,5.35846044921875,-0.005497787147760391,0.021991148591041565,-0.021380282938480377
1782774517286492000,5.368491943359375,0.010995574295520782,0.0006108652451075613,-0.022602014243602753
1782774517296480000,5.37847998046875,0.01466076634824276,-0.009773843921720982,-0.01466076634824276
1782774517306480600,5.388480712890625,-0.0024434609804302454,-0.00366519158706069,-0.0006108652451075613
1782774517316469200,5.39846923828125,-0.03726277872920036,0.00366519158706069,0.00733038317412138
1782774517326500600,5.40850048828125,-0.05925392732024193,0.003054326167330146,-0.003054326167330146
1782774517336458200,5.418458251953125,-0.060475658625364304,0.009773843921720982,-0.02932153269648552
1782774517346489600,5.428489501953125,-0.042760565876960754,0.02382374368607998,-0.05192354694008827
1782774517356477700,5.438477783203125,-0.015882495790719986,0.03237585723400116,-0.05864306539297104
1782774517366478600,5.448478515625,0.00855211354792118,0.03237585723400116,-0.03420845419168472
1782774517376466700,5.458466796875,0.02076941914856434,0.025045474991202354,0.010995574295520782
1782774517386498000,5.468498046875,0.015271631069481373,0.012217304669320583,0.05864306539297104
1782774517396456000,5.4784560546875,-0.006108652334660292,0.0006108652451075613,0.08735372871160507
1782774517406486800,5.48848681640625,-0.02076941914856434,0.004886921960860491,0.08491026610136032
1782774517416475400,5.498475341796875,-0.029932396486401558,0.006108652334660292,0.05314527451992035
1782774517426476000,5.50847607421875,-0.03420845419168472,-0.006719517521560192,0.00427605677396059
1782774517436464400,5.51846435546875,-0.02382374368607998,-0.00855211354792118,-0.04581489413976669
1782774517446495200,5.5284951171875,-0.01038470957428217,-0.01038470957428217,-0.08124507963657379
1782774517456484000,5.538484130859375,0.0012217304902151227,-0.015271631069481373,-0.0959058403968811
1782774517466484500,5.548484375,0.009773843921720982,-0.007941247895359993,-0.07819075137376785
1782774517476473000,5.55847314453125,0.010995574295520782,-0.010995574295520782,-0.03726277872920036
1782774517486504000,5.56850390625,0.004886921960860491,-0.024434609338641167,0.006719517521560192
1782774517496461800,5.5784619140625,0.00366519158706069,-0.02626720629632473,0.030543262138962746
1782774517506493000,5.588492919921875,0.01160643994808197,-0.010995574295520782,0.031154127791523933
1782774517516481300,5.598481201171875,0.009773843921720982,0.006108652334660292,0.02321287989616394
1782774517526482000,5.60848193359375,0.006719517521560192,0.00427605677396059,0.013439035043120384
1782774517536430300,5.618430419921875,0.010995574295520782,0.0024434609804302454,-0.0006108652451075613
1782774517546562600,5.6285625,0.022602014243602753,0.01038470957428217,-0.01466076634824276
1782774517556459500,5.63845947265625,0.028099801391363144,0.009162978269159794,-0.015271631069481373
1782774517566490600,5.64849072265625,0.025045474991202354,0.00427605677396059,0.005497787147760391
1782774517576438800,5.658438720703125,0.009773843921720982,-0.009162978269159794,0.02871066704392433
1782774517586570800,5.66857080078125,-0.006719517521560192,-0.013439035043120384,0.033597588539123535
1782774517596489000,5.678489013671875,-0.00733038317412138,0.00855211354792118,0.025045474991202354
1782774517606560300,5.688560302734375,-0.009162978269159794,0.024434609338641167,0.01466076634824276
1782774517616457000,5.69845703125,-0.0024434609804302454,0.02871066704392433,0.001832595793530345
1782774517626457300,5.708457275390625,0.01771509274840355,0.030543262138962746,-0.00366519158706069
1782774517636537600,5.71853759765625,0.027488935738801956,0.027488935738801956,-0.0012217304902151227
1782774517646477000,5.72847705078125,0.02626720629632473,0.021991148591041565,0.00733038317412138
1782774517656465700,5.738465576171875,0.02382374368607998,0.029932396486401558,0.03420845419168472
1782774517666465500,5.748465576171875,0.018325956538319588,0.007941247895359993,0.048258353024721146
1782774517677274000,5.759274169921875,0.02015855349600315,-0.00427605677396059,0.04337143152952194
1782774517696535000,5.77853515625,0.014049900695681572,0.015271631069481373,0.02871066704392433
1782774517706474200,5.78847412109375,0.00733038317412138,0.027488935738801956,0.02382374368607998
1782774517717231400,5.7992314453125,0.0012217304902151227,0.02687807008624077,0.02076941914856434
1782774517736482800,5.81848291015625,0.02015855349600315,0.025656340643763542,0.02015855349600315
1782774517746483500,5.8284833984375,0.03298672288656235,0.02382374368607998,0.028099801391363144
1782774517756471800,5.838471923828125,0.04886921867728233,0.01466076634824276,0.03481931984424591
1782774517766472000,5.848471923828125,0.06719517707824707,0.009773843921720982,0.036651913076639175
1782774517776512000,5.858511962890625,0.08491026610136032,0.00427605677396059,0.0354301854968071
1782774517786521900,5.86852197265625,0.10018189996480942,-0.005497787147760391,0.03176499158143997
1782774517797472800,5.87947265625,0.10445795953273773,-0.02076941914856434,0.021380282938480377
1782774517816468200,5.89846826171875,0.06108652427792549,-0.025656340643763542,-0.01038470957428217
1782774517826469400,5.908469482421875,0.02871066704392433,-0.02015855349600315,-0.018325956538319588
1782774517836549400,5.91854931640625,0.009162978269159794,-0.01466076634824276,-0.01466076634824276
1782774517846488800,5.92848876953125,0.007941247895359993,-0.004886921960860491,-0.0024434609804302454
1782774517856477200,5.938477294921875,0.02626720629632473,-0.00366519158706069,0.013439035043120384
1782774517866477800,5.948477783203125,0.05009094998240471,-0.012828170321881771,0.031154127791523933
1782774517876466200,5.958466064453125,0.06352998316287994,-0.01466076634824276,0.04214970022439957
1782774517886497500,5.96849755859375,0.06108652427792549,-0.009773843921720982,0.042760565876960754
1782774517896455200,5.978455078125,0.05009094998240471,-0.001832595793530345,0.03420845419168472
1782774517906486500,5.988486572265625,0.0354301854968071,0.0006108652451075613,0.030543262138962746
1782774517916475100,5.99847509765625,0.014049900695681572,-0.012828170321881771,0.02015855349600315
1782774517926445000,6.008445068359375,0.004886921960860491,-0.02076941914856434,-0.0012217304902151227
1782774517936555800,6.0185556640625,0,-0.014049900695681572,-0.01710422709584236
1782774517946495500,6.02849560546875,-0.01038470957428217,-0.007941247895359993,-0.02076941914856434
1782774517956483800,6.03848388671875,-0.018325956538319588,-0.006719517521560192,-0.015271631069481373
1782774517966453500,6.04845361328125,-0.012828170321881771,-0.00427605677396059,-0.012217304669320583
1782774517976534000,6.058533935546875,-0.006108652334660292,0.006719517521560192,-0.003054326167330146
1782774517986504000,6.06850390625,-0.006108652334660292,0.012828170321881771,0.01160643994808197
1782774517996421600,6.078421630859375,-0.001832595793530345,0.003054326167330146,0.01771509274840355
1782774518006523100,6.088523193359375,0,0.009162978269159794,0.018325956538319588
1782774518016542500,6.09854248046875,0,0.009162978269159794,0.01771509274840355
1782774518026482200,6.108482177734375,0.004886921960860491,-0.00366519158706069,0.015271631069481373
1782774518036430300,6.118430419921875,0.007941247895359993,-0.015271631069481373,0.016493361443281174
1782774518046562600,6.1285625,0.00366519158706069,-0.02626720629632473,0.014049900695681572
1782774518056459500,6.13845947265625,-0.00366519158706069,-0.03481931984424591,0.006719517521560192
1782774518066490600,6.14849072265625,-0.01038470957428217,-0.030543262138962746,-0.00366519158706069
1782774518076479200,6.158479248046875,-0.01466076634824276,-0.019547687843441963,-0.01771509274840355
1782774518086479600,6.168479736328125,-0.013439035043120384,-0.015271631069481373,-0.025045474991202354
1782774518096468000,6.178468017578125,-0.00855211354792118,-0.015882495790719986,-0.036041051149368286
1782774518106499000,6.1884990234375,-0.004886921960860491,-0.013439035043120384,-0.04153883829712868
1782774518116457000,6.19845703125,-0.00427605677396059,-0.00366519158706069,-0.030543262138962746
1782774518126488000,6.208488037109375,-0.01466076634824276,-0.0024434609804302454,-0.004886921960860491
1782774518136476700,6.2184765625,-0.025045474991202354,-0.02321287989616394,0.018325956538319588
1782774518146477600,6.2284775390625,-0.019547687843441963,-0.02687807008624077,0.025656340643763542
1782774518156465700,6.238465576171875,-0.01466076634824276,-0.010995574295520782,0.025656340643763542
1782774518166465500,6.248465576171875,-0.019547687843441963,-0.009773843921720982,0.014049900695681572
1782774518176546300,6.25854638671875,-0.016493361443281174,-0.003054326167330146,-0.00366519158706069
1782774518186454800,6.268454833984375,-0.01771509274840355,-0.00427605677396059,-0.015882495790719986
1782774518197408000,6.279407958984375,-0.02871066704392433,-0.015882495790719986,-0.02687807008624077
1782774518216463000,6.298463134765625,-0.04581489413976669,0.00733038317412138,-0.014049900695681572
1782774518226494500,6.308494384765625,-0.04764748737215996,0.006719517521560192,-0.0012217304902151227
1782774518236482600,6.318482666015625,-0.036041051149368286,0.01160643994808197,0.009773843921720982
1782774518246483500,6.3284833984375,-0.02382374368607998,0.00427605677396059,0.01038470957428217
1782774518256471800,6.338471923828125,-0.012217304669320583,0.006108652334660292,0.00366519158706069
1782774518266503000,6.3485029296875,-0.00427605677396059,0.02871066704392433,0.00733038317412138
1782774518276460800,6.358460693359375,-0.014049900695681572,0.021380282938480377,0.022602014243602753
1782774518286492000,6.368491943359375,-0.03481931984424591,-0.0024434609804302454,0.033597588539123535
1782774518296480000,6.37847998046875,-0.039095375686883926,0,0.027488935738801956
1782774518306481000,6.38848095703125,-0.030543262138962746,0.012828170321881771,0.009162978269159794
1782774518316469200,6.39846923828125,-0.024434609338641167,0.010995574295520782,-0.009162978269159794
1782774518326500400,6.408500244140625,-0.013439035043120384,0.001832595793530345,-0.025656340643763542
1782774518336458200,6.418458251953125,0.0024434609804302454,-0.00733038317412138,-0.03726277872920036
1782774518346489300,6.4284892578125,0.014049900695681572,-0.0024434609804302454,-0.0354301854968071
1782774518356478000,6.43847802734375,0.00855211354792118,0.006108652334660292,-0.01466076634824276
1782774518366478300,6.448478271484375,-0.005497787147760391,0.018325956538319588,0.019547687843441963
1782774518376466700,6.458466796875,-0.01710422709584236,0.014049900695681572,0.04214970022439957
1782774518386498300,6.468498291015625,-0.025045474991202354,-0.001832595793530345,0.04337143152952194
1782774518396455700,6.47845556640625,-0.006719517521560192,0.004886921960860491,0.031154127791523933
1782774518406487000,6.488487060546875,0.009162978269159794,0.01038470957428217,0.02871066704392433
1782774518416475100,6.49847509765625,0.018325956538319588,0.003054326167330146,0.03420845419168472
1782774518426475800,6.508475830078125,0.02382374368607998,-0.00733038317412138,0.03787364438176155
1782774518436464400,6.51846435546875,0.015271631069481373,-0.010995574295520782,0.03420845419168472
1782774518446495700,6.528495849609375,-0.009162978269159794,-0.009773843921720982,0.018936822190880775
1782774518456483800,6.53848388671875,-0.02626720629632473,-0.001832595793530345,-0.006108652334660292
1782774518466484500,6.548484375,-0.030543262138962746,0.01771509274840355,-0.02687807008624077
1782774518476473000,6.55847314453125,-0.029932396486401558,0.015271631069481373,-0.02932153269648552
1782774518486504000,6.56850390625,-0.021991148591041565,-0.001832595793530345,-0.025045474991202354
1782774518496421600,6.578421630859375,0.007941247895359993,-0.0006108652451075613,-0.018325956538319588
1782774518506553900,6.588553955078125,0.02687807008624077,0.009773843921720982,-0.01160643994808197
1782774518516481500,6.5984814453125,0.025656340643763542,0.01038470957428217,0.01038470957428217
1782774518526482000,6.60848193359375,0.0024434609804302454,-0.009773843921720982,0.031154127791523933
1782774518536470500,6.618470458984375,-0.01771509274840355,-0.012217304669320583,0.0354301854968071
1782774518546501600,6.628501708984375,-0.03848451003432274,0,0.027488935738801956
1782774518556459500,6.63845947265625,-0.0507018156349659,0.009162978269159794,0.007941247895359993
1782774518566491000,6.648490966796875,-0.04948008432984352,0.021991148591041565,-0.01160643994808197
1782774518576479000,6.65847900390625,-0.036651913076639175,0.02932153269648552,-0.02687807008624077
1782774518586479600,6.668479736328125,-0.019547687843441963,0.018325956538319588,-0.03176499158143997
1782774518596468000,6.678468017578125,-0.014049900695681572,0.006108652334660292,-0.025656340643763542
1782774518606499000,6.6884990234375,-0.015271631069481373,0.004886921960860491,-0.00733038317412138
1782774518616457000,6.69845703125,-0.021991148591041565,0.0006108652451075613,0.01466076634824276
1782774518626488300,6.70848828125,-0.028099801391363144,0.0024434609804302454,0.031154127791523933
1782774518636506600,6.718506591796875,-0.022602014243602753,0.006108652334660292,0.033597588539123535
1782774518646477300,6.728477294921875,-0.018325956538319588,-0.0024434609804302454,0.025045474991202354
1782774518656465700,6.738465576171875,-0.015271631069481373,-0.004886921960860491,0.01038470957428217
1782774518666496800,6.748496826171875,-0.009773843921720982,0.001832595793530345,-0.003054326167330146
1782774518676454700,6.75845458984375,-0.004886921960860491,0.007941247895359993,-0.015882495790719986
1782774518686486000,6.768486083984375,-0.006108652334660292,0.0012217304902151227,-0.02076941914856434
1782774518696474000,6.77847412109375,-0.004886921960860491,-0.016493361443281174,-0.03176499158143997
1782774518706505200,6.788505126953125,0.0012217304902151227,-0.00427605677396059,-0.028099801391363144
1782774518716463000,6.798463134765625,-0.006108652334660292,0.015271631069481373,-0.007941247895359993
1782774518726494200,6.808494140625,-0.00733038317412138,0.015882495790719986,0.014049900695681572
1782774518736482600,6.818482666015625,0.00855211354792118,0.021380282938480377,0.03481931984424591
1782774518746483500,6.8284833984375,0.019547687843441963,0.012217304669320583,0.051312681287527084
1782774518756471800,6.838471923828125,0.02382374368607998,-0.004886921960860491,0.05375614017248154
1782774518766503000,6.8485029296875,0.01771509274840355,0.004886921960860491,0.04764748737215996
1782774518776460800,6.858460693359375,0.0024434609804302454,0.018325956538319588,0.03787364438176155
1782774518786491600,6.86849169921875,-0.01160643994808197,0.02932153269648552,0.025656340643763542
1782774518796480000,6.87847998046875,-0.01771509274840355,0.03420845419168472,0.01710422709584236
1782774518806481000,6.88848095703125,-0.007941247895359993,0.03787364438176155,0.015882495790719986
1782774518816468200,6.89846826171875,0.00427605677396059,0.036651913076639175,0.02626720629632473
1782774518826499800,6.908499755859375,0.006719517521560192,0.02932153269648552,0.04581489413976669
1782774518836457700,6.918457763671875,0.00366519158706069,0.031154127791523933,0.06719517707824707
1782774518846488600,6.928488525390625,-0.004886921960860491,0.030543262138962746,0.08246681094169617
1782774518856477200,6.938477294921875,-0.001832595793530345,0.03726277872920036,0.08307767659425735
1782774518866478000,6.94847802734375,0.005497787147760391,0.03298672288656235,0.0757472887635231
1782774518876466200,6.958466064453125,0.009773843921720982,0.012828170321881771,0.06414084881544113
1782774518886497300,6.968497314453125,0.019547687843441963,-0.013439035043120384,0.048258353024721146
1782774518896455400,6.978455322265625,0.02871066704392433,-0.019547687843441963,0.02871066704392433
1782774518906486500,6.988486572265625,0.03237585723400116,-0.02321287989616394,0.007941247895359993
1782774518916475400,6.998475341796875,0.01160643994808197,-0.025045474991202354,-0.00733038317412138
1782774518926476000,7.00847607421875,-0.010995574295520782,-0.02687807008624077,-0.010995574295520782
1782774518936464400,7.01846435546875,-0.025656340643763542,-0.02321287989616394,-0.013439035043120384
1782774518946495500,7.02849560546875,-0.016493361443281174,-0.018325956538319588,-0.01466076634824276
1782774518956483800,7.03848388671875,-0.001832595793530345,-0.016493361443281174,-0.01466076634824276
1782774518966476300,7.048476318359375,0.02015855349600315,-0.02076941914856434,-0.01466076634824276
1782774518976473000,7.05847314453125,0.039095375686883926,-0.016493361443281174,-0.009162978269159794
1782774518986504200,7.068504150390625,0.04886921867728233,-0.015882495790719986,0.007941247895359993
1782774518996461800,7.0784619140625,0.04764748737215996,-0.025656340643763542,0.02626720629632473
1782774519006493000,7.088492919921875,0.03481931984424591,-0.030543262138962746,0.03848451003432274
1782774519016481300,7.098481201171875,0.012828170321881771,-0.036651913076639175,0.02871066704392433
1782774519026482000,7.10848193359375,0.006108652334660292,-0.031154127791523933,0.0006108652451075613
1782774519036470500,7.118470458984375,0.0006108652451075613,-0.018325956538319588,-0.027488935738801956
1782774519046470700,7.128470703125,0,-0.01710422709584236,-0.04581489413976669
1782774519056551200,7.13855126953125,0.009162978269159794,-0.01466076634824276,-0.04886921867728233
1782774519066490400,7.148490478515625,0.019547687843441963,-0.015882495790719986,-0.04214970022439957
1782774519076479200,7.158479248046875,0.03176499158143997,-0.021380282938480377,-0.03237585723400116
1782774519086479600,7.168479736328125,0.042760565876960754,-0.024434609338641167,-0.021991148591041565
1782774519096468000,7.178468017578125,0.0555887371301651,-0.013439035043120384,-0.01710422709584236
1782774519106499000,7.1884990234375,0.0555887371301651,-0.004886921960860491,-0.004886921960860491
1782774519116457000,7.19845703125,0.0403171069920063,-0.021991148591041565,0.00733038317412138
1782774519126488300,7.20848828125,0.02932153269648552,-0.02626720629632473,0.004886921960860491
1782774519136476700,7.2184765625,0.01771509274840355,-0.005497787147760391,-0.0012217304902151227
1782774519146477300,7.228477294921875,0.0006108652451075613,0.005497787147760391,-0.010995574295520782
1782774519156465700,7.238465576171875,0.0006108652451075613,0.015882495790719986,-0.02015855349600315
1782774519166496800,7.248496826171875,0.01466076634824276,0.014049900695681572,-0.021991148591041565
1782774519176454400,7.258454345703125,0.03176499158143997,-0.006108652334660292,-0.019547687843441963
1782774519186485800,7.26848583984375,0.05192354694008827,-0.01710422709584236,-0.019547687843441963
1782774519196473900,7.278473876953125,0.06536258012056351,-0.021380282938480377,-0.018936822190880775
1782774519206505200,7.288505126953125,0.0659734457731247,-0.021991148591041565,-0.014049900695681572
1782774519216463000,7.298463134765625,0.05375614017248154,-0.021380282938480377,-0.01038470957428217
1782774519226494200,7.308494140625,0.03298672288656235,-0.021380282938480377,-0.009773843921720982
1782774519236482800,7.31848291015625,0.013439035043120384,-0.022602014243602753,-0.021991148591041565
1782774519246483200,7.328483154296875,0.003054326167330146,0.0006108652451075613,-0.0354301854968071
1782774519256471800,7.338471923828125,0.0012217304902151227,0.027488935738801956,-0.036041051149368286
1782774519266503000,7.3485029296875,0.006719517521560192,0.021380282938480377,-0.018936822190880775
1782774519276460500,7.35846044921875,0.015271631069481373,0.004886921960860491,0.009162978269159794
1782774519286492000,7.368491943359375,0.013439035043120384,-0.01771509274840355,0.029932396486401558
1782774519296480000,7.37847998046875,0.007941247895359993,-0.02076941914856434,0.03237585723400116
1782774519306480600,7.388480712890625,-0.0024434609804302454,0,0.02626720629632473
1782774519316469200,7.39846923828125,-0.015271631069481373,0.005497787147760391,0.016493361443281174
1782774519326500600,7.40850048828125,-0.02626720629632473,-0.012828170321881771,0.0012217304902151227
1782774519336458200,7.418458251953125,-0.033597588539123535,-0.02015855349600315,-0.02015855349600315
1782774519346489600,7.428489501953125,-0.036651913076639175,-0.00427605677396059,-0.031154127791523933
1782774519356477700,7.438477783203125,-0.03726277872920036,0.01038470957428217,-0.03237585723400116
1782774519366478300,7.448478271484375,-0.03237585723400116,0.012828170321881771,-0.010995574295520782
1782774519376466700,7.458466796875,-0.03176499158143997,-0.00366519158706069,0.025045474991202354
1782774519386498300,7.468498291015625,-0.03848451003432274,-0.028099801391363144,0.048258353024721146
1782774519396456000,7.4784560546875,-0.02932153269648552,-0.015882495790719986,0.04642575979232788
1782774519406487300,7.4884873046875,-0.021380282938480377,0.016493361443281174,0.033597588539123535
1782774519416475400,7.498475341796875,-0.021380282938480377,0.021991148591041565,0.024434609338641167
1782774519426476000,7.50847607421875,-0.018936822190880775,0.012217304669320583,0.018936822190880775
1782774519436464400,7.51846435546875,-0.015882495790719986,0.006719517521560192,0.016493361443281174
1782774519446495700,7.528495849609375,-0.009162978269159794,0.004886921960860491,0.012217304669320583
1782774519456483800,7.53848388671875,-0.00855211354792118,0.006108652334660292,0.00855211354792118
1782774519466453500,7.54845361328125,-0.012828170321881771,0.0006108652451075613,0.005497787147760391
1782774519476676900,7.5586767578125,-0.02015855349600315,-0.010995574295520782,0.0012217304902151227
1782774519486565000,7.568565185546875,-0.025656340643763542,-0.009773843921720982,-0.009162978269159794
1782774519496462000,7.578462158203125,-0.028099801391363144,0.0012217304902151227,-0.025656340643763542
1782774519506493000,7.588492919921875,-0.018936822190880775,0.014049900695681572,-0.04092797264456749
1782774519516481300,7.598481201171875,-0.005497787147760391,0.02015855349600315,-0.04703662544488907
1782774519526482200,7.608482177734375,0.00855211354792118,0.014049900695681572,-0.039706241339445114
1782774519536470500,7.618470458984375,0.021991148591041565,0.019547687843441963,-0.01466076634824276
1782774519546501600,7.628501708984375,0.02076941914856434,0.02321287989616394,0.025045474991202354
1782774519556459500,7.63845947265625,0.00733038317412138,0.01038470957428217,0.054367005825042725
1782774519566490400,7.648490478515625,-0.0024434609804302454,-0.0024434609804302454,0.05803219974040985
1782774519576479000,7.65847900390625,-0.01710422709584236,-0.00427605677396059,0.02626720629632473
1782774519586479600,7.668479736328125,-0.02626720629632473,0.00855211354792118,-0.030543262138962746
1782774519596468000,7.678468017578125,-0.03176499158143997,0.03176499158143997,-0.08002334833145142
1782774519606499000,7.6884990234375,-0.030543262138962746,0.03420845419168472,-0.10201449692249298
1782774519616457000,7.69845703125,-0.036041051149368286,0.03787364438176155,-0.09162978827953339
1782774519626518500,7.7085185546875,-0.04886921867728233,0.05192354694008827,-0.0757472887635231
1782774519636537600,7.71853759765625,-0.04459316283464432,0.08307767659425735,-0.07330382615327835
1782774519646477300,7.728477294921875,-0.02321287989616394,0.1417207419872284,-0.08307767659425735
1782774519656465700,7.738465576171875,0,0.37140607833862305,0.08246681094169617
1782774519666496800,7.748496826171875,0.05497787147760391,0.16249015927314758,0.25534167885780334
1782774519676454400,7.758454345703125,0.1313360333442688,-0.09651670604944229,0.37201693654060364
1782774519686486000,7.768486083984375,0.1771509200334549,-0.1062905490398407,0.384845107793808
1782774519696474000,7.77847412109375,0.11789698898792267,-0.00427605677396059,0.31031954288482666
1782774519706505200,7.788505126953125,0.027488935738801956,0.04337143152952194,0.16737708449363708
1782774519716463000,7.798463134765625,-0.03848451003432274,0.05619960278272629,0.016493361443281174
1782774519726494500,7.808494384765625,-0.056810468435287476,0.059864792972803116,-0.12278391420841217
1782774519736482600,7.818482666015625,-0.06352998316287994,0.028099801391363144,-0.24617868661880493
1782774519746483200,7.828483154296875,-0.07819075137376785,-0.009162978269159794,-0.35063666105270386
1782774519756471800,7.838471923828125,-0.11484266817569733,-0.06536258012056351,-0.46242499351501465
1782774519766503000,7.8485029296875,-0.1270599663257599,-0.1007927656173706,-0.47280970215797424
1782774519776460800,7.858460693359375,-0.12828169763088226,-0.17287486791610718,-0.43676865100860596
1782774519786492000,7.868491943359375,-0.09651670604944229,-0.1820378452539444,-0.3341432809829712
