time,seconds_elapsed,z,y,x
1782778806275287300,0.189287353515625,-0.13255776464939117,-0.7104362845420837,-0.12461651116609573
1782778806285753600,0.199753662109375,-0.13255776464939117,-0.7104362845420837,-0.12461651116609573
1782778806295747600,0.20974755859375,-0.13255776464939117,-0.7104362845420837,-0.12461651116609573
1782778806305772800,0.219772705078125,-0.13255776464939117,-0.7104362845420837,-0.12461651116609573
1782778806315767000,0.22976708984375,-0.0555887371301651,0.1869247704744339,1.072068452835083
1782778806325762000,0.239761962890625,-0.12461651116609573,0.27977627515792847,1.084285855293274
1782778806335756300,0.24975634765625,-0.13744467496871948,0.3274237811565399,1.0286970138549805
1782778806345782300,0.2597822265625,-0.018936822190880775,0.423329621553421,0.9077457785606384
1782778806355745300,0.269745361328125,0.23884831368923187,0.749531626701355,0.7544185519218445
1782778806365778400,0.2797783203125,0.5827654600143433,1.3903292417526245,0.6163630485534668
1782778806375764500,0.289764404296875,0.7831292152404785,1.996307611465454,0.5174028873443604
1782778806385764600,0.2997646484375,0.7733554244041443,2.2937989234924316,0.5070181488990784
1782778806395753700,0.309753662109375,0.6004805564880371,2.2351558208465576,0.6407976150512695
1782778806405785000,0.31978515625,0.4251621961593628,2.072054862976074,0.8881980776786804
1782778806415742700,0.32974267578125,0.46792277693748474,2.051896333694458,1.2082914113998413
1782778806425775400,0.339775390625,0.6505714654922485,2.171625852584839,1.3274102210998535
1782778806435762200,0.34976220703125,0.8692612648010254,2.3072381019592285,0.9248499870300293
1782778806445763000,0.35976318359375,0.9676105380058289,2.219273328781128,-0.09224065393209457
1782778806455751200,0.369751220703125,0.8558222055435181,1.6865988969802856,-1.531439185142517
1782778806465784600,0.37978466796875,0.6487388610839844,1.0042624473571777,-2.99812650680542
1782778806475740200,0.389740234375,0.26083946228027344,0.08124507963657379,-4.101960182189941
1782778806485771300,0.399771240234375,-0.38117989897727966,-0.837496280670166,-4.384790897369385
1782778806495760000,0.409759765625,-1.0115928649902344,-0.8790351152420044,-3.5246925354003906
1782778806505760800,0.4197607421875,-1.2198978662490845,-0.3683517575263977,-1.842369556427002
1782778806515748900,0.429748779296875,-0.5662720799446106,-0.15027284622192383,0.5345070958137512
1782778806525780200,0.4397802734375,0.07391469180583954,-0.08857546001672745,1.5082262754440308
1782778806535737900,0.44973779296875,0.5174028873443604,-0.24984388053417206,1.7983872890472412
1782778806545771000,0.45977099609375,0.48197266459465027,-0.5687155723571777,1.6413949728012085
1782778806555757300,0.46975732421875,-0.03787364438176155,-1.1435397863388062,1.289536476135254
1782778806565758000,0.479758056640625,-0.7147123217582703,-1.8411478996276855,0.7141014933586121
1782778806575746300,0.489746337890625,-1.2602150440216064,-2.356718063354492,-0.13377949595451355
1782778806585777000,0.49977685546875,-1.4227051734924316,-2.635272741317749,-1.147204875946045
1782778806595766000,0.50976611328125,-1.341460108757019,-2.7684412002563477,-2.099543809890747
1782778806605765600,0.519765625,-1.1838568449020386,-2.9743027687072754,-2.780658483505249
1782778806615755000,0.529755126953125,-0.9340129494667053,-3.3237178325653076,-3.0830368995666504
1782778806625786600,0.53978662109375,-0.4495968222618103,-3.5466835498809814,-2.9437596797943115
1782778806635744000,0.549743896484375,0.09529497474431992,-3.0256154537200928,-2.317622661590576
1782778806645775600,0.559775634765625,0.4917465150356293,-2.1459696292877197,-1.4776830673217773
1782778806655763500,0.569763427734375,0.5736024379730225,-1.2907582521438599,-0.6627888083457947
1782778806665765600,0.579765625,0.22540926933288574,-0.44104471802711487,-0.05742133408784866
1782778806675752700,0.589752685546875,-0.2125810980796814,0.6053674817085266,0.06902777403593063
1782778806685783000,0.599782958984375,-0.5467243790626526,1.3878858089447021,-0.1918116807937622
1782778806695741400,0.609741455078125,-0.6389650702476501,1.188132882118225,-0.4948008358478546
1782778806705772300,0.619772216796875,-0.3646865487098694,0.32498031854629517,-0.41722095012664795
1782778806715761000,0.629760986328125,-0.004886921960860491,-0.778853178024292,-0.05497787147760391
1782778806725763000,0.63976318359375,0.14233160018920898,-1.7336355447769165,0.21013765037059784
1782778806735750100,0.649750244140625,0.19120082259178162,-1.89979088306427,0.2565633952617645
1782778806745782800,0.65978271484375,0.46792277693748474,-1.0812314748764038,0.23396138846874237
1782778806755739100,0.6697392578125,1.3628404140472412,-0.6633996367454529,0.22602014243602753
1782778806765771800,0.679771728515625,0.9724974632263184,0.00733038317412138,0.2577851414680481
1782778806775758600,0.689758544921875,0.23457226157188416,0.6236934065818787,0.5913175344467163
1782778806785759700,0.699759765625,-0.1667662113904953,0.9572258591651917,1.0958921909332275
1782778806795747600,0.70974755859375,-0.2974913716316223,1.2858713865280151,1.522887110710144
1782778806805778000,0.71977783203125,-0.2687807083129883,1.8209892511367798,1.728137731552124
1782778806815733500,0.7297333984375,-0.12339477986097336,1.6071864366531372,1.5192219018936157
1782778806825766700,0.7397666015625,-0.06475171446800232,0.9297369122505188,0.769079327583313
1782778806835755800,0.749755859375,-0.02076941914856434,0.5809328556060791,0.07941248267889023
1782778806845786000,0.7597861328125,0.11362093687057495,0.6059783101081848,-0.18631389737129211
1782778806855744500,0.76974462890625,0.24495697021484375,0.8857545852661133,-0.1569923609495163
1782778806865776400,0.7797763671875,0.29138273000717163,1.0684033632278442,0.07880161702632904
1782778806875764200,0.78976416015625,0.2571742534637451,1.122159481048584,0.5174028873443604
1782778806885764000,0.79976416015625,0.24129177629947662,0.9462302923202515,1.053742527961731
1782778806895753200,0.809753173828125,0.3640756905078888,0.6841690540313721,1.3817771673202515
1782778806905784300,0.819784423828125,0.4813618063926697,0.6621779203414917,1.3060299158096313
1782778806915742700,0.82974267578125,0.5167919993400574,0.8637634515762329,0.9144652485847473
1782778806925775400,0.839775390625,0.4746423065662384,0.8252789378166199,0.5644394755363464
1782778806935762200,0.84976220703125,0.08552113175392151,0.07208210229873657,0.4386012554168701
1782778806945762000,0.859761962890625,-0.07024950534105301,-0.2119702398777008,0.37262779474258423
1782778806955751200,0.869751220703125,0.018936822190880775,-0.11423180252313614,0.2382374405860901
1782778806965783800,0.87978369140625,0.29993483424186707,0.20463985204696655,0.10201449692249298
1782778806975740200,0.889740234375,0.4660901725292206,0.48380526900291443,0.02076941914856434
1782778806985770500,0.8997705078125,0.4056145250797272,0.38240164518356323,-0.003054326167330146
1782778806995716900,0.909716796875,0.2736676335334778,-0.01038470957428217,0.02382374368607998
1782778807005762000,0.919761962890625,0.21930062770843506,-0.3995058834552765,0.07635815441608429
1782778807015748900,0.929748779296875,0.20586158335208893,-0.5864306092262268,0.20830504596233368
1782778807025779000,0.939779052734375,0.21624629199504852,-0.484416127204895,0.3842342495918274
1782778807035982000,0.949982177734375,0.20891591906547546,0.007941247895359993,0.48258355259895325
1782778807045768200,0.959768310546875,0.13316862285137177,0.7568620443344116,0.4105014503002167
1782778807055757300,0.96975732421875,0.3280346393585205,1.3078625202178955,0.29504790902137756
1782778807065757400,0.97975732421875,0.6921103000640869,1.7055357694625854,0.23029619455337524
1782778807075746300,0.989746337890625,0.8106181621551514,1.4813482761383057,0.06291911751031876
1782778807085777400,0.99977734375,0.6982190012931824,0.9810495972633362,-0.001832595793530345
1782778807095765800,1.009765869140625,0.7470881938934326,0.5442809462547302,0.2168571650981903
1782778807105766700,1.0197666015625,0.9896016716957092,0.29077184200286865,0.46547931432724
1782778807115754800,1.029754638671875,1.017701506614685,0.827111542224884,0.6194173693656921
1782778807125788400,1.039788330078125,0.7916813492774963,1.348179578781128,0.4147774875164032
1782778807135744000,1.049743896484375,0.7000515460968018,1.3096951246261597,0.13439035415649414
1782778807145777200,1.059777099609375,0.9150761365890503,1.370781660079956,0.0910189226269722
1782778807155763700,1.069763671875,1.338405728340149,1.540602207183838,0.25473082065582275
1782778807165766100,1.07976611328125,1.6169602870941162,1.3634512424468994,0.16065755486488342
1782778807175752400,1.08975244140625,1.5723671913146973,0.5711590051651001,-0.31459560990333557
1782778807185785000,1.09978515625,1.207680583000183,-0.45814892649650574,-1.0329731702804565
1782778807195741400,1.109741455078125,0.8142833709716797,-1.1325441598892212,-1.6084082126617432
1782778807205772500,1.1197724609375,0.5754350423812866,-1.6236798763275146,-1.9743164777755737
1782778807215761000,1.129760986328125,0.49785518646240234,-2.12703275680542,-2.2094995975494385
1782778807225761500,1.139761474609375,0.5595525503158569,-2.576018810272217,-2.1679606437683105
1782778807235750100,1.149750244140625,0.616973876953125,-2.891836166381836,-1.8680258989334106
1782778807245780500,1.159780517578125,0.6774495840072632,-3.1496212482452393,-1.3952162265777588
1782778807255739100,1.1697392578125,0.637132465839386,-2.6053402423858643,-0.646295428276062
1782778807265769700,1.179769775390625,0.1820378452539444,-1.5827518701553345,0.0006108652451075613
1782778807275758300,1.18975830078125,-0.03481931984424591,-1.3182471990585327,0.2431243658065796
1782778807285760500,1.199760498046875,-0.06230825558304787,-1.3750576972961426,-0.045204028487205505
1782778807295747600,1.20974755859375,-0.12461651116609573,-1.2773191928863525,-0.6921103000640869
1782778807305780200,1.2197802734375,-0.17409659922122955,-0.8955284357070923,-1.5418238639831543
1782778807315736600,1.229736572265625,-0.503963828086853,-0.36224308609962463,-2.4410176277160645
1782778807325768200,1.239768310546875,-0.8662069439888,-0.010995574295520782,-3.1312952041625977
1782778807335756300,1.24975634765625,-0.940732479095459,-0.00366519158706069,-3.3157765865325928
1782778807345786600,1.25978662109375,-0.8216137290000916,-0.24007004499435425,-2.916881561279297
1782778807355745300,1.269745361328125,-0.39645153284072876,-0.5674937963485718,-1.6982053518295288
1782778807365775600,1.279775634765625,-0.14966198801994324,-0.608421802520752,-0.8118399381637573
1782778807375764500,1.289764404296875,0.16982053220272064,-0.6359107494354248,-0.1014036312699318
1782778807385765400,1.299765380859375,0.1612684279680252,-0.6524040699005127,0.3597996234893799
1782778807395753700,1.309753662109375,-0.12461651116609573,-0.5925393104553223,0.5748242139816284
1782778807405784800,1.319784912109375,-0.37262779474258423,-0.4392121136188507,0.5057964324951172
1782778807415742700,1.32974267578125,-0.6322455406188965,-0.20830504596233368,0.2718350291252136
1782778807425775600,1.339775634765625,-0.7330383062362671,-0.08918632566928864,-0.02076941914856434
1782778807435762200,1.34976220703125,-0.5387831330299377,-0.1814269721508026,-0.34025195240974426
1782778807445764400,1.359764404296875,-0.23090706765651703,-0.39706242084503174,-0.6530149579048157
1782778807455751200,1.369751220703125,-0.06658431142568588,-0.4434881806373596,-0.902247965335846
1782778807465781800,1.37978173828125,0.00855211354792118,-0.2993239760398865,-0.9706648588180542
1782778807475740200,1.389740234375,0.01466076634824276,-0.05253441259264946,-0.8955284357070923
1782778807485772000,1.39977197265625,-0.030543262138962746,0.44715335965156555,-0.7232644557952881
1782778807495759600,1.409759521484375,-0.05497787147760391,0.5259549617767334,-0.598647952079773
1782778807505760800,1.4197607421875,-0.07391469180583954,0.49724429845809937,-0.5522221922874451
1782778807515748900,1.429748779296875,-0.10384709388017654,0.5015203952789307,-0.6499606370925903
1782778807525780500,1.439780517578125,-0.10812314599752426,0.4813618063926697,-0.7733554244041443
1782778807535737900,1.44973779296875,-0.13377949595451355,0.46853363513946533,-0.8692612648010254
1782778807545769500,1.45976953125,-0.14782938361167908,0.4178318381309509,-0.9199630618095398
1782778807555757300,1.46975732421875,-0.10567969083786011,0.23518311977386475,-0.8802568316459656
1782778807565757200,1.479757080078125,-0.025656340643763542,0.021380282938480377,-0.797789990901947
1782778807575837700,1.489837646484375,0.1508837193250656,-0.07880161702632904,-0.684779942035675
1782778807585778200,1.499778076171875,0.3781255781650543,-0.039706241339445114,-0.5619960427284241
1782778807595765800,1.509765869140625,0.5381723046302795,0.17776179313659668,-0.403781920671463
1782778807605766100,1.51976611328125,0.5216789245605469,0.46364670991897583,-0.26939156651496887
1782778807615755000,1.529755126953125,0.4440990388393402,0.7929030656814575,-0.1514945775270462
1782778807625785300,1.539785400390625,0.44165557622909546,1.1789699792861938,-0.015271631069481373
1782778807635744000,1.549743896484375,0.4147774875164032,1.5076154470443726,0.05925392732024193
1782778807645776400,1.5597763671875,0.44654250144958496,1.6658295392990112,0.03298672288656235
1782778807655763500,1.569763427734375,0.37262779474258423,1.6694947481155396,-0.04581489413976669
1782778807665763300,1.579763427734375,0.17837265133857727,1.670716404914856,0
1782778807675752400,1.58975244140625,0.22418753802776337,1.7232508659362793,0.0959058403968811
1782778807685785000,1.59978515625,0.31154128909111023,1.577254056930542,0.04886921867728233
1782778807695741400,1.609741455078125,0.4434881806373596,1.4037683010101318,0.02382374368607998
1782778807705772500,1.6197724609375,0.5803219676017761,1.2125675678253174,0.09651670604944229
1782778807715761200,1.62976123046875,0.6145304441452026,1.1771373748779297,0.24923302233219147
1782778807725790500,1.63979052734375,0.4899139404296875,1.3225232362747192,0.38240164518356323
1782778807735750100,1.649750244140625,0.37568211555480957,1.4282029867172241,0.41172316670417786
1782778807745780500,1.659780517578125,0.38728857040405273,1.5155566930770874,0.34513887763023376
1782778807755739100,1.6697392578125,0.5632177591323853,1.4911220073699951,0.3029891550540924
1782778807765769500,1.67976953125,0.7348709106445312,1.244943380355835,0.4043927788734436
1782778807775758600,1.689758544921875,1.2877039909362793,1.0280861854553223,1.0641272068023682
1782778807785760000,1.699760009765625,1.5754214525222778,0.901637077331543,1.5302174091339111
1782778807795747600,1.70974755859375,1.5448782444000244,0.6860016584396362,1.6688838005065918
1782778807805778200,1.719778076171875,1.228450059890747,0.17470745742321014,1.273043155670166
1782778807815733500,1.7297333984375,0.7391469478607178,-0.4245513379573822,0.6059783101081848
1782778807825766700,1.7397666015625,0.26022860407829285,-0.940732479095459,0.025045474991202354
1782778807835755800,1.749755859375,-0.09529497474431992,-1.4288138151168823,-0.375071257352829
1782778807845786600,1.75978662109375,-0.18509216606616974,-1.7055357694625854,-0.3891211748123169
1782778807855744500,1.76974462890625,0.0012217304902151227,-1.6413949728012085,-0.014049900695681572
1782778807865776600,1.779776611328125,0.15332718193531036,-1.5735888481140137,0.5870414972305298
1782778807875764200,1.78976416015625,0.0012217304902151227,-1.2962560653686523,1.171028733253479
1782778807885764000,1.79976416015625,-0.32559117674827576,-1.0519099235534668,1.3261884450912476
1782778807895753200,1.809753173828125,-0.5125159621238708,-1.0024298429489136,0.9621127843856812
1782778807905783600,1.819783447265625,-0.6811147332191467,-0.9236282706260681,0.23945917189121246
1782778807915742700,1.82974267578125,-0.9236282706260681,-0.8991936445236206,-0.47219884395599365
1782778807925773300,1.839773193359375,-1.168585181236267,-0.9382890462875366,-0.8894197940826416
1782778807935884300,1.84988427734375,-1.3170254230499268,-0.9810495972633362,-1.0922271013259888
1782778807945763600,1.859763671875,-1.3420709371566772,-1.0384708642959595,-1.197906732559204
1782778807955751200,1.869751220703125,-1.208902359008789,-1.035416603088379,-1.1936306953430176
1782778807965783000,1.879782958984375,-0.99876469373703,-0.9236282706260681,-1.129489779472351
1782778807975740200,1.889740234375,-0.9431759119033813,-0.8069530129432678,-1.0531316995620728
1782778807985772800,1.899772705078125,-1.043968677520752,-0.7904596328735352,-0.9682214260101318
1782778807995759900,1.909759765625,-1.301142930984497,-0.9572258591651917,-0.9468411207199097
1782778808005762000,1.919761962890625,-1.508837103843689,-1.047023057937622,-0.817337691783905
1782778808015748900,1.929748779296875,-1.6016886234283447,-0.9859365224838257,-0.5161811113357544
1782778808025779700,1.93977978515625,-1.4801265001296997,-0.637132465839386,0.001832595793530345
1782778808035737900,1.94973779296875,-1.5418238639831543,-0.1270599663257599,0.66584312915802
1782778808045772500,1.9597724609375,-1.7256942987442017,0.18020524084568024,1.176526427268982
1782778808055757300,1.96975732421875,-1.8112154006958008,0.08368854224681854,1.3921618461608887
1782778808065759700,1.979759765625,-1.6969836950302124,-0.22540926933288574,1.378722906112671
1782778808075746300,1.989746337890625,-1.4172073602676392,-0.4862487316131592,1.1814134120941162
1782778808085779200,1.999779296875,-1.1453723907470703,-0.5778785347938538,0.8991936445236206
1782778808095765800,2.009765869140625,-0.9816604256629944,-0.46181413531303406,0.616973876953125
1782778808105766100,2.01976611328125,-0.9334021210670471,-0.1417207419872284,0.35185837745666504
1782778808115755000,2.029755126953125,-0.988990843296051,0.30115658044815063,0.10018189996480942
1782778808125785600,2.03978564453125,-1.1020009517669678,0.6908885836601257,-0.14905111491680145
1782778808135744000,2.049743896484375,-1.2150110006332397,0.8399397134780884,-0.40744712948799133
1782778808145777000,2.05977685546875,-1.2919800281524658,0.6878342628479004,-0.6676757335662842
1782778808155763500,2.069763427734375,-1.2663236856460571,0.4080579876899719,-0.8662069439888
1782778808165765600,2.079765625,-1.1191051006317139,0.10445795953273773,-0.9492846131324768
1782778808175752200,2.089752197265625,-0.9358455538749695,-0.10018189996480942,-0.9523389339447021
1782778808185785000,2.09978515625,-0.7287622094154358,-0.13255776464939117,-0.8600982427597046
1782778808195741400,2.109741455078125,-0.5387831330299377,-0.03298672288656235,-0.6768386960029602
1782778808205772000,2.11977197265625,-0.28955012559890747,0.1563815027475357,-0.294437050819397
1782778808215761000,2.129760986328125,-0.15943582355976105,0.2889392673969269,-0.07513642311096191
1782778808225763000,2.13976318359375,-0.0806342139840126,0.3982841372489929,0.06475171446800232
1782778808235750100,2.149750244140625,-0.0354301854968071,0.4056145250797272,0.13927727937698364
1782778808245782800,2.15978271484375,-0.006108652334660292,0.40744712948799133,0.1569923609495163
1782778808255739100,2.1697392578125,0.01771509274840355,0.4288274049758911,0.08246681094169617
1782778808265696800,2.17969677734375,0.03481931984424591,0.4404338300228119,-0.03420845419168472
1782778808275728100,2.18972802734375,0.039095375686883926,0.46181413531303406,-0.13805554807186127
1782778808285758700,2.1997587890625,0.05497787147760391,0.5180137157440186,-0.21563543379306793
1782778808295747600,2.20974755859375,0.08735372871160507,0.5821545720100403,-0.251676470041275
1782778808305778200,2.219778076171875,0.10201449692249298,0.5913175344467163,-0.19975294172763824
1782778808315828200,2.229828125,0.0659734457731247,0.5491678714752197,-0.09712757170200348
1782778808325878800,2.239878662109375,0.010995574295520782,0.43615779280662537,0.0012217304902151227
1782778808335756000,2.249756103515625,-0.02076941914856434,0.2981022298336029,0.07391469180583954
1782778808345786600,2.25978662109375,-0.0024434609804302454,0.19792033731937408,0.1160643994808197
1782778808355854600,2.2698544921875,0.0659734457731247,0.16065755486488342,0.12095131725072861
1782778808365775600,2.279775634765625,0.0861319974064827,0.20952677726745605,0.12889257073402405
1782778808375764500,2.289764404296875,0.018325956538319588,0.27611109614372253,0.12339477986097336
1782778808385764600,2.2997646484375,-0.06963863968849182,0.2590068578720093,0.0861319974064827
1782778808395374800,2.309374755859375,-0.11239920556545258,0.17959438264369965,0.0006108652451075613
1782778808405784300,2.319784423828125,-0.03298672288656235,0.1062905490398407,-0.12339477986097336
1782778808415742700,2.32974267578125,0.17348572611808777,0.0708603709936142,-0.29565876722335815
1782778808425774300,2.3397744140625,0.4056145250797272,0.1368338167667389,-0.40133845806121826
1782778808435762400,2.349762451171875,0.5705481171607971,0.19486601650714874,-0.3090978264808655
1782778808445763600,2.359763671875,0.6126978397369385,-0.003054326167330146,0.04337143152952194
1782778808455751200,2.369751220703125,0.6505714654922485,-0.38179078698158264,0.5717698931694031
1782778808465782500,2.379782470703125,0.8668177723884583,-0.4190535545349121,1.1362093687057495
1782778808475740200,2.389740234375,1.1435397863388062,0.1258382350206375,1.4001030921936035
1782778808485772800,2.399772705078125,1.1746938228607178,0.7348709106445312,0.8613200187683105
1782778808495760000,2.409759765625,0.7739662528038025,0.484416127204895,-0.5845980644226074
1782778808505760000,2.419760009765625,0.3139847218990326,-0.2125810980796814,-2.062891960144043
1782778808515748900,2.429748779296875,0.0024434609804302454,-0.6841690540313721,-2.973691940307617
1782778808525780200,2.4397802734375,-0.2480112910270691,-0.9291260242462158,-3.232088088989258
1782778808535737900,2.44973779296875,-0.29504790902137756,-0.9645562171936035,-2.66337251663208
1782778808545769500,2.45976953125,-0.1062905490398407,-0.778853178024292,-1.4966198205947876
1782778808555757300,2.46975732421875,0.26022860407829285,-0.48258355259895325,-0.13500121235847473
1782778808565758500,2.479758544921875,0.41599923372268677,-0.5351179838180542,0.778853178024292
1782778808575746300,2.489746337890625,0.2217440903186798,-0.617584764957428,1.024420976638794
1782778808585777000,2.49977685546875,-0.12217304855585098,-0.37201693654060364,0.827722430229187
1782778808595765800,2.509765869140625,-0.38728857040405273,0.1569923609495163,0.4905247986316681
1782778808605766000,2.519765869140625,-0.42760565876960754,0.6646214127540588,0.20952677726745605
1782778808615755000,2.529755126953125,-0.42760565876960754,0.8704829812049866,-0.006108652334660292
1782778808625785600,2.53978564453125,-0.5595525503158569,0.3292563557624817,-0.4593706727027893
1782778808635744000,2.549743896484375,-0.5375614166259766,-0.23518311977386475,-0.6890559792518616
1782778808645774800,2.55977490234375,-0.3274237811565399,-0.6200281977653503,-0.598647952079773
1782778808655763500,2.569763427734375,-0.12278391420841217,-0.9431759119033813,-0.34758231043815613
1782778808665764000,2.57976416015625,0.0959058403968811,-1.0653489828109741,0.0006108652451075613
1782778808675752400,2.58975244140625,0.2981022298336029,-0.8045095205307007,0.39645153284072876
1782778808685785000,2.59978515625,0.33597588539123535,-0.3439171314239502,0.6933320760726929
1782778808695741400,2.609741455078125,0.192422553896904,0.07941248267889023,0.8790351152420044
1782778808705772000,2.61977197265625,-0.00733038317412138,0.36224308609962463,1.006095051765442
1782778808715761000,2.629760986328125,-0.18936823308467865,0.4795292317867279,1.06351637840271
1782778808725761000,2.639760986328125,-0.40256020426750183,0.4789183437824249,1.0482447147369385
1782778808735750100,2.649750244140625,-0.5497786998748779,0.3286454975605011,0.9566149711608887
1782778808745782800,2.65978271484375,-0.47280970215797424,0.1820378452539444,0.8613200187683105
1782778808755739100,2.6697392578125,-0.2822197377681732,0.13439035415649414,0.808174729347229
1782778808765771800,2.679771728515625,-0.11667526513338089,0.20830504596233368,0.7006624341011047
1782778808775758600,2.689758544921875,-0.0403171069920063,0.2968805134296417,0.5290092825889587
1782778808785758500,2.699758544921875,-0.06108652427792549,0.3646865487098694,0.3597996234893799
1782778808795747600,2.70974755859375,-0.16798794269561768,0.42210787534713745,0.1716531366109848
1782778808805780200,2.7197802734375,-0.252287358045578,0.4404338300228119,-0.02687807008624077
1782778808815733800,2.729733642578125,-0.2871066629886627,0.44226643443107605,-0.19120082259178162
1782778808825705700,2.739705810546875,-0.2773328125476837,0.4001167416572571,-0.30115658044815063
1782778808835816700,2.749816650390625,-0.21013765037059784,0.3543018400669098,-0.3488040566444397
1782778808845725200,2.75972509765625,-0.10812314599752426,0.304210901260376,-0.34208452701568604
1782778808856754400,2.77075439453125,-0.012217304669320583,0.27611109614372253,-0.26939156651496887
1782778808875764200,2.78976416015625,0.19058994948863983,0.3292563557624817,0.06536258012056351
1782778808885764000,2.79976416015625,0.2626720666885376,0.375071257352829,0.26633724570274353
1782778808895753200,2.809753173828125,0.31093040108680725,0.42271876335144043,0.4398229718208313
1782778808905783600,2.819783447265625,0.3543018400669098,0.403781920671463,0.5772676467895508
1782778808915742700,2.82974267578125,0.36529740691185,0.32070425152778625,0.6829473376274109
1782778808925395000,2.83939501953125,0.37568211555480957,0.2681698501110077,0.7391469478607178
1782778808935762200,2.84976220703125,0.40744712948799133,0.23640485107898712,0.7226535677909851
1782778808945762300,2.85976220703125,0.40683624148368835,0.2871066629886627,0.6279694437980652
1782778808955751200,2.869751220703125,0.3701843321323395,0.39584067463874817,0.4948008358478546
1782778808965781800,2.87978173828125,0.31642818450927734,0.4948008358478546,0.37629300355911255
1782778808975740200,2.889740234375,0.24495697021484375,0.5497786998748779,0.29138273000717163
1782778808985770800,2.899770751953125,0.17409659922122955,0.5009095072746277,0.23090706765651703
1782778808995759900,2.909759765625,0.14355333149433136,0.3988949954509735,0.18448130786418915
1782778809005761000,2.919760986328125,0.17348572611808777,0.28466320037841797,0.15515977144241333
1782778809015748900,2.929748779296875,0.21013765037059784,0.18509216606616974,0.1258382350206375
1782778809025780500,2.939780517578125,0.23335053026676178,0.10323622822761536,0.07880161702632904
1782778809035697200,2.949697265625,0.24923302233219147,0.039706241339445114,0.006108652334660292
1782778809045829600,2.95982958984375,0.2669481039047241,-0.09529497474431992,-0.09834930300712585
1782778809055716600,2.969716552734375,0.2681698501110077,-0.14966198801994324,-0.0507018156349659
1782778809065851100,2.97985107421875,0.313373863697052,-0.14355333149433136,0.02871066704392433
1782778809075746300,2.989746337890625,0.42760565876960754,-0.10262536257505417,0.17409659922122955
1782778809085779000,2.999779052734375,0.6707300543785095,0.16310101747512817,0.34025195240974426
1782778809095765800,3.009765869140625,0.9712757468223572,0.7116580009460449,0.3842342495918274
1782778809105768200,3.019768310546875,1.2718214988708496,1.3720033168792725,0.28588494658470154
1782778809115755000,3.029755126953125,1.5204435586929321,1.5748106241226196,0.19058994948863983
1782778809125785000,3.03978515625,1.7079792022705078,1.2907582521438599,0.4190535545349121
1782778809135703300,3.049703369140625,1.8038851022720337,0.8051204085350037,0.8729264140129089
1782778809145804500,3.059804443359375,1.7757853269577026,0.4434881806373596,1.244943380355835
1782778809155824600,3.06982470703125,1.671938180923462,0.2840523421764374,1.1129964590072632
1782778809165766000,3.079765869140625,1.6756033897399902,0.04398229718208313,0.0555887371301651
1782778809175752400,3.08975244140625,1.7299703359603882,-0.31093040108680725,-1.3573426008224487
1782778809185784300,3.099784423828125,1.6988162994384766,-0.7195992469787598,-2.247373342514038
1782778809195741400,3.109741455078125,1.4379768371582031,-1.3310753107070923,-2.752558708190918
1782778809205773300,3.119773193359375,0.8607091307640076,-1.9822577238082886,-2.8234190940856934
1782778809215761000,3.129760986328125,0.5613851547241211,-1.8093829154968262,-2.136195659637451
1782778809225762000,3.139761962890625,0.8057312369346619,-0.7538077235221863,-1.026253581047058
1782778809235750100,3.149750244140625,1.1966849565505981,0.16310101747512817,-0.14905111491680145
1782778809245781800,3.15978173828125,1.3952162265777588,0.4691445231437683,0.3891211748123169
1782778809255698400,3.169698486328125,1.3237450122833252,0.3781255781650543,0.6047565937042236
1782778809265769200,3.179769287109375,0.9816604256629944,-0.02382374368607998,0.5962044596672058
1782778809275819500,3.189819580078125,0.5204572081565857,-0.5589417219161987,0.5864306092262268
1782778809285758500,3.199758544921875,0.02932153269648552,-1.0519099235534668,0.4642575979232788
1782778809295747600,3.20974755859375,-0.42088615894317627,-1.3054190874099731,0.21441370248794556
1782778809305778200,3.219778076171875,-0.7037167549133301,-1.0739010572433472,-0.06536258012056351
1782778809315736600,3.229736572265625,-0.7867944240570068,-0.6426302194595337,-0.31154128909111023
1782778809325768400,3.2397685546875,-0.7476990818977356,-0.33597588539123535,-0.44165557622909546
1782778809335756000,3.249756103515625,-0.6243042945861816,-0.25106561183929443,-0.4703662395477295
1782778809345788000,3.259787841796875,-0.4648684561252594,-0.2828305959701538,-0.4703662395477295
1782778809355745000,3.2697451171875,-0.29504790902137756,-0.3738495409488678,-0.475253164768219
1782778809365775600,3.279775634765625,-0.17837265133857727,-0.5345070958137512,-0.4660901725292206
1782778809375764500,3.289764404296875,-0.1472185254096985,-0.665232241153717,-0.43615779280662537
1782778809385766700,3.2997666015625,-0.1820378452539444,-0.6725626587867737,-0.4190535545349121
1782778809395753700,3.309753662109375,-0.2981022298336029,-0.46303585171699524,-0.3836233615875244
1782778809405786400,3.319786376953125,-0.4801400899887085,-0.04214970022439957,-0.22357667982578278
1782778809415742700,3.32974267578125,-0.66584312915802,0.38117989897727966,0.07941248267889023
1782778809425774300,3.3397744140625,-0.8692612648010254,0.5742133259773254,0.504574716091156
1782778809435762200,3.34976220703125,-0.9651671051979065,0.5919284224510193,1.053742527961731
1782778809445762000,3.359761962890625,-0.9297369122505188,0.45875978469848633,1.5106697082519531
1782778809455751400,3.36975146484375,-0.7623597979545593,0.2968805134296417,1.6945401430130005
1782778809465784000,3.3797841796875,-0.40683624148368835,0.14905111491680145,1.4770721197128296
1782778809475740200,3.389740234375,-0.26572638750076294,0.18081611394882202,1.0512990951538086
1782778809485770800,3.399770751953125,-0.2730567753314972,0.23579397797584534,0.4948008358478546
1782778809495719200,3.40971923828125,-0.3732386529445648,0.3585779070854187,-0.06352998316287994
1782778809505851400,3.419851318359375,-0.5082398653030396,0.49724429845809937,-0.5192354321479797
1782778809515708200,3.429708251953125,-0.6304129362106323,0.5442809462547302,-0.8008443117141724
1782778809525840400,3.43984033203125,-0.6633996367454529,0.5479460954666138,-0.8991936445236206
1782778809536528600,3.450528564453125,-0.6017022728919983,0.47708576917648315,-0.856433093547821
1782778809555757300,3.46975732421875,-0.24556782841682434,0.2889392673969269,-0.5094616413116455
1782778809565759200,3.47975927734375,-0.04153883829712868,0.2125810980796814,-0.2669481039047241
1782778809575746300,3.489746337890625,0.15027284622192383,0.16798794269561768,-0.059864792972803116
1782778809585779000,3.499779052734375,0.29993483424186707,0.21563543379306793,0.05864306539297104
1782778809595765800,3.509765869140625,0.4129449129104614,0.2926044464111328,0.11362093687057495
1782778809605766100,3.51976611328125,0.4764748811721802,0.34697145223617554,0.15454891324043274
1782778809615755000,3.529755126953125,0.4642575979232788,0.3543018400669098,0.2168571650981903
1782778809625785300,3.539785400390625,0.423329621553421,0.2974913716316223,0.3170390725135803
1782778809635701000,3.549700927734375,0.3885102868080139,0.1966986060142517,0.42638394236564636
1782778809645776600,3.559776611328125,0.37079519033432007,0.07391469180583954,0.5253441333770752
1782778809655763500,3.569763427734375,0.34086281061172485,-0.039706241339445114,0.607810914516449
1782778809665765600,3.579765625,0.2840523421764374,-0.11484266817569733,0.6383541822433472
1782778809675752400,3.58975244140625,0.2217440903186798,-0.10690141469240189,0.608421802520752
1782778809685815300,3.599815185546875,0.16554448008537292,-0.036651913076639175,0.5369505286216736
1782778809695942400,3.6099423828125,0.11239920556545258,0.039706241339445114,0.4404338300228119
1782778809705774000,3.619774169921875,0.06658431142568588,0.13866640627384186,0.3597996234893799
1782778809715761200,3.62976123046875,0.0555887371301651,0.1973094791173935,0.31093040108680725
1782778809725893600,3.6398935546875,0.08735372871160507,0.1765400618314743,0.3121521472930908
1782778809735750100,3.649750244140625,0.12461651116609573,0.07269296050071716,0.3335324227809906
1782778809745782800,3.65978271484375,0.15332718193531036,-0.013439035043120384,0.36529740691185
1782778809755750400,3.66975048828125,0.21868975460529327,0.00733038317412138,0.41599923372268677
1782778809765783000,3.679782958984375,0.3017674386501312,0.07513642311096191,0.44165557622909546
1782778809775769900,3.689769775390625,0.36651915311813354,0.1111774742603302,0.4031710624694824
1782778809785769700,3.699769775390625,0.40133845806121826,0.07635815441608429,0.34697145223617554
1782778809795759000,3.709759033203125,0.45142942667007446,-0.0012217304902151227,0.3927863538265228
1782778809805758700,3.7197587890625,0.53328537940979,0.016493361443281174,0.5326744914054871
1782778809815836400,3.72983642578125,0.6591235995292664,0.33475416898727417,0.6633996367454529
1782778809825779000,3.739779052734375,0.837496280670166,0.8344419002532959,0.7177666425704956
1782778809835767000,3.74976708984375,1.0317513942718506,1.1630873680114746,0.7470881938934326
1782778809845767200,3.75976708984375,1.2767083644866943,1.3542882204055786,0.8631525635719299
1782778809855847700,3.76984765625,1.4135421514511108,1.4850133657455444,0.9236282706260681
1782778809865756200,3.779756103515625,1.228450059890747,1.0946705341339111,0.655458390712738
1782778809875836700,3.789836669921875,0.8240572214126587,0.24007004499435425,0.22052235901355743
1782778809885776400,3.7997763671875,0.5485569834709167,-0.6731734871864319,-0.11239920556545258
1782778809896670000,3.810669921875,0.4001167416572571,-1.4288138151168823,-0.2767219543457031
1782778809915754200,3.829754150390625,0.4080579876899719,-1.415374755859375,-0.1820378452539444
1782778809925753900,3.83975390625,0.35674530267715454,-0.7147123217582703,0.08368854224681854
1782778809935834400,3.84983447265625,0.27550023794174194,-0.12828169763088226,0.18387043476104736
1782778809945774300,3.8597744140625,0.15515977144241333,0.2834414839744568,-0.03848451003432274
1782778809955762700,3.8697626953125,0.0861319974064827,0.6316346526145935,-0.3933972120285034
1782778809965793800,3.879793701171875,0.056810468435287476,0.7049384713172913,-0.7385360598564148
1782778809975751700,3.889751708984375,0.025045474991202354,0.48380526900291443,-1.0512990951538086
1782778809985782500,3.899782470703125,0.05742133408784866,-0.01710422709584236,-1.2113457918167114
1782778809995771400,3.909771484375,0.192422553896904,-0.8649851679801941,-1.0183123350143433
1782778810005772500,3.9197724609375,0.4544837474822998,-1.813048005104065,-0.35185837745666504
1782778810015760100,3.929760009765625,0.7739662528038025,-2.5998425483703613,0.5314527750015259
1782778810025790700,3.939790771484375,0.8686503767967224,-3.160616874694824,1.235169529914856
1782778810035749000,3.9497490234375,0.5766568183898926,-3.381139039993286,1.5717562437057495
1782778810045748700,3.959748779296875,0.11667526513338089,-3.057380437850952,1.444696307182312
1782778810056779300,3.970779296875,-0.16004669666290283,-2.2705860137939453,0.9743300676345825
1782778810075757800,3.9897578125,-0.15821409225463867,0.018325956538319588,-0.1514945775270462
1782778810085790500,3.99979052734375,-0.03726277872920036,0.9474520087242126,-0.4605923891067505
1782778810095777300,4.00977734375,0.054367005825042725,1.4098769426345825,-0.5009095072746277
1782778810105779500,4.019779541015625,0.1014036312699318,1.493565559387207,-0.3139847218990326
1782778810115766300,4.029766357421875,0.07696902006864548,1.3017538785934448,0.033597588539123535
1782778810125798700,4.039798583984375,0.01160643994808197,0.9608910083770752,0.3805690407752991
1782778810135755300,4.04975537109375,-0.039095375686883926,0.5748242139816284,0.5815436840057373
1782778810145785900,4.059785888671875,-0.07330382615327835,0.3781255781650543,0.626747727394104
1782778810155775000,4.06977490234375,-0.1569923609495163,0.3579670190811157,0.5125159621238708
1782778810165774300,4.0797744140625,-0.2620611786842346,0.4697553813457489,0.2590068578720093
1782778810175764000,4.089763916015625,-0.49296826124191284,0.7073819637298584,-0.24129177629947662
1782778810185795600,4.099795654296875,-0.6352998614311218,0.9266825914382935,-0.7947356700897217
1782778810195753000,4.1097529296875,-0.6499606370925903,0.9676105380058289,-1.2858713865280151
1782778810205752600,4.119752685546875,-0.6579018831253052,0.8741481900215149,-1.5515977144241333
1782778810215833300,4.129833251953125,-0.7971791625022888,0.7391469478607178,-1.5711454153060913
1782778810225741600,4.139741455078125,-1.0824532508850098,0.7568620443344116,-1.4343116283416748
1782778810235822300,4.149822265625,-1.2651019096374512,0.7837401032447815,-1.1184942722320557
1782778810245793500,4.15979345703125,-1.2596040964126587,0.8155050873756409,-0.6591235995292664
1782778810255709700,4.169709716796875,-1.1954632997512817,0.9059131741523743,-0.1966986060142517
1782778810265811000,4.17981103515625,-1.1496484279632568,1.0488556623458862,0.22907446324825287
1782778810275831000,4.1898310546875,-1.1032226085662842,1.150259256362915,0.5479460954666138
1782778810285769700,4.199769775390625,-1.0335839986801147,1.3066407442092896,0.7452555894851685
1782778810295758800,4.2097587890625,-0.93095862865448,1.3823879957199097,0.8326093554496765
1782778810305793800,4.219793701171875,-0.7538077235221863,1.423926830291748,0.8161159753799438
1782778810315931000,4.229930908203125,-0.3072652220726013,1.3365731239318848,0.6298020482063293
1782778810325888300,4.23988818359375,0.05314527451992035,1.2699888944625854,0.3646865487098694
1782778810335767600,4.249767578125,0.3591887652873993,1.0616837739944458,0.054367005825042725
1782778810345800000,4.259800048828125,0.5736024379730225,0.9932668805122375,-0.30054569244384766
1782778810355865900,4.269865966796875,0.6133087277412415,1.1838568449020386,-0.6426302194595337
1782778810365789200,4.2797890625,0.5247332453727722,1.55892813205719,-0.8979719281196594
1782778810375776000,4.28977587890625,0.3891211748123169,1.8008307218551636,-1.130711555480957
1782778810385775900,4.29977587890625,0.2993239760398865,1.7605136632919312,-1.3939944505691528
1782778810395477500,4.3094775390625,0.23151792585849762,1.4721852540969849,-1.7366899251937866
1782778810405764900,4.319764892578125,0.16859880089759827,0.7929030656814575,-2.1337523460388184
1782778810415754000,4.32975390625,0.182648703455925,0.304210901260376,-2.6590964794158936
1782778810425784600,4.33978466796875,0.3585779070854187,-0.152105450630188,-2.8484647274017334
1782778810435773700,4.349773681640625,0.6120869517326355,-0.06658431142568588,-2.64138126373291
1782778810445774800,4.35977490234375,0.7837401032447815,0.07513642311096191,-2.1154263019561768
1782778810455762700,4.3697626953125,0.7611380815505981,0.34574973583221436,-1.443474531173706
1782778810465794300,4.379794189453125,0.6646214127540588,0.7574729323387146,-0.7929030656814575
1782778810475751700,4.389751708984375,0.5925393104553223,1.0500773191452026,-0.19608774781227112
1782778810485782000,4.399781982421875,0.8069530129432678,0.6304129362106323,0.26145032048225403
1782778810495771400,4.409771484375,1.3194689750671387,-0.29993483424186707,0.45692721009254456
1782778810515760000,4.429760009765625,1.4917329549789429,-0.09162978827953339,2.007303237915039
1782778810525791200,4.439791259765625,1.3713924884796143,0.2370157092809677,2.084882974624634
1782778810535749000,4.4497490234375,0.9682214260101318,0.4337143301963806,1.642616629600525
1782778810545780500,4.459780517578125,0.38240164518356323,0.23090706765651703,1.0726794004440308
1782778810555768600,4.4697685546875,0.13988813757896423,-0.38240164518356323,0.6450737118721008
1782778810565769700,4.479769775390625,0.18997909128665924,-1.0952813625335693,0.4056145250797272
1782778810575757800,4.4897578125,0.2620611786842346,-1.6725490093231201,0.38606682419776917
1782778810585789200,4.4997890625,0.31642818450927734,-1.99447500705719,0.4386012554168701
1782778810595777300,4.50977734375,0.25595253705978394,-2.177734613418579,0.35552358627319336
1782778810605746400,4.519746337890625,-0.20952677726745605,-1.8918496370315552,0.18020524084568024
1782778810615827500,4.529827392578125,-0.7483099102973938,-1.1496484279632568,0.07941248267889023
1782778810625798000,4.5397978515625,-1.0219775438308716,-0.3445279896259308,-0.048258353024721146
1782778810635755300,4.54975537109375,-0.9841039180755615,0.23884831368923187,-0.1722639948129654
1782778810645755000,4.5597548828125,-0.7819074988365173,0.3066543638706207,-0.2528982162475586
1782778810657232400,4.571232421875,-0.6572909951210022,-0.4893030524253845,-0.33719760179519653
1782778810675764000,4.589763916015625,-0.778853178024292,-1.7702875137329102,-0.3878994286060333
1782778810685794000,4.5997939453125,-0.8405506014823914,-2.702467918395996,-0.46731191873550415
1782778810696408600,4.61040869140625,-0.6572909951210022,-3.779423236846924,-0.5662720799446106
1782778810715772200,4.629772216796875,-0.5827654600143433,-3.6786305904388428,-0.6878342628479004
1782778810725773000,4.63977294921875,-0.4184426963329315,-3.0024027824401855,-0.9138544201850891
1782778810735761400,4.649761474609375,-0.05314527451992035,-1.4501941204071045,-1.1172724962234497
1782778810745792000,4.6597919921875,-0.03298672288656235,-0.3628539443016052,-0.8949176073074341
1782778810755750400,4.66975048828125,-0.10384709388017654,0.4398229718208313,-0.41172316670417786
1782778810765782000,4.679781982421875,-0.11484266817569733,0.797789990901947,0.14049901068210602
1782778810775770000,4.68977001953125,-0.02015855349600315,0.7806857824325562,0.5528330206871033
1782778810785772000,4.69977197265625,0.12400564551353455,0.5308418869972229,0.7745771408081055
1782778810795758800,4.7097587890625,0.07696902006864548,0.13500121235847473,0.7745771408081055
1782778810805791500,4.71979150390625,-0.09224065393209457,-0.16432274878025055,0.618195652961731
1782778810815744800,4.729744873046875,-0.12095131725072861,-0.21563543379306793,0.4086688458919525
1782778810825400000,4.739400146484375,-0.05314527451992035,-0.11484266817569733,0.17592918872833252
1782778810835767000,4.74976708984375,-0.04581489413976669,0.10018189996480942,-0.0757472887635231
1782778810845797600,4.759797607421875,-0.1160643994808197,0.37568211555480957,-0.3500257730484009
1782778810855864300,4.7698642578125,-0.22602014243602753,0.6511823534965515,-0.6126978397369385
1782778810865787400,4.779787353515625,-0.3396410644054413,0.8491026759147644,-0.7922922372817993
1782778810875775500,4.789775390625,-0.4184426963329315,0.9193521738052368,-0.8417723178863525
1782778810885776000,4.79977587890625,-0.49846604466438293,0.9083566069602966,-0.7929030656814575
1782778810895764500,4.809764404296875,-0.616973876953125,0.7648032903671265,-0.675616979598999
1782778810905796400,4.81979638671875,-0.6798930168151855,0.6579018831253052,-0.4709770977497101
1782778810915754000,4.82975390625,-0.6823364496231079,0.6585127115249634,-0.29077184200286865
1782778810925753900,4.83975390625,-0.627358615398407,0.7415903806686401,-0.1722639948129654
1782778810935794000,4.8497939453125,-0.5149593949317932,0.8723155856132507,-0.12034045159816742
1782778810945867300,4.8598671875,-0.41111230850219727,0.8857545852661133,-0.0910189226269722
1782778810955762700,4.8697626953125,-0.35246923565864563,0.9224064946174622,-0.06719517707824707
1782778810965762300,4.87976220703125,-0.2871066629886627,1.1087204217910767,-0.09224065393209457
1782778810977122800,4.891122802734375,-0.2828305959701538,1.2388347387313843,-0.21441370248794556
1782778810995880200,4.909880126953125,-0.22052235901355743,0.8808676600456238,-0.3017674386501312
1782778811005775400,4.919775390625,-0.35124751925468445,0.5412266254425049,-0.2828305959701538
1782778811015625200,4.929625244140625,-0.4612032473087311,0.2791654169559479,-0.24984388053417206
1782778811025760300,4.93976025390625,-0.42760565876960754,0.15454891324043274,-0.18936823308467865
1782778811035708700,4.949708740234375,-0.2571742534637451,0.17776179313659668,-0.07635815441608429
1782778811045810000,4.959809814453125,-0.09957103431224823,0.45204028487205505,0.08735372871160507
1782778811056618200,4.9706181640625,-0.07635815441608429,0.7250970602035522,0.2321287989616394
1782778811075757800,4.9897578125,-0.18081611394882202,0.6298020482063293,0.49296826124191284
1782778811085788000,4.999787841796875,-0.14477506279945374,0.4715879559516907,0.694553792476654
1782778811096387000,5.010386962890625,0.014049900695681572,0.4746423065662384,0.788627028465271
1782778811115766300,5.029766357421875,0.5088507533073425,1.0629055500030518,0.3445279896259308
1782778811125798000,5.0397978515625,0.6615670323371887,0.7086036801338196,0.30482175946235657
1782778811135755300,5.04975537109375,0.6035348773002625,0.48197266459465027,0.19425514340400696
1782778811155774700,5.069774658203125,1.1062769889831543,0.8301658630371094,0.15943582355976105
1782778811165776000,5.07977587890625,1.3646728992462158,0.9126327037811279,0.3286454975605011
1782778811175763700,5.089763671875,1.4929546117782593,0.8881980776786804,0.7385360598564148
1782778811185795300,5.09979541015625,1.4605787992477417,0.7098253965377808,1.2370021343231201
1782778811195752700,5.109752685546875,1.2663236856460571,0.394008070230484,1.587027907371521
1782778811205786000,5.1197861328125,0.9517280459403992,-0.19792033731937408,1.5717562437057495
1782778811215772200,5.129772216796875,0.5204572081565857,-1.06657075881958,1.1545352935791016
1782778811225775000,5.139775146484375,0.1111774742603302,-1.901012659072876,0.5668829679489136
1782778811235761400,5.149761474609375,-0.1765400618314743,-2.506380081176758,-0.10323622822761536
1782778811245792500,5.15979248046875,-0.4355469346046448,-2.869844913482666,-0.8491026759147644
1782778811255750400,5.16975048828125,-0.7360926270484924,-2.993239641189575,-1.7067575454711914
1782778811265782300,5.1797822265625,-1.0464121103286743,-2.81181263923645,-2.4678955078125
1782778811275769900,5.189769775390625,-0.9773843884468079,-2.1374175548553467,-2.750115394592285
1782778811285771000,5.19977099609375,-0.41233405470848083,-1.2290608882904053,-2.524095296859741
1782778811295758800,5.2097587890625,0.09162978827953339,-0.6010913848876953,-1.9437731504440308
1782778811305790700,5.219790771484375,0.21624629199504852,-0.42760565876960754,-1.2308934926986694
1782778811315747800,5.229747802734375,0.10384709388017654,-0.7855727076530457,-0.7061602473258972
1782778811325778700,5.23977880859375,-0.15454891324043274,-1.2962560653686523,-0.4392121136188507
1782778811335767300,5.249767333984375,-0.6224716901779175,-1.855197787284851,-0.3897320330142975
1782778811345800000,5.259800048828125,-1.1820242404937744,-2.298074960708618,-0.4764748811721802
1782778811355756500,5.269756591796875,-1.5387696027755737,-2.5271494388580322,-0.5876523852348328
1782778811365788200,5.2797880859375,-1.5454890727996826,-2.465452194213867,-0.588263213634491
1782778811375776000,5.28977587890625,-1.2577714920043945,-2.0256290435791016,-0.4331034719944
1782778811385776000,5.299776123046875,-0.8356636762619019,-1.3408491611480713,-0.22663100063800812
1782778811395765200,5.30976513671875,-0.46670106053352356,-0.6524040699005127,-0.08307767659425735
1782778811405795600,5.319795654296875,-0.19792033731937408,-0.08552113175392151,-0.025656340643763542
1782778811415754200,5.329754150390625,-0.009162978269159794,0.26083946228027344,0.03787364438176155
1782778811425784600,5.33978466796875,0.0806342139840126,0.4331034719944,0.10995574295520782
1782778811435773400,5.3497734375,0.09896016865968704,0.5998696684837341,0.1875356286764145
1782778811445775600,5.359775634765625,0.060475658625364304,0.7379252314567566,0.2626720666885376
1782778811455762700,5.3697626953125,0.010995574295520782,0.7202101349830627,0.26633724570274353
1782778811465792800,5.379792724609375,0.05497787147760391,0.6126978397369385,0.19547687470912933
1782778811475751700,5.389751708984375,0.192422553896904,0.5204572081565857,0.10201449692249298
1782778811485782000,5.399781982421875,0.3433062732219696,0.49235737323760986,0.036041051149368286
1782778811495771100,5.409771240234375,0.384845107793808,0.5626068711280823,-0.10323622822761536
1782778811505771300,5.419771240234375,0.43737950921058655,0.5992587804794312,-0.24862214922904968
1782778811515760000,5.429760009765625,0.43188172578811646,0.6041457056999207,-0.38667771220207214
1782778811525791200,5.439791259765625,0.3536909818649292,0.5619960427284241,-0.48808133602142334
1782778811535749000,5.4497490234375,0.252287358045578,0.5247332453727722,-0.5406157374382019
1782778811545780700,5.45978076171875,0.18631389737129211,0.5583308339118958,-0.5705481171607971
1782778811555768600,5.4697685546875,0.18020524084568024,0.6542366743087769,-0.5864306092262268
1782778811565768700,5.479768798828125,0.22357667982578278,0.7415903806686401,-0.5522221922874451
1782778811575757600,5.489757568359375,0.29993483424186707,0.8087855577468872,-0.3891211748123169
1782778811585788200,5.4997880859375,0.4447098970413208,0.7012733221054077,-0.0024434609804302454
1782778811595777300,5.50977734375,0.5595525503158569,0.6151412725448608,0.23884831368923187
1782778811605777000,5.51977685546875,0.617584764957428,0.5723807215690613,0.3995058834552765
1782778811615766300,5.529766357421875,0.588263213634491,0.5974262356758118,0.4691445231437683
1782778811625799000,5.539798828125,0.5051855444908142,0.6762278079986572,0.48685958981513977
1782778811635755300,5.54975537109375,0.4105014503002167,0.7147123217582703,0.46547931432724
1782778811645788000,5.559787841796875,0.31581732630729675,0.6505714654922485,0.4153883755207062
1782778811655774700,5.569774658203125,0.25045475363731384,0.5308418869972229,0.35613444447517395
1782778811665777400,5.57977734375,0.23884831368923187,0.4300491213798523,0.2816088795661926
1782778811675327200,5.5893271484375,0.2724458873271942,0.3390302062034607,0.1820378452539444
1782778811685763600,5.599763671875,0.34147366881370544,0.3604104816913605,0.07880161702632904
1782778811696691000,5.61069091796875,0.3854559659957886,0.47830748558044434,-0.006719517521560192
1782778811715772400,5.6297724609375,0.2474004179239273,0.7586946487426758,0.03787364438176155
1782778811725800400,5.639800537109375,0.1514945775270462,0.7409795522689819,0.15454891324043274
1782778811735761400,5.649761474609375,0.07330382615327835,0.4966334402561188,0.2535090744495392
1782778811745793300,5.659793212890625,0.08185594528913498,0.1716531366109848,0.34086281061172485
1782778811755750400,5.66975048828125,0.16065755486488342,-0.039706241339445114,0.5186246037483215
1782778811765782000,5.679781982421875,0.20525072515010834,-0.12889257073402405,0.7770205736160278
1782778811775769900,5.689769775390625,0.2883284091949463,-0.001832595793530345,1.2260065078735352
1782778811795758800,5.7097587890625,0.4605923891067505,0.7715228199958801,2.2547035217285156
1782778811805790700,5.719790771484375,0.45265114307403564,0.9334021210670471,2.5815165042877197
1782778811815744800,5.729744873046875,0.42271876335144043,0.5644394755363464,2.556471109390259
1782778811825778400,5.7397783203125,0.3078760802745819,-0.07391469180583954,2.3164010047912598
1782778811835767000,5.74976708984375,0.20830504596233368,-0.6774495840072632,2.007303237915039
1782778811845798100,5.759798095703125,0.1319468915462494,-0.9541715383529663,1.6627751588821411
1782778811855756000,5.769756103515625,0.009773843921720982,-1.0403034687042236,1.2870930433273315
1782778811865787100,5.779787109375,-0.06719517707824707,-0.8900306820869446,1.189354658126831
1782778811875775500,5.789775390625,-0.21624629199504852,-0.5907067060470581,1.3164145946502686
1782778811885775600,5.799775634765625,-0.46670106053352356,-0.6505714654922485,1.378722906112671
1782778811895764500,5.809764404296875,-0.8148942589759827,-1.0207557678222656,1.2125675678253174
1782778811905795000,5.819795166015625,-1.2180652618408203,-1.5699236392974854,0.6927211880683899
1782778811915754000,5.82975390625,-1.5051720142364502,-2.0024163722991943,0.04398229718208313
1782778811925785900,5.839785888671875,-1.4624114036560059,-2.1795670986175537,-0.3830125033855438
1782778811935773400,5.8497734375,-1.1753047704696655,-1.985922932624817,-0.5143485069274902
1782778811945774600,5.859774658203125,-0.8313875794410706,-1.788002610206604,-0.484416127204895
1782778811955762700,5.8697626953125,-0.5455026626586914,-1.786780834197998,-0.42760565876960754
1782778811965793000,5.87979296875,-0.36102136969566345,-2.0140228271484375,-0.42699480056762695
1782778811975751700,5.889751708984375,-0.3243694305419922,-2.2394320964813232,-0.5375614166259766
1782778811985784300,5.899784423828125,-0.45265114307403564,-2.1508564949035645,-0.7434229850769043
1782778811995771100,5.909771240234375,-0.6585127115249634,-1.7629570960998535,-1.0256427526474
1782778812005771000,5.91977099609375,-0.8924741148948669,-0.9260717034339905,-1.4703526496887207
1782778812015760000,5.929759765625,-0.836885392665863,-0.45692721009254456,-1.6071864366531372
1782778812025790700,5.939790771484375,-0.6585127115249634,-0.17470745742321014,-1.560760736465454
1782778812035749000,5.9497490234375,-0.44837507605552673,-0.10995574295520782,-1.3536773920059204
1782778812045779700,5.95977978515625,-0.24190263450145721,-0.13439035415649414,-1.0122036933898926
1782778812055768600,5.9697685546875,-0.1264491081237793,-0.20036379992961884,-0.6291912198066711
1782778812065770000,5.97977001953125,-0.09957103431224823,-0.2370157092809677,-0.3225368559360504
1782778812075757800,5.9897578125,-0.07513642311096191,-0.1270599663257599,-0.09285151958465576
1782778812085789000,5.999788818359375,-0.04948008432984352,0.1514945775270462,0.03237585723400116
1782778812095777500,6.009777587890625,-0.11301007121801376,0.5601634383201599,0.0354301854968071
1782778812105777200,6.019777099609375,-0.12767083942890167,0.8827002644538879,-0.054367005825042725
1782778812115766300,6.029766357421875,-0.13805554807186127,1.0268645286560059,-0.21135938167572021
1782778812125796900,6.039796875,-0.21502456068992615,0.8900306820869446,-0.3982841372489929
1782778812135755300,6.04975537109375,-0.16737708449363708,0.7244861721992493,-0.5595525503158569
1782778812145785900,6.059785888671875,-0.04886921867728233,0.5717698931694031,-0.7195992469787598
1782778812155775000,6.06977490234375,0.03848451003432274,0.42577308416366577,-0.8283332586288452
1782778812165774800,6.07977490234375,0.10262536257505417,0.3341432809829712,-0.8735373020172119
1782778812175763700,6.089763671875,0.11972958594560623,0.3530801236629486,-0.8869763612747192
1782778812185794800,6.099794921875,0.11301007121801376,0.4489859640598297,-0.8600982427597046
1782778812195753000,6.1097529296875,0.09896016865968704,0.5253441333770752,-0.7293730974197388
1782778812205784600,6.11978466796875,0.0861319974064827,0.5436700582504272,-0.5290092825889587
1782778812215772200,6.129772216796875,0.07819075137376785,0.4795292317867279,-0.31581732630729675
1782778812225773600,6.139773681640625,0.08857546001672745,0.3799581825733185,-0.11911872029304504
1782778812235761400,6.149761474609375,0.11850785464048386,0.304210901260376,0.04764748737215996
1782778812245793000,6.15979296875,0.14294247329235077,0.2834414839744568,0.1508837193250656
1782778812255750400,6.16975048828125,0.17348572611808777,0.3384193480014801,0.192422553896904
1782778812265781000,6.179781005859375,0.18936823308467865,0.46303585171699524,0.20830504596233368
1782778812275770000,6.18977001953125,0.15515977144241333,0.608421802520752,0.21624629199504852
1782778812285770000,6.19977001953125,0.07757988572120667,0.7147123217582703,0.20952677726745605
1782778812295758800,6.2097587890625,0.01466076634824276,0.7916813492774963,0.21930062770843506
1782778812305790000,6.2197900390625,-0.01160643994808197,0.8155050873756409,0.2431243658065796
1782778812315747800,6.229747802734375,0.004886921960860491,0.8332201838493347,0.27977627515792847
1782778812325778400,6.2397783203125,0.07513642311096191,0.8741481900215149,0.3072652220726013
1782778812335767300,6.249767333984375,0.1258382350206375,0.8753699064254761,0.303600013256073
1782778812345798100,6.259798095703125,0.11484266817569733,0.8020660877227783,0.31581732630729675
1782778812355756500,6.269756591796875,0.056810468435287476,0.7073819637298584,0.34208452701568604
1782778812365788200,6.2797880859375,-0.033597588539123535,0.6395758986473083,0.41172316670417786
1782778812375776000,6.28977587890625,-0.04948008432984352,0.7275404930114746,0.6499606370925903
1782778812385777200,6.299777099609375,-0.012217304669320583,0.836885392665863,0.9065240025520325
1782778812395765000,6.309764892578125,-0.021380282938480377,0.6982190012931824,0.9914342761039734
1782778812405796900,6.319796875,-0.02687807008624077,0.4050036668777466,1.0012081861495972
1782778812415754000,6.32975390625,0.01710422709584236,0.006108652334660292,0.9590584635734558
1782778812425784800,6.339784912109375,0.045204028487205505,-0.34025195240974426,0.8796459436416626
1782778812435773700,6.349773681640625,-0.05192354694008827,-0.28649580478668213,1.014647126197815
1782778812445773300,6.359773193359375,-0.22357667982578278,-0.484416127204895,1.205847978591919
1782778812455762400,6.369762451171875,-0.46731191873550415,-0.9224064946174622,1.1924089193344116
1782778812465794600,6.379794677734375,-0.5540547966957092,-1.1374311447143555,0.9633345007896423
1782778812475751700,6.389751708984375,-0.3280346393585205,-0.7605272531509399,0.7110471725463867
1782778812485782500,6.399782470703125,0.1160643994808197,-0.1508837193250656,0.5937610268592834
1782778812495771100,6.409771240234375,0.4544837474822998,0.0659734457731247,0.6090326309204102
1782778812515760000,6.429760009765625,0.21868975460529327,-0.7379252314567566,1.0097602605819702
1782778812525791200,6.439791259765625,-0.25473082065582275,-1.4184291362762451,1.1258246898651123
1782778812535749000,6.4497490234375,-0.5949827432632446,-1.9462167024612427,0.978606104850769
1782778812545779700,6.45977978515625,-0.7727445363998413,-2.255314588546753,0.42088615894317627
1782778812555768600,6.4697685546875,-0.941343367099762,-2.1697933673858643,-0.5577199459075928
1782778812565768700,6.479768798828125,-1.0616837739944458,-1.5387696027755737,-1.568701982498169
1782778812575788300,6.489788330078125,-0.940732479095459,-0.6957755088806152,-2.1062633991241455
1782778812585789400,6.49978955078125,-0.7507534027099609,-0.10690141469240189,-2.0060815811157227
1782778812595777500,6.509777587890625,-0.6346889734268188,-0.08674286305904388,-1.4190399646759033
1782778812605778400,6.5197783203125,-0.6579018831253052,-0.5357288122177124,-0.6939429044723511
1782778812615766300,6.529766357421875,-0.7843509912490845,-1.0195341110229492,-0.12889257073402405
1782778812625796900,6.539796875,-0.9468411207199097,-1.2602150440216064,0.15393804013729095
1782778812635755300,6.54975537109375,-1.06351637840271,-1.1722503900527954,0.11239920556545258
1782778812645755000,6.5597548828125,-1.0806206464767456,-0.769079327583313,-0.18081611394882202
1782778812656709000,6.570709228515625,-0.9676105380058289,-0.2669481039047241,-0.5943718552589417
1782778812675764000,6.589763916015625,-0.5076290369033813,0.484416127204895,-1.147204875946045
1782778812685796600,6.599796630859375,-0.34208452701568604,0.5064072608947754,-1.1850786209106445
1782778812695752700,6.609752685546875,-0.1417207419872284,0.3543018400669098,-0.9859365224838257
1782778812705785600,6.61978564453125,0.05314527451992035,0.2528982162475586,-0.6444628238677979
1782778812715772400,6.6297724609375,0.13561208546161652,0.20402899384498596,-0.2987131178379059
1782778812725741600,6.639741455078125,0.1918116807937622,0.23579397797584534,0.03298672288656235
1782778812738270700,6.652270751953125,0.2076941877603531,0.3384193480014801,0.4190535545349121
1782778812755750400,6.66975048828125,0.07757988572120667,0.2981022298336029,0.5448917746543884
1782778812765781200,6.67978125,0.10995574295520782,0.27611109614372253,0.42577308416366577
1782778812775729400,6.6897294921875,0.1563815027475357,0.2681698501110077,0.14905111491680145
1782778812785891600,6.6998916015625,0.1716531366109848,0.2571742534637451,-0.18814650177955627
1782778812795820000,6.709820068359375,0.17348572611808777,0.19975294172763824,-0.5320636034011841
1782778812805791500,6.71979150390625,0.16920967400074005,0.1062905490398407,-0.8106181621551514
1782778812815744800,6.729744873046875,0.18448130786418915,0.03176499158143997,-0.9590584635734558
1782778812825778200,6.739778076171875,0.18936823308467865,-0.039706241339445114,-0.9902125597000122
1782778812835726800,6.749726806640625,0.2028072625398636,-0.06414084881544113,-0.9175195693969727
1782778812845797600,6.759797607421875,0.24007004499435425,-0.09896016865968704,-0.656680166721344
1782778812856759600,6.770759521484375,0.2620611786842346,-0.07208210229873657,-0.46303585171699524
1782778812875735300,6.7897353515625,0.35063666105270386,0.09040805697441101,-0.15332718193531036
1782778812885868800,6.799868896484375,0.35185837745666504,0.1869247704744339,-0.059864792972803116
1782778812895764500,6.809764404296875,0.3695734739303589,0.24678955972194672,0.0012217304902151227
1782778812905795600,6.819795654296875,0.3805690407752991,0.2431243658065796,0.031154127791523933
1782778812915754000,6.82975390625,0.3805690407752991,0.21991148591041565,0.02321287989616394
1782778812925787400,6.839787353515625,0.40072759985923767,0.2370157092809677,0.007941247895359993
1782778812935773400,6.8497734375,0.4331034719944,0.26939156651496887,0.039095375686883926
1782778812945776400,6.8597763671875,0.4355469346046448,0.26022860407829285,0.12828169763088226
1782778812955762400,6.869762451171875,0.42149701714515686,0.22113321721553802,0.251676470041275
1782778812965795600,6.879795654296875,0.3982841372489929,0.19975294172763824,0.3549126982688904
1782778812975751700,6.889751708984375,0.35063666105270386,0.1368338167667389,0.42760565876960754
1782778812985893400,6.899893310546875,0.2626720666885376,0.08918632566928864,0.4917465150356293
1782778812995741000,6.909740966796875,0.1918116807937622,0.0403171069920063,0.5143485069274902
1782778813005773800,6.91977392578125,0.21074850857257843,-0.0012217304902151227,0.5106833577156067
1782778813015760000,6.929759765625,0.30054569244384766,-0.05192354694008827,0.4960225820541382
1782778813025790700,6.939790771484375,0.39095374941825867,-0.11056660860776901,0.485027015209198
1782778813035749000,6.9497490234375,0.4282165467739105,-0.16737708449363708,0.5161811113357544
1782778813045779700,6.95977978515625,0.42699480056762695,-0.23884831368923187,0.5229006409645081
1782778813055768600,6.9697685546875,0.39645153284072876,-0.3793473243713379,0.46242499351501465
1782778813065768700,6.979768798828125,0.31031954288482666,-0.44837507605552673,0.37751471996307373
1782778813075757800,6.9897578125,0.2590068578720093,-0.39767327904701233,0.3023782968521118
1782778813085789400,6.99978955078125,0.32009339332580566,-0.2431243658065796,0.3536909818649292
1782778813095777300,7.00977734375,0.48258355259895325,-0.024434609338641167,0.4948008358478546
1782778813105777200,7.019777099609375,0.6768386960029602,0.2638937830924988,0.5595525503158569
1782778813115766000,7.02976611328125,0.7898487448692322,0.6530149579048157,0.5406157374382019
1782778813125798100,7.039798095703125,0.8344419002532959,0.9395107626914978,0.6572909951210022
1782778813135755300,7.04975537109375,0.9682214260101318,0.816726803779602,1.0506882667541504
1782778813145785900,7.059785888671875,0.8759807348251343,0.26633724570274353,1.5039502382278442
1782778813155774700,7.069774658203125,0.43737950921058655,-0.3701843321323395,1.643227458000183
1782778813165774800,7.07977490234375,-0.0959058403968811,-0.7898487448692322,1.4886785745620728
1782778813175763700,7.089763671875,-0.46547931432724,-0.911410927772522,1.0280861854553223
1782778813185794300,7.099794189453125,-0.6304129362106323,-0.8759807348251343,0.3127630054950714
1782778813195752700,7.109752685546875,-0.6963863968849182,-0.7134906053543091,-0.6279694437980652
1782778813205783300,7.119783203125,-0.6615670323371887,-0.2724458873271942,-1.6175711154937744
1782778813215772200,7.129772216796875,-0.5962044596672058,0.4355469346046448,-2.295020818710327
1782778813225773600,7.139773681640625,-0.5247332453727722,0.9969320893287659,-2.3829853534698486
1782778813235761400,7.149761474609375,-0.4502076804637909,1.102611780166626,-1.8692476749420166
1782778813245761000,7.159760986328125,-0.40133845806121826,0.8503243923187256,-0.969443142414093
1782778813256789800,7.170789794921875,-0.49235737323760986,0.14233160018920898,0.4789183437824249
1782778813275729400,7.1897294921875,-0.8026769161224365,-0.33108896017074585,1.4691308736801147
1782778813285861400,7.199861328125,-0.9132435321807861,-0.2687807083129883,1.4666874408721924
1782778813295758800,7.2097587890625,-0.8912523984909058,-0.02076941914856434,1.2431107759475708
1782778813305789400,7.21978955078125,-0.7709119319915771,0.3188716471195221,0.9065240025520325
1782778813315748000,7.229748046875,-0.5626068711280823,0.6768386960029602,0.5870414972305298
1782778813325780500,7.239780517578125,-0.2822197377681732,0.9327912330627441,0.33658674359321594
1782778813335767300,7.249767333984375,-0.02076941914856434,1.053742527961731,0.20525072515010834
1782778813345800200,7.25980029296875,0.19975294172763824,1.0183123350143433,0.2431243658065796
1782778813355756500,7.269756591796875,0.27977627515792847,0.8894197940826416,0.41172316670417786
1782778813365756200,7.279756103515625,0.21563543379306793,0.7189884185791016,0.617584764957428
1782778813375432000,7.289431884765625,0.07269296050071716,0.5742133259773254,0.7751879692077637
1782778813385775600,7.299775634765625,-0.0659734457731247,0.4648684561252594,0.8662069439888
1782778813395826200,7.309826171875,-0.13500121235847473,0.36224308609962463,0.8698720932006836
1782778813405795600,7.319795654296875,-0.1661553531885147,0.27977627515792847,0.7666358947753906
1782778813415754000,7.32975390625,-0.14905111491680145,0.1966986060142517,0.5943718552589417
1782778813425786400,7.339786376953125,-0.06658431142568588,0.05803219974040985,0.384845107793808
1782778813435773400,7.3497734375,0.051312681287527084,-0.04703662544488907,0.13866640627384186
1782778813445775600,7.359775634765625,0.16982053220272064,-0.08246681094169617,-0.13011430203914642
1782778813455762400,7.369762451171875,0.24190263450145721,-0.09529497474431992,-0.3830125033855438
1782778813465795300,7.37979541015625,0.24923302233219147,-0.08491026610136032,-0.5736024379730225
1782778813475752000,7.389751953125,0.252287358045578,-0.06352998316287994,-0.637132465839386
1782778813485784300,7.399784423828125,0.2626720666885376,-0.018936822190880775,-0.5754350423812866
1782778813495771100,7.409771240234375,0.2822197377681732,0.025045474991202354,-0.4043927788734436
1782778813505771000,7.41977099609375,0.3182607889175415,0.09040805697441101,-0.15821409225463867
1782778813515760000,7.429760009765625,0.3433062732219696,0.16249015927314758,0.10201449692249298
1782778813525792000,7.4397919921875,0.3335324227809906,0.15943582355976105,0.31581732630729675
1782778813535749000,7.4497490234375,0.3182607889175415,0.1563815027475357,0.4184426963329315
1782778813545780000,7.459780029296875,0.31520646810531616,0.2028072625398636,0.413555771112442
1782778813555572700,7.46957275390625,0.3243694305419922,0.25534167885780334,0.36713001132011414
1782778813565769500,7.47976953125,0.323147714138031,0.2681698501110077,0.3066543638706207
1782778813575757800,7.4897578125,0.29993483424186707,0.29565876722335815,0.23029619455337524
1782778813585791000,7.499791015625,0.27550023794174194,0.34758231043815613,0.16004669666290283
1782778813595838500,7.50983837890625,0.26022860407829285,0.44226643443107605,0.09407325088977814
1782778813605886500,7.519886474609375,0.26022860407829285,0.5338962078094482,0.03176499158143997
1782778813615766000,7.52976611328125,0.27000242471694946,0.5858197808265686,-0.025045474991202354
1782778813625798100,7.539798095703125,0.2767219543457031,0.5797111392021179,-0.12889257073402405
1782778813635864600,7.549864501953125,0.2718350291252136,0.5393940210342407,-0.23884831368923187
1782778813645788000,7.559787841796875,0.2877175211906433,0.5314527750015259,-0.2883284091949463
1782778813655774700,7.569774658203125,0.34513887763023376,0.5338962078094482,-0.2981022298336029
1782778813665774800,7.57977490234375,0.39706242084503174,0.48258355259895325,-0.26450464129447937
1782778813675763700,7.589763671875,0.38179078698158264,0.3695734739303589,-0.2119702398777008
1782778813685794300,7.599794189453125,0.37262779474258423,0.2822197377681732,-0.16310101747512817
1782778813695752700,7.609752685546875,0.3579670190811157,0.24862214922904968,-0.23945917189121246
1782778813705784600,7.61978466796875,0.3604104816913605,0.24556782841682434,-0.1820378452539444
1782778813715772400,7.6297724609375,0.3591887652873993,0.27611109614372253,0.039095375686883926
1782778813725803800,7.6398037109375,0.384845107793808,0.3378084897994995,0.47769662737846375
1782778813735761400,7.649761474609375,0.4899139404296875,0.3280346393585205,1.0610729455947876
1782778813745792500,7.65979248046875,0.5772676467895508,0.10690141469240189,1.3927727937698364
1782778813755750400,7.66975048828125,0.5436700582504272,-0.24129177629947662,1.3518447875976562
1782778813765781000,7.679781005859375,0.44593164324760437,-0.6334672570228577,0.9999864101409912
1782778813775770000,7.68977001953125,0.33536502718925476,-1.026253581047058,0.3787364661693573
1782778813785770000,7.69977001953125,0.11911872029304504,-1.4899003505706787,-0.4660901725292206
1782778813795759000,7.709759033203125,-0.1160643994808197,-1.7092009782791138,-1.3396275043487549
1782778813805789400,7.71978955078125,-0.2889392673969269,-1.4917329549789429,-2.015244483947754
1782778813815745000,7.7297451171875,-0.43676865100860596,-0.8924741148948669,-2.252260208129883
1782778813825778200,7.739778076171875,-0.5894849896430969,-0.40072759985923767,-2.1337523460388184
1782778813835767000,7.74976708984375,-0.6304129362106323,-0.3029891550540924,-1.7733417749404907
1782778813845829000,7.7598291015625,-0.5259549617767334,-0.5540547966957092,-1.2541064023971558
1782778813855756000,7.769756103515625,-0.39645153284072876,-0.8943067193031311,-0.6743952035903931
1782778813865787400,7.779787353515625,-0.3836233615875244,-1.1740829944610596,-0.17287486791610718
1782778813875775700,7.789775634765625,-0.45204028487205505,-1.3952162265777588,0.11484266817569733
1782778813885776400,7.7997763671875,-0.5143485069274902,-1.5839735269546509,0.17592918872833252
1782778813895764500,7.809764404296875,-0.5265658497810364,-1.701259732246399,0.0354301854968071
1782778813905796000,7.819796142578125,-0.423329621553421,-1.6377297639846802,-0.2571742534637451
1782778813915754200,7.829754150390625,-0.25961771607398987,-1.3542882204055786,-0.5632177591323853
1782778813925785900,7.839785888671875,-0.09834930300712585,-1.0103710889816284,-0.7605272531509399
1782778813935773400,7.8497734375,0.08429940044879913,-0.6878342628479004,-0.789237916469574
1782778813945774600,7.859774658203125,0.3023782968521118,-0.4184426963329315,-0.645684540271759
1782778813955762700,7.8697626953125,0.42210787534713745,-0.18387043476104736,-0.34025195240974426
1782778813965793000,7.87979296875,0.4349360466003418,0.06780604273080826,0.02932153269648552
1782778813975751700,7.889751708984375,0.36224308609962463,0.31642818450927734,0.4153883755207062
1782778813985784300,7.899784423828125,0.1973094791173935,0.4905247986316681,0.8002334833145142
1782778813995771100,7.909771240234375,-0.060475658625364304,0.49785518646240234,1.1258246898651123
1782778814005773300,7.919773193359375,-0.2932153046131134,0.4190535545349121,1.3164145946502686
1782778814015760100,7.929760009765625,-0.32986724376678467,0.3396410644054413,1.309084177017212
1782778814025793000,7.93979296875,-0.2064724564552307,0.32009339332580566,1.1349875926971436
1782778814035749000,7.9497490234375,-0.04886921867728233,0.4288274049758911,0.8686503767967224
1782778814045781800,7.95978173828125,0.08552113175392151,0.6640105247497559,0.5302310585975647
1782778814055768800,7.969768798828125,0.17959438264369965,0.8881980776786804,0.11850785464048386
1782778814065768700,7.979768798828125,0.22113321721553802,0.9388998746871948,-0.3335324227809906
1782778814075757600,7.989757568359375,0.16859880089759827,0.9089674949645996,-0.7043276429176331
1782778814085790500,7.99979052734375,0.08979719132184982,0.8155050873756409,-0.9034696817398071
1782778814095777300,8.00977734375,0.03726277872920036,0.7079927921295166,-0.8894197940826416
1782778814105777200,8.019777099609374,-0.007941247895359993,0.5913175344467163,-0.6914994716644287
1782778814115766300,8.029766357421876,0.05375614017248154,0.4795292317867279,-0.20341812074184418
1782778814125796600,8.039796630859374,0.20525072515010834,0.607810914516449,0.11789698898792267
1782778814135755300,8.04975537109375,0.35063666105270386,0.7825183868408203,0.3445279896259308
1782778814145785900,8.059785888671875,0.4245513379573822,0.9572258591651917,0.485027015209198
1782778814155774700,8.069774658203125,0.455705463886261,1.0739010572433472,0.5662720799446106
1782778814165774800,8.07977490234375,0.5015203952789307,1.1527026891708374,0.5595525503158569
1782778814175764000,8.089763916015626,0.5528330206871033,1.3170254230499268,0.5369505286216736
1782778814185629000,8.09962890625,0.5082398653030396,1.338405728340149,0.5558874011039734
1782778814195752700,8.109752685546875,0.41599923372268677,1.0592403411865234,0.5705481171607971
1782778814205785300,8.119785400390626,0.33719760179519653,0.8234463334083557,0.607200026512146
1782778814215772200,8.129772216796875,0.2681698501110077,0.6291912198066711,0.646295428276062
1782778814225772800,8.139772705078125,0.19303341209888458,0.5564982295036316,0.7391469478607178
1782778814235761200,8.14976123046875,0.1667662113904953,0.5302310585975647,0.9254608750343323
1782778814245793800,8.159793701171875,0.25473082065582275,0.6352998614311218,1.0201449394226074
