time,seconds_elapsed,z,y,x
1782778820816983800,0.17998388671875,8.490593910217285,2.646024227142334,1.5347776412963867
1782778820826993700,0.18999365234375,4.885592460632324,2.6940970420837402,2.653934955596924
1782778820837003300,0.200003173828125,1.9453754425048828,2.0702340602874756,4.250270843505859
1782778820846982400,0.209982421875,0.8113927841186523,0.2066347599029541,4.158860683441162
1782778820856992300,0.2199921875,0.5883445739746094,-1.7060697078704834,1.6541471481323242
1782778820867002000,0.230002197265625,0.9758119583129883,-3.6008527278900146,-0.6071336269378662
1782778820876981200,0.239981201171875,1.155858039855957,-4.686444282531738,-1.8230311870574951
1782778820886991000,0.2499912109375,0.810145378112793,-4.846256732940674,-3.2956788539886475
1782778820897001000,0.2600009765625,-0.4152708053588867,-4.584560394287109,-5.151171684265137
1782778820906980000,0.26997998046875,-2.5627951622009277,-4.066324710845947,-6.312925338745117
1782778820916990000,0.279989990234375,-5.533886909484863,-3.3768086433410645,-6.3512468338012695
1782778820926999600,0.28999951171875,-9.102396965026855,-2.694347620010376,-5.729148864746094
1782778820936979000,0.29997900390625,-12.272383689880371,-1.6867249011993408,-4.792502403259277
1782778820946988500,0.309988525390625,-13.811264038085938,-0.890504002571106,-2.646916389465332
1782778820956998400,0.319998291015625,-14.229597091674805,-0.7610487937927246,-1.5920675992965698
1782778820966977500,0.3299775390625,-13.509418487548828,-1.014333724975586,-3.303422689437866
1782778820976987400,0.3399873046875,-11.925483703613281,-1.9623847007751465,-4.616703987121582
1782778820986997200,0.349997314453125,-8.776705741882324,-2.5776233673095703,-5.2178192138671875
1782778820996976400,0.359976318359375,-6.022571563720703,-2.8434619903564453,-5.107338905334473
1782778821006986200,0.369986328125,-4.4810309410095215,-2.95798397064209,-4.680178642272949
1782778821016996000,0.37999609375,-3.3506598472595215,-2.773679733276367,-3.899493455886841
1782778821026975200,0.389975341796875,-2.7449097633361816,-2.644237756729126,-3.0076088905334473
1782778821036985000,0.399985107421875,-3.1476759910583496,-2.5001533031463623,-2.6125547885894775
1782778821046994700,0.40999462890625,-4.023468971252441,-2.431441068649292,-2.4845683574676514
1782778821056974000,0.41997412109375,-5.241878986358643,-2.45513916015625,-2.564940929412842
1782778821066983700,0.429983642578125,-6.858617782592773,-2.355355978012085,-2.3843119144439697
1782778821076993500,0.43999365234375,-7.987185478210449,-2.3583450317382812,-2.415818929672241
1782778821087003400,0.45000341796875,-8.437617301940918,-2.462339401245117,-2.523911237716675
1782778821096982500,0.459982421875,-8.394046783447266,-2.515638828277588,-2.6518301963806152
1782778821106992400,0.469992431640625,-8.351771354675293,-2.5643129348754883,-2.755361557006836
1782778821116989200,0.4799892578125,-8.5161771774292,-2.5760953426361084,-2.696072816848755
1782778821126981400,0.4899814453125,-8.737117767333984,-2.3759727478027344,-2.353320360183716
1782778821136991200,0.4999912109375,-8.786240577697754,-2.051470994949341,-1.7505789995193481
1782778821147000800,0.510000732421875,-9.300049781799316,-1.923591136932373,-1.5752034187316895
1782778821157255000,0.5202548828125,-10.109933853149414,-2.037017345428467,-1.5957545042037964
1782778821166989800,0.52998974609375,-10.72144889831543,-2.1510140895843506,-1.4849601984024048
1782778821176999700,0.539999755859375,-11.211424827575684,-2.41835618019104,-1.3293452262878418
1782778821186978800,0.549978759765625,-11.366392135620117,-2.7859103679656982,-1.1951327323913574
1782778821196988700,0.55998876953125,-11.127211570739746,-3.1247262954711914,-0.9427977800369263
1782778821206998500,0.56999853515625,-10.590242385864258,-3.4046056270599365,-1.2334511280059814
1782778821216977700,0.579977783203125,-10.158411979675293,-3.912763833999634,-1.4370834827423096
1782778821226987500,0.589987548828125,-9.678377151489258,-4.253905296325684,-1.3114902973175049
1782778821236801300,0.59980126953125,-9.002022743225098,-4.315291881561279,-1.3799169063568115
1782778821246976300,0.609976318359375,-8.311891555786133,-4.3310370445251465,-1.594975233078003
1782778821256986000,0.619986083984375,-7.459347248077393,-4.2115983963012695,-1.8497984409332275
1782778821266996000,0.629995849609375,-5.953327178955078,-3.9169044494628906,-2.0544240474700928
1782778821276975000,0.63997509765625,-3.725907325744629,-3.3444316387176514,-2.4190032482147217
1782778821286985000,0.64998486328125,-2.139838695526123,-1.9372978210449219,-2.5361380577087402
1782778821296994800,0.659994873046875,-0.1379404067993164,1.0977144241333008,-3.465549945831299
1782778821306974200,0.66997412109375,1.863377571105957,4.15528678894043,-4.179538249969482
1782778821316983800,0.67998388671875,4.339333534240723,6.797002792358398,-3.8952560424804688
1782778821326993700,0.68999365234375,9.760616302490234,9.07613754272461,-1.5962800979614258
1782778821337003300,0.700003173828125,15.73493766784668,9.438746452331543,3.2248375415802
1782778821346982400,0.709982421875,19.686626434326172,7.585307598114014,7.383003234863281
1782778821356992300,0.7199921875,23.5784912109375,6.691599369049072,7.98806619644165
1782778821367002000,0.730002197265625,27.532550811767578,6.760969638824463,6.694317817687988
1782778821376981200,0.739981201171875,33.25116729736328,5.988276481628418,7.061023712158203
1782778821397001000,0.7600009765625,40.06394577026367,3.4307563304901123,3.731583595275879
1782778821406980000,0.76997998046875,37.35969543457031,2.8437278270721436,0.9295128583908081
1782778821416990000,0.779989990234375,30.88558578491211,3.29687237739563,0.818835973739624
1782778821426999600,0.78999951171875,24.238357543945312,4.071470260620117,2.6695470809936523
1782778821436978700,0.799978759765625,18.06121063232422,4.468441963195801,3.9405808448791504
1782778821446988500,0.809988525390625,13.278231620788574,4.560391426086426,4.1907854080200195
1782778821456998400,0.819998291015625,9.38772964477539,4.263106822967529,3.874302387237549
1782778821466977500,0.8299775390625,6.11258602142334,3.8004660606384277,2.945132255554199
1782778821476987400,0.8399873046875,3.547626495361328,3.4171769618988037,2.2577006816864014
1782778821486997200,0.849997314453125,1.2223320007324219,2.6784281730651855,1.8434174060821533
1782778821496976400,0.859976318359375,-0.28461170196533203,1.954841136932373,1.6090953350067139
1782778821506986200,0.869986328125,-1.5760841369628906,0.9385204315185547,1.358729362487793
1782778821516996000,0.87999609375,-2.695507526397705,-0.3163609504699707,0.6400406360626221
1782778821526975200,0.889975341796875,-3.638075828552246,-1.6878381967544556,-0.4374380111694336
1782778821536985000,0.899985107421875,-4.423894882202148,-2.759544849395752,-1.3535840511322021
1782778821546994700,0.90999462890625,-5.00705099105835,-3.326021194458008,-2.049034595489502
1782778821556974000,0.91997412109375,-5.120382308959961,-3.6005983352661133,-2.634467840194702
1782778821566983700,0.929983642578125,-4.442859649658203,-3.8628647327423096,-3.9790494441986084
1782778821576993500,0.93999365234375,-3.7504987716674805,-4.271125793457031,-5.873870849609375
1782778821587003400,0.95000341796875,-4.565149784088135,-4.407534599304199,-6.841176509857178
1782778821596982500,0.959982421875,-6.247251510620117,-4.056800365447998,-6.661794662475586
1782778821606992400,0.969992431640625,-8.067912101745605,-3.671583890914917,-6.264412879943848
1782778821617002200,0.980002197265625,-9.982566833496094,-3.6342523097991943,-6.200469970703125
1782778821626981400,0.9899814453125,-11.979933738708496,-3.675367593765259,-5.992869853973389
1782778821636991200,0.9999912109375,-13.77345085144043,-3.8216652870178223,-7.165279388427734
1782778821647000800,1.010000732421875,-14.437230110168457,-4.146630764007568,-7.269229888916016
1782778821656980000,1.01997998046875,-14.633920669555664,-4.550439357757568,-7.877713203430176
1782778821666989800,1.02998974609375,-14.40335464477539,-5.0185465812683105,-8.671784400939941
1782778821676999700,1.039999755859375,-13.49635124206543,-5.379771709442139,-8.917441368103027
1782778821686979000,1.04997900390625,-12.056814193725586,-5.5140380859375,-8.293863296508789
1782778821696988700,1.05998876953125,-10.330240249633789,-5.539155006408691,-7.571033477783203
1782778821706998500,1.06999853515625,-9.171490669250488,-5.503783702850342,-7.025897979736328
1782778821716977700,1.079977783203125,-8.226783752441406,-5.271822452545166,-6.008758544921875
1782778821726987500,1.089987548828125,-7.031157970428467,-4.843186855316162,-4.795446395874023
1782778821736997000,1.0999970703125,-5.933537006378174,-4.410744667053223,-3.97869873046875
1782778821746976500,1.1099765625,-5.647902488708496,-4.200079917907715,-3.3068289756774902
1782778821756986000,1.119986083984375,-6.294207572937012,-4.105258464813232,-2.8280818462371826
1782778821766996000,1.129995849609375,-7.149206161499023,-3.935814380645752,-2.474424362182617
1782778821776975000,1.13997509765625,-8.083393096923828,-3.913339138031006,-2.199378252029419
1782778821786555100,1.14955517578125,-8.956281661987305,-4.06279182434082,-2.4583468437194824
1782778821796994800,1.159994873046875,-9.395831108093262,-4.0182647705078125,-2.710298538208008
1782778821806974200,1.16997412109375,-9.43977165222168,-3.7675256729125977,-2.182868003845215
1782778821817091300,1.18009130859375,-9.277008056640625,-3.4026176929473877,-1.2651903629302979
1782778821826993400,1.189993408203125,-9.16244888305664,-2.940246105194092,-0.733801543712616
1782778821837003300,1.200003173828125,-9.337788581848145,-2.5919041633605957,-0.31037139892578125
1782778821847090700,1.210090576171875,-9.43124008178711,-2.23750638961792,0.2833484411239624
1782778821856992300,1.2199921875,-8.55130386352539,-2.208786964416504,0.11476004123687744
1782778821867002000,1.230002197265625,-7.3030781745910645,-2.2924933433532715,-0.6739476919174194
1782778821876981200,1.239981201171875,-6.279651641845703,-2.3798062801361084,-1.3092483282089233
1782778821886991000,1.2499912109375,-5.183699607849121,-2.74332332611084,-1.554793357849121
1782778821897001000,1.2600009765625,-3.6885547637939453,-3.3044939041137695,-1.963536024093628
1782778821906980000,1.26997998046875,-1.089242935180664,-3.816622257232666,-2.8594613075256348
1782778821916989700,1.27998974609375,1.251556396484375,-3.2954797744750977,-2.891342878341675
1782778821926999600,1.28999951171875,3.769868850708008,-1.9120694398880005,-1.498441457748413
1782778821936979000,1.29997900390625,6.680927276611328,0.6659820079803467,0.12727797031402588
1782778821946988500,1.309988525390625,8.567432403564453,2.7513725757598877,1.0598704814910889
1782778821956998400,1.319998291015625,9.01887035369873,2.895575761795044,1.4615259170532227
1782778821966977500,1.3299775390625,9.968461036682129,3.650461435317993,1.1158620119094849
1782778821976987400,1.3399873046875,12.86270809173584,3.744389057159424,3.205720901489258
1782778821986997200,1.349997314453125,18.282997131347656,2.2585630416870117,6.3825531005859375
1782778821996976600,1.3599765625,22.913677215576172,1.3472950458526611,7.167274475097656
1782778822006986200,1.369986328125,26.698497772216797,1.0627024173736572,7.470914363861084
1782778822016996000,1.37999609375,31.089282989501953,0.2980027198791504,7.696559429168701
1782778822036985000,1.399985107421875,35.037147521972656,-0.834283709526062,3.0216188430786133
1782778822046994700,1.40999462890625,30.762643814086914,-0.35567212104797363,1.9195770025253296
1782778822056974000,1.41997412109375,23.611209869384766,1.4851679801940918,2.971392869949341
1782778822066983700,1.429983642578125,17.18827247619629,3.1901791095733643,3.723416805267334
1782778822076993500,1.43999365234375,12.219974517822266,4.196664333343506,3.7157082557678223
1782778822087003400,1.45000341796875,8.559416770935059,4.71868371963501,3.692784547805786
1782778822096982500,1.459982421875,5.761466979980469,4.712350845336914,3.5184566974639893
1782778822106992400,1.469992431640625,3.685887336730957,4.135509490966797,2.7097485065460205
1782778822117002200,1.480002197265625,1.7674789428710938,3.109044313430786,2.046889066696167
1782778822126981400,1.4899814453125,0.36557960510253906,2.059929609298706,2.1882705688476562
1782778822136991200,1.4999912109375,-0.5155563354492188,0.4931027889251709,1.8316230773925781
1782778822147000800,1.510000732421875,-0.2980070114135742,-1.1609405279159546,0.4958384037017822
1782778822156980000,1.51997998046875,0.6474695205688477,-2.4058895111083984,-0.8543250560760498
1782778822166989800,1.52998974609375,0.8067588806152344,-3.1081714630126953,-1.89358389377594
1782778822176999700,1.539999755859375,0.019301414489746094,-3.24324893951416,-2.646596908569336
1782778822186979000,1.54997900390625,-1.524216651916504,-3.095822811126709,-3.0522024631500244
1782778822196988700,1.55998876953125,-3.491396903991699,-2.946218967437744,-3.590275526046753
1782778822206998500,1.56999853515625,-6.01657247543335,-2.4352469444274902,-3.659621238708496
1782778822216977700,1.579977783203125,-8.743941307067871,-2.017228364944458,-3.213292121887207
1782778822226987500,1.589987548828125,-11.147013664245605,-1.924317717552185,-3.145376443862915
1782778822236997000,1.5999970703125,-12.607437133789062,-2.0906548500061035,-3.7915587425231934
1782778822246976500,1.6099765625,-13.259986877441406,-2.174205780029297,-4.627937316894531
1782778822256986000,1.619986083984375,-13.197781562805176,-2.3578596115112305,-5.125910758972168
1782778822266996000,1.629995849609375,-12.690465927124023,-2.601580858230591,-5.675563812255859
1782778822276975000,1.63997509765625,-11.919462203979492,-2.7212326526641846,-6.182132720947266
1782778822286985000,1.64998486328125,-11.020689010620117,-2.7627806663513184,-6.116630554199219
1782778822296994800,1.659994873046875,-10.06730842590332,-2.74318528175354,-5.9270782470703125
1782778822306974200,1.66997412109375,-9.237957954406738,-2.6930649280548096,-5.764327049255371
1782778822316983800,1.67998388671875,-8.752086639404297,-2.660132884979248,-5.567625999450684
1782778822326993400,1.689993408203125,-8.806262969970703,-2.562721014022827,-5.060843467712402
1782778822337003300,1.700003173828125,-8.589482307434082,-2.310421943664551,-3.967244863510132
1782778822346982400,1.709982421875,-8.179278373718262,-2.008530616760254,-3.154083728790283
1782778822357101600,1.7201015625,-7.8077712059021,-1.728071689605713,-2.5077574253082275
1782778822366971600,1.7299716796875,-7.188561916351318,-1.7263729572296143,-2.1221189498901367
1782778822376981200,1.739981201171875,-6.61330509185791,-1.7168257236480713,-2.0799012184143066
1782778822386991000,1.7499912109375,-6.292525291442871,-1.7645304203033447,-2.225907325744629
1782778822397001000,1.7600009765625,-5.9745683670043945,-1.9369895458221436,-2.575650691986084
1782778822406980000,1.76997998046875,-5.6714019775390625,-2.1341145038604736,-2.9710183143615723
1782778822416989700,1.77998974609375,-5.438498497009277,-2.3475756645202637,-3.428886890411377
1782778822426999600,1.78999951171875,-5.587556838989258,-2.3439488410949707,-3.458380699157715
1782778822436978700,1.799978759765625,-5.963155746459961,-2.0910868644714355,-2.8038995265960693
1782778822446988500,1.809988525390625,-6.466701507568359,-1.7923370599746704,-1.96258544921875
1782778822456998400,1.819998291015625,-6.9909772872924805,-1.5380722284317017,-1.440287709236145
1782778822466977500,1.8299775390625,-7.690521717071533,-1.5162436962127686,-1.3045156002044678
1782778822476987400,1.8399873046875,-8.7863187789917,-1.6828107833862305,-1.4065390825271606
1782778822487015000,1.850014892578125,-10.01999282836914,-1.8695306777954102,-1.6061029434204102
1782778822497129000,1.86012890625,-10.64311695098877,-2.2476553916931152,-1.841409683227539
1782778822506986200,1.869986328125,-10.001052856445312,-2.6258530616760254,-2.2170028686523438
1782778822516996000,1.87999609375,-8.700746536254883,-2.875363826751709,-2.392021894454956
1782778822526975200,1.889975341796875,-7.270253658294678,-3.120638847351074,-2.2210776805877686
1782778822536985000,1.899985107421875,-5.243763446807861,-3.549643039703369,-2.0600457191467285
1782778822546994700,1.90999462890625,-2.2698965072631836,-3.7123942375183105,-2.337042808532715
1782778822556974000,1.91997412109375,1.4180030822753906,-3.201101779937744,-2.5188307762145996
1782778822566983700,1.929983642578125,4.300178527832031,-2.4296951293945312,-1.872077226638794
1782778822576993500,1.93999365234375,6.999811172485352,-1.0122566223144531,-1.285499095916748
1782778822596982500,1.959982421875,10.331182479858398,0.3240067958831787,-0.07534551620483398
1782778822606992400,1.969992431640625,12.635335922241211,0.09968376159667969,0.017174124717712402
1782778822617002200,1.980002197265625,16.73285484313965,-0.27700066566467285,-0.6597768068313599
1782778822626981400,1.9899814453125,21.818096160888672,-0.9664273262023926,-1.3447688817977905
1782778822636991200,1.9999912109375,24.88884735107422,-0.5763940811157227,-1.3076117038726807
1782778822647000800,2.010000732421875,24.526302337646484,0.6461875438690186,0.3809506893157959
1782778822656980000,2.01997998046875,23.503631591796875,1.436741590499878,2.7936325073242188
1782778822666989800,2.02998974609375,23.78876495361328,1.9259276390075684,4.853477954864502
1782778822676999700,2.039999755859375,25.886249542236328,2.196840524673462,7.151494026184082
1782778822686979000,2.04997900390625,28.286659240722656,2.432990312576294,9.716168403625488
1782778822696988700,2.05998876953125,28.015769958496094,2.3278632164001465,11.142815589904785
1782778822706998500,2.06999853515625,24.618568420410156,1.4414455890655518,9.955423355102539
1782778822716977700,2.079977783203125,20.497591018676758,0.337385892868042,6.688716888427734
1782778822726987500,2.089987548828125,16.681358337402344,-0.20336031913757324,3.288930892944336
1782778822736997000,2.0999970703125,13.41159725189209,-0.5222930908203125,0.3244483470916748
1782778822746976300,2.109976318359375,10.617133140563965,-0.03589367866516113,-0.45794105529785156
1782778822756986000,2.119986083984375,7.883581161499023,0.48217082023620605,1.2812542915344238
1782778822766996000,2.129995849609375,5.425349235534668,0.510298490524292,2.400399684906006
1782778822776975000,2.13997509765625,3.083399772644043,0.03442645072937012,1.7356879711151123
1782778822786985000,2.14998486328125,0.9965000152587891,-0.7951090335845947,0.19502520561218262
1782778822796994800,2.159994873046875,-0.680750846862793,-1.6281702518463135,-1.350536584854126
1782778822806974200,2.16997412109375,-2.155442237854004,-2.2314071655273438,-2.608556032180786
1782778822816983800,2.17998388671875,-3.515256404876709,-2.6281206607818604,-3.509432315826416
1782778822826993400,2.189993408203125,-4.818593978881836,-2.7614903450012207,-4.208514213562012
1782778822837003300,2.200003173828125,-6.232903003692627,-2.643470048904419,-4.6048784255981445
1782778822846982400,2.209982421875,-7.885404586791992,-2.189690589904785,-4.596426010131836
1782778822856992300,2.2199921875,-9.099092483520508,-1.5495734214782715,-3.992478847503662
1782778822867002000,2.230002197265625,-10.023797988891602,-1.0945936441421509,-2.8490195274353027
1782778822876981200,2.239981201171875,-11.241262435913086,-0.7708401679992676,-2.0434086322784424
1782778822886991000,2.2499912109375,-12.258418083190918,-0.7728462219238281,-2.250889539718628
1782778822897001000,2.2600009765625,-12.760168075561523,-0.9688633680343628,-3.0169312953948975
1782778822906980000,2.26997998046875,-13.186515808105469,-1.1135631799697876,-3.5598161220550537
1782778822916990000,2.279989990234375,-13.397666931152344,-1.2790396213531494,-3.7359910011291504
1782778822926999600,2.28999951171875,-13.930624008178711,-1.41157066822052,-3.5239009857177734
1782778822936979000,2.29997900390625,-14.214868545532227,-1.6468400955200195,-3.5054688453674316
1782778822946988500,2.309988525390625,-14.022348403930664,-1.8228423595428467,-3.3730392456054688
1782778822956998400,2.319998291015625,-13.236539840698242,-2.0251379013061523,-3.1425352096557617
1782778822966977500,2.3299775390625,-11.751729011535645,-2.3843131065368652,-3.26448655128479
1782778822976987400,2.3399873046875,-10.275516510009766,-2.6309213638305664,-3.604565143585205
1782778822986997200,2.349997314453125,-8.940946578979492,-2.8839807510375977,-3.810776710510254
1782778822996976400,2.359976318359375,-7.665380954742432,-3.0874838829040527,-3.9491186141967773
1782778823006986200,2.369986328125,-6.7379865646362305,-3.0996570587158203,-3.8954014778137207
1782778823016996000,2.37999609375,-6.5198655128479,-3.0601789951324463,-3.632244348526001
1782778823026975200,2.389975341796875,-6.795187950134277,-3.0833334922790527,-3.4025235176086426
1782778823036985000,2.399985107421875,-7.370926380157471,-3.076803207397461,-3.1023831367492676
1782778823046995000,2.409994873046875,-8.104950904846191,-3.0531060695648193,-2.7057688236236572
1782778823056974000,2.41997412109375,-8.840866088867188,-3.0131516456604004,-2.425577402114868
1782778823067166700,2.430166748046875,-9.460211753845215,-3.0806801319122314,-2.4996914863586426
1782778823077102800,2.440102783203125,-9.752791404724121,-3.174560546875,-2.6740262508392334
1782778823086973000,2.449972900390625,-9.650556564331055,-3.151224136352539,-2.7634658813476562
1782778823096982500,2.459982421875,-9.27877140045166,-3.123293161392212,-2.729424238204956
1782778823106992400,2.469992431640625,-8.888347625732422,-3.1150577068328857,-2.5823659896850586
1782778823117050000,2.480050048828125,-8.547491073608398,-2.9533536434173584,-2.323265552520752
1782778823126981400,2.4899814453125,-8.137799263000488,-2.671187400817871,-1.4892230033874512
1782778823136991000,2.499990966796875,-7.916619300842285,-2.4611666202545166,-0.471962571144104
1782778823147000800,2.510000732421875,-8.182290077209473,-2.294722080230713,0.24426352977752686
1782778823156601000,2.51960107421875,-8.775321960449219,-2.4591736793518066,0.6242016553878784
1782778823166930200,2.52993017578125,-9.279223442077637,-2.8657009601593018,0.8913944959640503
1782778823177857300,2.540857177734375,-8.719078063964844,-3.177307367324829,1.5252827405929565
1782778823196988700,2.55998876953125,-4.992822170257568,-4.100983619689941,0.8362541198730469
1782778823206938600,2.569938720703125,-1.7014927864074707,-4.477217674255371,-1.3152071237564087
1782778823217560000,2.58056005859375,0.5328302383422852,-3.9600391387939453,-4.314614772796631
1782778823237058300,2.600058349609375,1.8849668502807617,-0.3407924175262451,-7.839606761932373
1782778823246976300,2.609976318359375,3.419696807861328,0.6171727180480957,-3.5565123558044434
1782778823256986000,2.619986083984375,9.70112419128418,1.2744479179382324,2.026165008544922
1782778823266996000,2.629995849609375,20.307998657226562,1.3156321048736572,5.11737585067749
1782778823276975000,2.63997509765625,28.73314666748047,1.575190782546997,5.2929205894470215
1782778823286985000,2.64998486328125,33.13956069946289,1.5564689636230469,6.506816387176514
1782778823296994800,2.659994873046875,33.4114990234375,1.426924228668213,7.785028457641602
1782778823316983800,2.67998388671875,35.83800506591797,0.8639025688171387,7.121967792510986
1782778823326993400,2.689993408203125,35.58432388305664,1.5225508213043213,6.819116592407227
1782778823337003300,2.700003173828125,32.09003829956055,2.4382567405700684,7.179013729095459
1782778823346982400,2.709982421875,26.21857452392578,3.354731798171997,8.002361297607422
1782778823356992300,2.7199921875,20.259368896484375,3.9893360137939453,8.294602394104004
1782778823367002000,2.730002197265625,15.328560829162598,4.045116901397705,7.610751152038574
1782778823376981200,2.739981201171875,11.549349784851074,3.627483367919922,6.196073532104492
1782778823386991000,2.7499912109375,8.216309547424316,2.324275493621826,3.554093837738037
1782778823397001000,2.7600009765625,5.473176002502441,1.0128302574157715,1.3105366230010986
1782778823406980000,2.76997998046875,3.129852294921875,-0.1073235273361206,0.12594270706176758
1782778823416990000,2.779989990234375,1.3951740264892578,-1.0377705097198486,-0.4091331958770752
1782778823426999600,2.78999951171875,0.4345054626464844,-1.986772894859314,-0.8560463190078735
1782778823436979000,2.79997900390625,0.05411243438720703,-2.849515199661255,-1.4729713201522827
1782778823446988500,2.809988525390625,-0.8335237503051758,-3.298612117767334,-1.6236475706100464
1782778823456998400,2.819998291015625,-1.8337812423706055,-3.5350236892700195,-1.6810286045074463
1782778823466977500,2.8299775390625,-2.984020709991455,-3.5850296020507812,-1.651307463645935
1782778823476987400,2.8399873046875,-4.811615467071533,-3.481966495513916,-1.9294912815093994
1782778823486997200,2.849997314453125,-7.084495544433594,-3.483302593231201,-2.950896739959717
1782778823496976400,2.859976318359375,-8.717037200927734,-3.6308846473693848,-4.420846462249756
1782778823506986200,2.869986328125,-9.75482177734375,-3.5913424491882324,-5.26055908203125
1782778823516996000,2.87999609375,-10.09101676940918,-3.4557268619537354,-5.94118070602417
1782778823526975200,2.889975341796875,-9.935120582580566,-3.136453866958618,-6.440924644470215
1782778823536985000,2.899985107421875,-9.88992977142334,-2.7265913486480713,-6.328845500946045
1782778823546994700,2.90999462890625,-10.158970832824707,-2.298161745071411,-5.8309454917907715
1782778823556974000,2.91997412109375,-11.087738037109375,-1.9373365640640259,-5.108351707458496
1782778823566983700,2.929983642578125,-12.426344871520996,-1.7714871168136597,-4.61838436126709
1782778823576993500,2.93999365234375,-13.264657020568848,-1.8500100374221802,-4.657673358917236
1782778823587003400,2.95000341796875,-13.527153968811035,-2.020556688308716,-4.612527847290039
1782778823596982500,2.959982421875,-13.139444351196289,-2.1605939865112305,-4.205034255981445
1782778823606992400,2.969992431640625,-12.079721450805664,-2.1499710083007812,-3.893648386001587
1782778823617002200,2.980002197265625,-10.702132225036621,-2.365084648132324,-3.9955549240112305
1782778823626981400,2.9899814453125,-9.25196647644043,-2.8378069400787354,-4.581373691558838
1782778823636991200,2.9999912109375,-7.7458391189575195,-3.2914185523986816,-5.220390796661377
1782778823647000800,3.010000732421875,-6.451740741729736,-3.5501184463500977,-5.444784164428711
1782778823656980000,3.01997998046875,-5.754255294799805,-3.58282732963562,-5.10609245300293
1782778823666989800,3.02998974609375,-5.62675142288208,-3.511049747467041,-4.416993141174316
1782778823676940000,3.03993994140625,-5.756577491760254,-3.186680555343628,-3.392416477203369
1782778823687010800,3.0500107421875,-5.9892072677612305,-2.649207830429077,-2.163618803024292
1782778823697883600,3.060883544921875,-6.706308841705322,-2.44608473777771,-1.4256260395050049
1782778823717040000,3.0800400390625,-6.86367130279541,-2.5773205757141113,-1.4201220273971558
1782778823727048400,3.09004833984375,-6.524040222167969,-2.7420828342437744,-1.485755205154419
1782778823736997000,3.0999970703125,-5.974745750427246,-2.8561043739318848,-1.8845443725585938
1782778823746976300,3.109976318359375,-5.870725154876709,-3.1089134216308594,-2.694756031036377
1782778823756986000,3.119986083984375,-5.797818183898926,-3.2536051273345947,-3.2150824069976807
1782778823766996000,3.129995849609375,-5.963541030883789,-3.1176340579986572,-2.9918813705444336
1782778823776975400,3.139975341796875,-6.838335990905762,-3.027503252029419,-2.547145366668701
1782778823786985000,3.14998486328125,-7.254322528839111,-2.680004596710205,-2.206298589706421
1782778823796994800,3.159994873046875,-6.613492012023926,-2.2186880111694336,-1.150505781173706
1782778823806974000,3.169973876953125,-5.895498275756836,-1.920910120010376,-0.22143375873565674
1782778823816983800,3.17998388671875,-5.667204856872559,-1.9581413269042969,-0.585065484046936
1782778823826993700,3.18999365234375,-5.437946319580078,-1.9158183336257935,-0.9435417056083679
1782778823837003300,3.200003173828125,-4.377389907836914,-1.6463360786437988,-1.8904023170471191
1782778823846982400,3.209982421875,-2.784818172454834,-0.5364775657653809,-4.332086563110352
1782778823856992300,3.2199921875,0.2462759017944336,1.5311272144317627,-7.299219608306885
1782778823867002000,3.230002197265625,5.246769905090332,3.8950424194335938,-10.037795066833496
1782778823876981200,3.239981201171875,10.136514663696289,4.692756652832031,-8.54261302947998
1782778823886991000,3.2499912109375,13.873250961303711,6.063864707946777,-4.4876861572265625
1782778823897001000,3.2600009765625,18.824209213256836,6.925146102905273,0.6374025344848633
1782778823906980000,3.26997998046875,22.390789031982422,5.930233001708984,6.136457443237305
1782778823916990000,3.279989990234375,24.41191864013672,5.393339157104492,10.660953521728516
1782778823926999600,3.28999951171875,27.572864532470703,4.304097652435303,12.983772277832031
1782778823936979000,3.29997900390625,32.37952423095703,2.2216992378234863,10.714068412780762
1782778823956998400,3.319998291015625,35.71048355102539,-2.6309292316436768,-0.6498489379882812
1782778823966977500,3.3299775390625,32.51484680175781,-3.01965594291687,-2.8966355323791504
1782778823976987400,3.3399873046875,27.258493423461914,-2.0628833770751953,-1.5462629795074463
1782778823986997200,3.349997314453125,21.190723419189453,-1.1063112020492554,0.22994506359100342
1782778823996916700,3.359916748046875,14.7826509475708,-0.4387528896331787,0.9618138074874878
1782778824007047400,3.37004736328125,8.98396110534668,0.08546042442321777,1.5099190473556519
1782778824016996000,3.37999609375,3.433441162109375,0.9753973484039307,3.0775766372680664
1782778824026975200,3.389975341796875,-0.47283077239990234,1.2879409790039062,4.344667911529541
1782778824036985000,3.399985107421875,-3.034623622894287,0.8895375728607178,4.086307048797607
1782778824046995000,3.409994873046875,-3.7902026176452637,-0.10199856758117676,2.1576409339904785
1782778824056973800,3.419973876953125,-3.5925397872924805,-1.2466211318969727,-0.31253743171691895
1782778824066983700,3.429983642578125,-3.4019436836242676,-2.185789108276367,-2.378580093383789
1782778824076993500,3.43999365234375,-3.5435051918029785,-2.852902412414551,-3.8754889965057373
1782778824087003400,3.45000341796875,-3.681675434112549,-3.244425058364868,-5.385914325714111
1782778824096982500,3.459982421875,-3.747598171234131,-3.530580759048462,-6.760936260223389
1782778824106992400,3.469992431640625,-4.1786274909973145,-3.557757616043091,-7.4698944091796875
1782778824117002200,3.480002197265625,-5.066530227661133,-3.282055139541626,-7.38666296005249
1782778824126981400,3.4899814453125,-7.020559787750244,-2.599716901779175,-6.1485490798950195
1782778824136991000,3.499990966796875,-8.80311107635498,-2.052452802658081,-5.0027570724487305
1782778824147000800,3.510000732421875,-10.3560791015625,-1.6859947443008423,-4.14867639541626
1782778824156980000,3.51997998046875,-11.491985321044922,-1.4508968591690063,-3.50296688079834
1782778824166989800,3.52998974609375,-11.863218307495117,-1.1374664306640625,-3.299424171447754
1782778824176999700,3.539999755859375,-11.799049377441406,-1.2259621620178223,-2.334299087524414
1782778824186978800,3.549978759765625,-11.36941909790039,-1.411026954650879,-2.375000476837158
1782778824196988700,3.55998876953125,-10.679489135742188,-1.8361109495162964,-3.3648290634155273
1782778824206998500,3.56999853515625,-9.515657424926758,-2.35188889503479,-3.9500153064727783
1782778824216977700,3.579977783203125,-8.184152603149414,-2.7928049564361572,-4.357146263122559
1782778824227170600,3.590170654296875,-7.096779823303223,-2.94547700881958,-4.645529747009277
1782778824236997000,3.5999970703125,-6.4337544441223145,-3.0137481689453125,-4.679037570953369
1782778824246976500,3.6099765625,-6.12770938873291,-2.947795867919922,-4.49745512008667
1782778824256986000,3.619986083984375,-6.55992317199707,-2.8435866832733154,-3.9680533409118652
1782778824266996000,3.629995849609375,-7.465439796447754,-2.6582889556884766,-3.318399667739868
1782778824276975000,3.63997509765625,-8.306715965270996,-2.3784608840942383,-2.5702621936798096
1782778824286972200,3.64997216796875,-9.078832626342773,-2.2779130935668945,-2.1991372108459473
1782778824296964400,3.65996435546875,-9.730681419372559,-2.3596503734588623,-2.3739612102508545
1782778824306974200,3.66997412109375,-10.023427963256836,-2.53908371925354,-2.770094871520996
1782778824316605000,3.67960498046875,-9.737215995788574,-2.7871267795562744,-3.087613105773926
1782778824326993700,3.68999365234375,-9.209198951721191,-2.979818820953369,-3.2757959365844727
1782778824337003300,3.700003173828125,-8.668316841125488,-3.0084779262542725,-3.175687551498413
1782778824347091700,3.710091796875,-8.445953369140625,-3.1527910232543945,-2.948854923248291
1782778824356992300,3.7199921875,-8.446393013000488,-3.110089063644409,-2.7812960147857666
1782778824367002000,3.730002197265625,-8.638118743896484,-2.929413080215454,-2.3226468563079834
1782778824376981200,3.739981201171875,-8.919471740722656,-2.909167528152466,-1.7486746311187744
1782778824386991000,3.7499912109375,-9.25934886932373,-2.9869329929351807,-1.504375696182251
1782778824396896500,3.759896484375,-9.405570030212402,-3.044271945953369,-1.438093900680542
1782778824406980000,3.76997998046875,-9.109389305114746,-3.072418689727783,-1.1232402324676514
1782778824416990000,3.779989990234375,-8.389315605163574,-3.213244915008545,-0.7745535373687744
1782778824426563000,3.78956298828125,-7.606402397155762,-3.341059684753418,-0.6865391731262207
1782778824437009400,3.800009521484375,-6.050239562988281,-3.7073421478271484,-0.582023024559021
1782778824446988500,3.809988525390625,-3.6266183853149414,-3.8958935737609863,-0.19545137882232666
1782778824456998400,3.819998291015625,-0.6879777908325195,-3.718858003616333,-0.08330428600311279
1782778824466977500,3.8299775390625,4.174535751342773,-3.053795576095581,-0.5789642333984375
1782778824476987400,3.8399873046875,10.352710723876953,-1.4668222665786743,-1.9118518829345703
1782778824486997200,3.849997314453125,15.944117546081543,0.8206472396850586,-4.650190353393555
1782778824496976600,3.8599765625,18.810462951660156,1.651930809020996,-4.755531311035156
1782778824516996000,3.87999609375,13.686627388000488,3.9513304233551025,-5.427759647369385
1782778824526975200,3.889975341796875,10.613286018371582,4.326840400695801,-4.567065238952637
1782778824536955600,3.89995556640625,9.04362964630127,3.8886196613311768,-0.38387835025787354
1782778824547055600,3.9100556640625,9.424980163574219,4.739830493927002,4.744788646697998
1782778824556974000,3.91997412109375,13.58320140838623,4.734668254852295,9.860578536987305
1782778824566983700,3.929983642578125,21.180526733398438,4.156455039978027,13.487577438354492
1782778824576993500,3.93999365234375,29.350404739379883,3.2229816913604736,12.861926078796387
1782778824587003400,3.95000341796875,32.054351806640625,1.1246907711029053,8.328631401062012
1782778824596923000,3.9599228515625,31.686077117919922,-1.5244696140289307,3.7507500648498535
1782778824607053300,3.97005322265625,30.529136657714844,-3.2852039337158203,0.427518367767334
1782778824616969500,3.979969482421875,28.292816162109375,-3.2589235305786133,-0.8054144382476807
1782778824627011800,3.99001171875,24.949174880981445,-1.8192849159240723,0.7891533374786377
1782778824636870400,3.999870361328125,20.209888458251953,-0.27178430557250977,2.7750682830810547
1782778824647092500,4.010092529296875,13.095037460327148,0.9348450899124146,4.013141632080078
1782778824656980000,4.01997998046875,7.171933174133301,1.478574514389038,4.45386266708374
1782778824666989800,4.02998974609375,2.1812734603881836,1.3600234985351562,3.9965295791625977
1782778824676999700,4.039999755859375,-1.157815933227539,0.768589973449707,2.2516908645629883
1782778824686979000,4.04997900390625,-2.9194397926330566,-0.10459542274475098,-0.3129384517669678
1782778824696988700,4.05998876953125,-3.3919167518615723,-1.1925419569015503,-2.9230949878692627
1782778824706938600,4.069938720703125,-3.4309825897216797,-2.0053000450134277,-4.73118782043457
1782778824717069300,4.0800693359375,-3.8095922470092773,-2.2798330783843994,-5.538249969482422
1782778824726928000,4.089927978515625,-4.251051902770996,-2.373256206512451,-6.013327598571777
1782778824738351000,4.10135107421875,-4.551030158996582,-2.2557411193847656,-6.00274658203125
1782778824756986000,4.119986083984375,-5.987926483154297,-1.9932745695114136,-5.062138557434082
1782778824766996000,4.129995849609375,-6.913341522216797,-2.15506911277771,-4.8874359130859375
1782778824776975000,4.13997509765625,-8.173964500427246,-2.1874165534973145,-5.50290060043335
1782778824786985000,4.14998486328125,-9.792726516723633,-2.07332181930542,-4.071357727050781
1782778824796935200,4.15993505859375,-11.24600887298584,-1.5823854207992554,-2.4370362758636475
1782778824807006000,4.170005859375,-12.541417121887207,-1.0082364082336426,-1.3298569917678833
1782778824817959400,4.18095947265625,-13.529233932495117,-0.8351593017578125,-0.5878658294677734
1782778824837003300,4.200003173828125,-14.46190071105957,-1.6568779945373535,-1.4774858951568604
1782778824846982400,4.209982421875,-14.157075881958008,-2.240234613418579,-2.659865140914917
1782778824856992300,4.2199921875,-13.497701644897461,-2.8306872844696045,-3.728917121887207
1782778824866942500,4.2299423828125,-12.008448600769043,-3.3548583984375,-4.436762809753418
1782778824877073000,4.240072998046875,-10.591765403747559,-3.396136999130249,-4.6281585693359375
1782778824886991000,4.2499912109375,-9.333443641662598,-3.5438642501831055,-4.555032730102539
1782778824897001000,4.2600009765625,-8.534899711608887,-3.6591358184814453,-4.459890365600586
1782778824906980000,4.26997998046875,-8.14010238647461,-3.458146572113037,-4.184361457824707
1782778824916990000,4.279989990234375,-8.353386878967285,-3.2283976078033447,-3.3435473442077637
1782778824926999600,4.28999951171875,-9.055503845214844,-3.1661629676818848,-2.4956231117248535
1782778824936979000,4.29997900390625,-10.070647239685059,-3.1863229274749756,-2.236427068710327
1782778824946988500,4.309988525390625,-11.091296195983887,-3.4287502765655518,-2.6034107208251953
1782778824956998400,4.319998291015625,-11.830951690673828,-3.9206128120422363,-3.3167014122009277
1782778824966977500,4.3299775390625,-12.284947395324707,-4.132185935974121,-3.721559524536133
1782778824976987400,4.3399873046875,-12.082548141479492,-4.205904960632324,-3.4267797470092773
1782778824986997200,4.349997314453125,-11.444366455078125,-4.258577823638916,-2.9642772674560547
1782778824996976400,4.359976318359375,-10.51789665222168,-4.047751426696777,-2.2836456298828125
1782778825006986200,4.369986328125,-9.705134391784668,-3.8325417041778564,-1.4009509086608887
1782778825016996000,4.37999609375,-9.31496810913086,-3.7582409381866455,-0.3876166343688965
1782778825026975200,4.389975341796875,-8.966614723205566,-3.977726936340332,-0.0734032392501831
1782778825036819700,4.39981982421875,-8.637895584106445,-4.294215679168701,-0.33968496322631836
1782778825046994700,4.40999462890625,-8.301262855529785,-4.780559062957764,-0.39356279373168945
1782778825056974000,4.41997412109375,-7.577119827270508,-5.248447418212891,0.02711176872253418
1782778825066983700,4.429983642578125,-6.3835530281066895,-5.681097984313965,0.46587979793548584
1782778825076993500,4.43999365234375,-2.0323243141174316,-5.6152238845825195,1.0659371614456177
1782778825087003400,4.45000341796875,4.0366621017456055,-4.755772590637207,1.2134864330291748
1782778825096982500,4.459982421875,10.976120948791504,-2.116901159286499,-0.22270143032073975
1782778825106992400,4.469992431640625,15.850110054016113,1.5683503150939941,-2.719179153442383
1782778825117002200,4.480002197265625,13.657135963439941,2.7211108207702637,-2.150526523590088
1782778825126981400,4.4899814453125,9.013008117675781,2.7032878398895264,-0.3174779415130615
1782778825136991200,4.4999912109375,9.083413124084473,3.3497302532196045,-0.843437910079956
1782778825147000800,4.510000732421875,12.734359741210938,1.761526346206665,-1.4227240085601807
1782778825156980000,4.51997998046875,16.4407958984375,0.6325256824493408,-0.359885573387146
1782778825166989800,4.52998974609375,20.294830322265625,0.48560476303100586,4.9023284912109375
1782778825176999700,4.539999755859375,27.94393539428711,0.9011213779449463,10.482048034667969
1782778825186978800,4.549978759765625,35.19123458862305,1.4212937355041504,12.302058219909668
1782778825196988700,4.55998876953125,38.227203369140625,2.0686471462249756,10.282735824584961
1782778825206998500,4.56999853515625,35.58143615722656,2.735522747039795,8.03033447265625
1782778825216977700,4.579977783203125,29.304107666015625,3.0238966941833496,7.829488754272461
1782778825226987500,4.589987548828125,22.5163631439209,3.9685113430023193,7.875070095062256
1782778825236997000,4.5999970703125,16.96990394592285,5.034000396728516,8.05712890625
1782778825246976300,4.609976318359375,13.042763710021973,5.601943016052246,8.240904808044434
1782778825256986000,4.619986083984375,10.378881454467773,5.253643989562988,7.057153701782227
1782778825266996000,4.629995849609375,8.68608283996582,3.885104179382324,4.894427299499512
1782778825276975000,4.63997509765625,6.98170280456543,2.287597417831421,2.6127982139587402
1782778825286985000,4.64998486328125,4.7936296463012695,0.5085136890411377,0.8504455089569092
1782778825296994800,4.659994873046875,3.0676403045654297,-0.7000589370727539,-0.07600951194763184
1782778825306974200,4.66997412109375,1.5068302154541016,-1.3856507539749146,-0.9490983486175537
1782778825316983800,4.67998388671875,-0.06701946258544922,-1.748528003692627,-1.4157795906066895
1782778825326993400,4.689993408203125,-1.6140727996826172,-2.04388165473938,-1.9779856204986572
1782778825337003300,4.700003173828125,-3.2740001678466797,-2.0337750911712646,-2.532914876937866
1782778825346982400,4.709982421875,-4.844668865203857,-1.434117317199707,-2.1688480377197266
1782778825356992300,4.7199921875,-6.0325517654418945,-0.6778556108474731,-1.508570671081543
1782778825367002000,4.730002197265625,-7.261456489562988,-0.330342173576355,-1.1230385303497314
1782778825376981200,4.739981201171875,-8.302592277526855,-0.520780086517334,-1.602827548980713
1782778825387204600,4.75020458984375,-8.992044448852539,-1.222432017326355,-3.4696390628814697
1782778825397110000,4.760110107421875,-9.5226469039917,-1.7965353727340698,-3.859394073486328
1782778825406980000,4.76997998046875,-9.829740524291992,-2.1451010704040527,-4.844918251037598
1782778825416990000,4.779989990234375,-10.302956581115723,-2.3979711532592773,-5.998565673828125
1782778825426999600,4.78999951171875,-11.01811408996582,-2.676138162612915,-6.345305442810059
1782778825436979000,4.79997900390625,-11.668913841247559,-2.7895588874816895,-6.160015106201172
1782778825446988500,4.809988525390625,-11.766349792480469,-2.851093292236328,-6.147512912750244
1782778825456998400,4.819998291015625,-11.501096725463867,-2.9640471935272217,-5.937543869018555
1782778825466977500,4.8299775390625,-11.188150405883789,-2.788552761077881,-5.238962173461914
1782778825476987400,4.8399873046875,-10.815962791442871,-2.5269079208374023,-4.306422233581543
1782778825486997200,4.849997314453125,-10.363903999328613,-2.349179983139038,-3.6907410621643066
1782778825496976400,4.859976318359375,-9.87876033782959,-2.362964630126953,-3.441702127456665
1782778825507016700,4.8700166015625,-9.490171432495117,-2.5457119941711426,-3.637402296066284
1782778825517105200,4.880105224609375,-9.117345809936523,-2.6743526458740234,-3.941185474395752
1782778825526975200,4.889975341796875,-8.927573204040527,-2.7557947635650635,-4.002113342285156
1782778825536985000,4.899985107421875,-9.049574851989746,-2.684389352798462,-3.8014674186706543
1782778825546994700,4.90999462890625,-9.378743171691895,-2.698808431625366,-3.844621419906616
1782778825556930800,4.919930908203125,-9.931523323059082,-2.713200330734253,-3.9101510047912598
1782778825566983700,4.929983642578125,-10.51176643371582,-2.6950230598449707,-3.661780834197998
1782778825576993500,4.93999365234375,-10.979620933532715,-2.585283041000366,-3.323566436767578
1782778825587003400,4.95000341796875,-11.452549934387207,-2.30655574798584,-2.6163816452026367
1782778825596982500,4.959982421875,-11.77717399597168,-2.039034366607666,-1.8209855556488037
1782778825606992400,4.969992431640625,-11.885659217834473,-1.9741952419281006,-1.3398185968399048
1782778825617002200,4.980002197265625,-11.883523941040039,-2.1205081939697266,-1.3072657585144043
1782778825626981400,4.9899814453125,-11.857175827026367,-2.530406951904297,-1.5937062501907349
1782778825636991200,4.9999912109375,-11.276510238647461,-2.9611377716064453,-2.080772638320923
1782778825647000800,5.010000732421875,-10.290301322937012,-3.3908190727233887,-2.3950209617614746
1782778825656980000,5.01997998046875,-9.208417892456055,-3.7813591957092285,-2.3732378482818604
1782778825666989800,5.02998974609375,-8.22279167175293,-4.112825393676758,-1.3859386444091797
1782778825676999700,5.039999755859375,-7.140831470489502,-4.519049644470215,0.11313128471374512
1782778825686978800,5.049978759765625,-5.069098949432373,-4.622933387756348,1.540823221206665
1782778825696988700,5.05998876953125,-1.969170093536377,-3.9201302528381348,2.606260061264038
1782778825706998500,5.06999853515625,4.51307487487793,-3.0761847496032715,3.5674901008605957
1782778825716977700,5.079977783203125,11.446356773376465,-2.4781112670898438,1.8551955223083496
1782778825726987500,5.089987548828125,17.082874298095703,-0.7700390815734863,-2.599489212036133
1782778825736997000,5.0999970703125,17.405467987060547,-0.028630971908569336,-5.049395561218262
1782778825746976300,5.109976318359375,12.747204780578613,-0.07323098182678223,-2.6747469902038574
1782778825756986000,5.119986083984375,8.610198020935059,1.728863000869751,-2.29416561126709
1782778825766996000,5.129995849609375,10.992435455322266,2.741361618041992,-2.0035367012023926
1782778825776975000,5.13997509765625,17.445045471191406,1.3990986347198486,-0.06622195243835449
1782778825796994800,5.159994873046875,26.382610321044922,0.6395843029022217,7.606827735900879
1782778825806974200,5.16997412109375,30.262638092041016,0.35364460945129395,11.625154495239258
1782778825816983800,5.17998388671875,34.09330749511719,0.3062868118286133,12.71350383758545
1782778825826993700,5.18999365234375,33.96562194824219,-0.026675701141357422,10.463637351989746
1782778825837003300,5.200003173828125,30.60533332824707,-0.39194273948669434,6.229022979736328
1782778825846982400,5.209982421875,25.846065521240234,-0.3594651222229004,3.1570301055908203
1782778825856992300,5.2199921875,21.623119354248047,0.46880602836608887,2.3262925148010254
1782778825867002000,5.230002197265625,17.6241455078125,1.2894349098205566,1.662370204925537
1782778825876981200,5.239981201171875,12.982623100280762,2.320821523666382,1.93703031539917
1782778825886991000,5.2499912109375,7.750509262084961,3.255131959915161,2.519686698913574
1782778825897001000,5.2600009765625,3.0911598205566406,3.1915721893310547,2.4942455291748047
1782778825906980000,5.26997998046875,0.09819889068603516,2.221611976623535,1.5107791423797607
1782778825916990000,5.279989990234375,-1.3612260818481445,0.47209930419921875,0.24590063095092773
1782778825926999600,5.28999951171875,-1.1748929023742676,-1.1402479410171509,-1.2027894258499146
1782778825936979000,5.29997900390625,-0.7338333129882812,-2.408235788345337,-2.327638626098633
1782778825946988500,5.309988525390625,-0.7265539169311523,-3.1711809635162354,-3.073021411895752
1782778825956998400,5.319998291015625,-1.4227590560913086,-3.6425280570983887,-3.5370898246765137
1782778825966977500,5.3299775390625,-3.1623988151550293,-3.783116102218628,-3.6842918395996094
1782778825976987400,5.3399873046875,-5.027813911437988,-3.5196120738983154,-3.637962579727173
1782778825986997200,5.349997314453125,-6.782699108123779,-3.298398971557617,-3.3644824028015137
1782778825996976400,5.359976318359375,-8.298280715942383,-2.8226845264434814,-2.848691940307617
1782778826006986200,5.369986328125,-9.721613883972168,-2.140712261199951,-2.073730945587158
1782778826016996000,5.37999609375,-11.08991527557373,-1.776749849319458,-1.968328833580017
1782778826026975200,5.389975341796875,-12.767900466918945,-1.5608835220336914,-2.0647048950195312
1782778826036985000,5.399985107421875,-14.101296424865723,-1.362351894378662,-1.9143668413162231
1782778826046994700,5.40999462890625,-14.544849395751953,-1.36176335811615,-2.8050923347473145
1782778826056974000,5.41997412109375,-14.217180252075195,-1.7022879123687744,-3.933281898498535
1782778826066983700,5.429983642578125,-13.323616027832031,-2.1349587440490723,-4.776297092437744
1782778826076993500,5.43999365234375,-12.282358169555664,-2.2111165523529053,-5.175894737243652
1782778826087003400,5.45000341796875,-11.595911979675293,-2.1714553833007812,-4.78282356262207
1782778826096982500,5.459982421875,-11.018549919128418,-2.1216092109680176,-4.325435638427734
1782778826106992400,5.469992431640625,-10.43061637878418,-1.962553858757019,-3.620398998260498
1782778826117002200,5.480002197265625,-10.046652793884277,-1.81113600730896,-2.664468288421631
1782778826126981400,5.4899814453125,-9.991141319274902,-1.628329873085022,-1.8561835289001465
1782778826136991200,5.4999912109375,-9.970893859863281,-1.8136807680130005,-1.7608277797698975
1782778826147000800,5.510000732421875,-9.814433097839355,-2.0457394123077393,-2.0587244033813477
1782778826157089300,5.52008935546875,-9.700304985046387,-2.0830094814300537,-1.9990224838256836
1782778826166989800,5.52998974609375,-9.664859771728516,-2.181326150894165,-1.6352512836456299
1782778826176999700,5.539999755859375,-9.414265632629395,-2.4212284088134766,-1.7615944147109985
1782778826186978800,5.549978759765625,-9.2003755569458,-2.5395073890686035,-1.9471259117126465
1782778826196853800,5.559853759765625,-9.44383716583252,-2.412721872329712,-1.8443880081176758
1782778826206968000,5.569968017578125,-9.950165748596191,-2.350271701812744,-1.6786879301071167
1782778826216977700,5.579977783203125,-10.213149070739746,-2.1879234313964844,-1.4790003299713135
1782778826226987500,5.589987548828125,-10.19355297088623,-2.0420291423797607,-1.092804193496704
1782778826237119200,5.600119140625,-10.047183990478516,-1.877722144126892,-0.6485141515731812
1782778826247085800,5.6100859375,-9.565438270568848,-1.8328402042388916,-0.3663625717163086
1782778826256986000,5.619986083984375,-9.10425090789795,-1.8392295837402344,-0.32594776153564453
1782778826266996000,5.629995849609375,-8.750333786010742,-1.8831838369369507,-0.40778255462646484
1782778826277084400,5.64008447265625,-8.224152565002441,-1.952695608139038,-0.35892605781555176
1782778826286985000,5.64998486328125,-7.697755813598633,-2.1563124656677246,-0.8765587210655212
1782778826296994800,5.659994873046875,-6.833029747009277,-2.6519293785095215,-1.78322172164917
1782778826306974200,5.66997412109375,-5.752469062805176,-3.1221189498901367,-2.1066651344299316
1782778826316983800,5.67998388671875,-4.124678611755371,-3.047163248062134,-1.8554420471191406
1782778826326993700,5.68999365234375,-1.7160143852233887,-2.1217145919799805,-1.6145079135894775
1782778826337003300,5.700003173828125,1.289311408996582,-0.975400447845459,-1.5749452114105225
1782778826346982400,5.709982421875,6.003419876098633,0.39052677154541016,-2.084362745285034
1782778826356992300,5.7199921875,9.758820533752441,1.1160283088684082,-2.129413366317749
1782778826367002000,5.730002197265625,12.315536499023438,1.0893700122833252,-0.39281463623046875
1782778826376981200,5.739981201171875,15.518640518188477,1.1050629615783691,3.496995449066162
1782778826386991000,5.7499912109375,19.97956085205078,0.34720301628112793,7.605894088745117
1782778826397001000,5.7600009765625,25.054550170898438,0.046558380126953125,9.087875366210938
1782778826406980000,5.76997998046875,30.39756202697754,-0.5448276996612549,10.437450408935547
1782778826417020400,5.7800205078125,34.979862213134766,-1.2363953590393066,10.113994598388672
1782778826436863000,5.799863037109375,35.57874298095703,-2.022916555404663,6.614785671234131
1782778826446872800,5.809872802734375,31.0906982421875,-1.3938450813293457,5.377805233001709
1782778826456882700,5.819882568359375,25.37015151977539,-0.3977506160736084,4.634085655212402
1782778826466861800,5.82986181640625,19.927644729614258,0.8119678497314453,4.480456352233887
1782778826476871700,5.83987158203125,16.130645751953125,1.856478214263916,4.197320938110352
1782778826486821600,5.849821533203125,13.864238739013672,2.569455862045288,3.356013059616089
1782778826498360000,5.861360107421875,11.911680221557617,3.23976469039917,2.1773674488067627
1782778826516880100,5.879880126953125,8.140456199645996,3.4611124992370605,1.0264561176300049
1782778826526859300,5.889859375,6.321413040161133,2.7520768642425537,0.052449703216552734
1782778826536869000,5.899869140625,4.702552795410156,1.6925647258758545,-0.9916131496429443
1782778826546879000,5.90987890625,2.709360122680664,0.6742372512817383,-1.6570271253585815
1782778826556858000,5.919858154296875,0.2683687210083008,-0.21290087699890137,-1.9445475339889526
1782778826566868000,5.929867919921875,-2.0016160011291504,-1.1273456811904907,-2.3588178157806396
1782778826576877800,5.9398779296875,-4.003682613372803,-2.173088788986206,-2.9548778533935547
1782778826586887400,5.949887451171875,-5.378178596496582,-3.0087859630584717,-3.510556936264038
1782778826596866600,5.959866455078125,-6.426607131958008,-3.3741555213928223,-4.159723281860352
1782778826606876400,5.96987646484375,-7.202268600463867,-3.363805055618286,-4.564859390258789
1782778826616886300,5.97988623046875,-7.612842082977295,-3.199129104614258,-4.627473831176758
1782778826626865400,5.989865478515625,-8.31580638885498,-2.8276147842407227,-4.499956130981445
1782778826636875300,5.999875244140625,-9.553913116455078,-2.403538227081299,-4.497946262359619
1782778826646885000,6.009885009765625,-10.732795715332031,-2.0066585540771484,-2.5373127460479736
1782778826656864300,6.0198642578125,-11.869776725769043,-1.5162596702575684,-2.313624858856201
1782778826666965800,6.0299658203125,-13.068058013916016,-1.6891578435897827,-3.485994577407837
1782778826676883700,6.0398837890625,-14.018272399902344,-2.0636579990386963,-4.288393020629883
1782778826686862800,6.04986279296875,-14.452159881591797,-2.3055014610290527,-4.5694732666015625
1782778826696872700,6.059872802734375,-14.112043380737305,-2.691884756088257,-5.100321292877197
1782778826706882600,6.069882568359375,-13.285548210144043,-3.0315725803375244,-5.545223236083984
1782778826716861700,6.07986181640625,-12.439008712768555,-3.1170709133148193,-5.371610641479492
1782778826726871600,6.08987158203125,-11.76374626159668,-2.967844247817993,-4.496377944946289
1782778826736881400,6.09988134765625,-11.22836971282959,-2.450467586517334,-3.2639989852905273
1782778826746860500,6.109860595703125,-10.724308013916016,-2.20108699798584,-2.0871505737304688
1782778826757114600,6.120114501953125,-10.016319274902344,-2.373699426651001,-1.9533648490905762
1782778826766888200,6.12988818359375,-9.320152282714844,-2.5294132232666016,-2.385003089904785
1782778826776859400,6.139859375,-8.33088493347168,-2.8409345149993896,-2.739353895187378
1782778826786869200,6.149869140625,-7.403267860412598,-3.0719144344329834,-3.100224494934082
1782778826796878800,6.15987890625,-6.673620223999023,-3.206878900527954,-3.340789318084717
1782778826806858200,6.169858154296875,-6.772891044616699,-3.2934179306030273,-3.421584367752075
1782778826816867800,6.179867919921875,-7.4436540603637695,-3.276461124420166,-3.282176971435547
1782778826826877700,6.189877685546875,-7.820796012878418,-3.1198952198028564,-2.6201958656311035
1782778826836887600,6.199887451171875,-8.105744361877441,-2.71897292137146,-1.7068603038787842
1782778826846866700,6.20986669921875,-8.19217586517334,-2.4247636795043945,-0.8255082368850708
1782778826856876500,6.21987646484375,-7.773441791534424,-2.381282329559326,-0.6012107133865356
1782778826866886400,6.229886474609375,-7.09649658203125,-2.5091195106506348,-0.903531551361084
1782778826876865500,6.239865478515625,-5.7178635597229,-2.8249759674072266,-1.0670688152313232
1782778826886875100,6.249875244140625,-4.826740264892578,-3.0308756828308105,-1.082902193069458
1782778826896885000,6.259885009765625,-4.768266201019287,-3.3351285457611084,-0.9140678644180298
1782778826906864000,6.269864013671875,-4.497278690338135,-3.669304370880127,-0.6877007484436035
1782778826916874000,6.2798740234375,-3.884438991546631,-4.099318027496338,-0.21755611896514893
1782778826926883800,6.2898837890625,-1.2453117370605469,-4.554982662200928,-0.3421734571456909
1782778826936863000,6.299863037109375,1.4423856735229492,-4.579546928405762,-0.009430646896362305
1782778826946872800,6.309872802734375,3.210381507873535,-3.4565882682800293,0.361741304397583
1782778826956882700,6.319882568359375,4.8263397216796875,-1.7929519414901733,0.4544985294342041
1782778826966861800,6.32986181640625,2.6802988052368164,0.22626733779907227,0.408316969871521
1782778826976871700,6.33987158203125,2.880626678466797,0.3638291358947754,0.13225793838500977
1782778826986881300,6.34988134765625,7.695121765136719,0.4701731204986572,-1.0865943431854248
1782778826996860700,6.359860595703125,13.759415626525879,1.0550906658172607,-2.3043227195739746
1782778827006870300,6.369870361328125,16.84375,2.455083131790161,-3.172215700149536
1782778827016880000,6.379880126953125,18.539722442626953,3.9541988372802734,-4.098798751831055
1782778827026859300,6.389859375,12.690826416015625,4.28193473815918,-0.6294736862182617
