time,seconds_elapsed,z,y,x
1782778882203944700,0.18994482421875,-1.1009626388549805,-0.04555287957191467,-0.113361656665802
1782778882213954600,0.19995458984375,-2.0456175804138184,-0.3641102910041809,-1.0947376489639282
1782778882223964200,0.209964111328125,-3.5595626831054688,-0.43306243419647217,-1.7556421756744385
1782778882233943600,0.219943603515625,-5.514874458312988,-0.19429171085357666,-1.7189176082611084
1782778882243953200,0.229953125,-7.491095542907715,0.114178866147995,-1.7906771898269653
1782778882253963000,0.239962890625,-9.556861877441406,0.3976746201515198,-1.508743166923523
1782778882263942400,0.2499423828125,-11.068206787109375,0.7237101197242737,-1.3015297651290894
1782778882273952300,0.2599521484375,-11.920280456542969,0.9038218259811401,-0.45706719160079956
1782778882283961900,0.2699619140625,-12.829625129699707,0.9046065807342529,-0.6120067238807678
1782778882293941200,0.279941162109375,-13.217342376708984,0.7861198782920837,-0.8996219038963318
1782778882303950800,0.289950927734375,-13.072223663330078,0.530432403087616,-0.9040048122406006
1782778882313960700,0.299960693359375,-4.326104164123535,-6.423124313354492,4.805023193359375
1782778882323939800,0.30993994140625,-0.762404203414917,-6.137096405029297,5.096116065979004
1782778882333949700,0.31994970703125,1.36345636844635,-5.598069190979004,5.186408042907715
1782778882343959300,0.329959228515625,2.337646961212158,-5.86046838760376,4.80108118057251
1782778882353938700,0.339938720703125,3.055548906326294,-5.992332935333252,4.806933403015137
1782778882363948500,0.349948486328125,3.3850183486938477,-6.092225074768066,5.095308303833008
1782778882373958100,0.359958251953125,3.4066035747528076,-6.070533275604248,5.471512794494629
1782778882383937500,0.3699375,0.7978168725967407,-3.6812047958374023,7.984684467315674
1782778882393947400,0.379947509765625,0.5061445236206055,-3.77694034576416,8.288233757019043
1782778882404170800,0.390170654296875,0.4468401074409485,-3.9402923583984375,8.350003242492676
1782778882413936000,0.39993603515625,0.48483341932296753,-4.212002277374268,8.368144035339355
1782778882423946000,0.409946044921875,0.591367244720459,-4.749975681304932,8.318711280822754
1782778882433955600,0.41995556640625,0.8336182236671448,-5.322247505187988,8.013481140136719
1782778882444044300,0.430044189453125,0.9902923107147217,-6.08731746673584,7.5153350830078125
1782778882453944800,0.43994482421875,0.918982982635498,-7.109020233154297,6.502689361572266
1782778882463954400,0.449954345703125,1.1345529556274414,-8.262877464294434,4.860040187835693
1782778882473859800,0.45985986328125,1.7640430927276611,-8.825604438781738,3.0899078845977783
1782778882483943700,0.469943603515625,2.505990743637085,-9.05111312866211,1.8101081848144531
1782778882493953300,0.479953369140625,3.613511085510254,-9.311944007873535,1.6386195421218872
1782778882503963100,0.489963134765625,4.9034929275512695,-9.82339096069336,1.2274527549743652
1782778882513942300,0.4999423828125,6.71652364730835,-9.97620677947998,0.989849865436554
1782778882523951900,0.509951904296875,9.289653778076172,-9.870704650878906,1.8810648918151855
1782778882533961700,0.519961669921875,12.084518432617188,-10.086670875549316,2.3893237113952637
1782778882543941000,0.529941162109375,14.555536270141602,-9.578387260437012,3.026508331298828
1782778882553950700,0.53995068359375,17.76327896118164,-8.538795471191406,4.256952285766602
1782778882563960600,0.549960693359375,21.413005828857422,-6.827105522155762,4.368003845214844
1782778882573940000,0.55993994140625,23.028881072998047,-5.3138837814331055,3.024784803390503
1782778882593959400,0.57995947265625,22.878786087036133,-5.040911674499512,1.5435236692428589
1782778882603938600,0.5899384765625,26.7681827545166,-5.263062000274658,0.39494413137435913
1782778882613948200,0.5999482421875,30.479337692260742,-5.8444695472717285,-0.21700549125671387
1782778882623958000,0.6099580078125,33.487518310546875,-5.834900379180908,1.2374805212020874
1782778882633937400,0.6199375,35.466251373291016,-5.141787052154541,2.6309874057769775
1782778882643947300,0.629947265625,35.652435302734375,-4.449810028076172,4.1117095947265625
1782778882653956900,0.639956787109375,35.518211364746094,-4.36815881729126,5.832573890686035
1782778882663936300,0.649936279296875,35.223358154296875,-4.395152568817139,7.760129928588867
1782778882673946000,0.659946044921875,35.00425338745117,-4.343677997589111,9.868586540222168
1782778882683955700,0.669955810546875,33.99214172363281,-4.838901996612549,9.454248428344727
1782778882693934800,0.679934814453125,31.096656799316406,-5.800951957702637,7.579917907714844
1782778882703944700,0.68994482421875,27.16345977783203,-6.455265522003174,5.851916313171387
1782778882713954600,0.69995458984375,23.71332550048828,-6.670619010925293,4.539626121520996
1782778882723964200,0.709964111328125,19.28938102722168,-6.726445198059082,3.575169563293457
1782778882733943600,0.719943603515625,15.20500659942627,-6.4649739265441895,4.197246074676514
1782778882743953200,0.729953125,12.799686431884766,-6.600672721862793,5.13321590423584
1782778882753963000,0.739962890625,11.776363372802734,-7.118023872375488,5.359378337860107
1782778882763942400,0.7499423828125,11.52511215209961,-7.900433540344238,4.787505626678467
1782778882773952000,0.759951904296875,11.424229621887207,-8.837005615234375,3.5742220878601074
1782778882783961900,0.7699619140625,11.172124862670898,-9.446377754211426,2.568772315979004
1782778882793941200,0.779941162109375,10.574212074279785,-9.907984733581543,1.8813514709472656
1782778882803950800,0.789950927734375,10.061098098754883,-10.461885452270508,0.7885750532150269
1782778882813960700,0.799960693359375,9.34751033782959,-10.721111297607422,-0.8170355558395386
1782778882823939800,0.80993994140625,8.885538101196289,-10.576873779296875,-1.6800663471221924
1782778882833949700,0.81994970703125,8.535598754882812,-10.003365516662598,-1.852257251739502
1782778882843959300,0.829959228515625,7.629415512084961,-9.906903266906738,-1.4235591888427734
1782778882853938700,0.839938720703125,5.9199323654174805,-9.104704856872559,-1.5739552974700928
1782778882863948300,0.8499482421875,3.659060478210449,-8.581451416015625,-0.891873836517334
1782778882873958100,0.859958251953125,1.7584288120269775,-8.251507759094238,0.06702995300292969
1782778882883937500,0.8699375,0.44992196559906006,-7.7742838859558105,1.474609613418579
1782778882893947400,0.879947509765625,-0.3582674264907837,-7.534856796264648,2.097593307495117
1782778882903957000,0.88995703125,-1.1782243251800537,-7.508057117462158,1.9301121234893799
1782778882913936100,0.89993603515625,-1.5649762153625488,-7.769406795501709,1.7609751224517822
1782778882923945700,0.90994580078125,-1.4773223400115967,-8.082797050476074,1.4192132949829102
1782778882933955600,0.91995556640625,-0.7752256393432617,-8.526141166687012,1.02996826171875
1782778882943935000,0.92993505859375,0.7341817617416382,-8.941858291625977,0.7188389301300049
1782778882953944800,0.93994482421875,2.2172727584838867,-9.145044326782227,0.8839808702468872
1782778882964063700,0.950063720703125,3.4449727535247803,-9.394990921020508,1.3009531497955322
1782778882973933800,0.959933837890625,4.3640241622924805,-9.65820598602295,1.4600632190704346
1782778882983943700,0.969943603515625,4.799657821655273,-9.848251342773438,1.5139728784561157
1782778882993953300,0.979953369140625,4.6649885177612305,-10.066681861877441,1.5867555141448975
1782778883003963100,0.989963134765625,4.154196262359619,-10.027847290039062,1.7935370206832886
1782778883013942300,0.9999423828125,3.3383426666259766,-9.830039978027344,2.20338773727417
1782778883023952000,1.009951904296875,2.408470392227173,-9.609418869018555,2.5114283561706543
1782778883033961700,1.019961669921875,1.7123041152954102,-9.516650199890137,2.514345407485962
1782778883044093700,1.03009375,1.5151996612548828,-9.531489372253418,2.2911229133605957
1782778883053950700,1.03995068359375,1.7311923503875732,-9.54358196258545,2.008307456970215
1782778883063960600,1.049960693359375,2.04119873046875,-9.65062427520752,1.8931127786636353
1782778883074049000,1.060049072265625,2.122542381286621,-9.725011825561523,1.7867695093154907
1782778883083949800,1.06994970703125,2.3123891353607178,-9.867375373840332,1.8467366695404053
1782778883093959400,1.07995947265625,3.064385414123535,-10.181032180786133,1.7115002870559692
1782778883103938600,1.0899384765625,3.643967390060425,-10.303526878356934,2.114405632019043
1782778883113783000,1.099782958984375,3.5980825424194336,-10.229089736938477,2.9807581901550293
1782778883123927600,1.109927490234375,3.592244863510132,-10.296660423278809,3.4782843589782715
1782778883133937400,1.1199375,3.9793872833251953,-10.692490577697754,3.2221813201904297
1782778883143947300,1.129947265625,6.415234565734863,-11.138845443725586,2.2310945987701416
1782778883153956900,1.139956787109375,11.39409065246582,-10.810952186584473,1.6120874881744385
1782778883163936300,1.149936279296875,17.3220157623291,-10.159132957458496,1.0175340175628662
1782778883173945900,1.15994580078125,20.565168380737305,-8.730588912963867,-0.32050395011901855
1782778883183955700,1.169955810546875,21.004243850708008,-6.448563575744629,-2.0363173484802246
1782778883193935000,1.17993505859375,19.08538055419922,-4.047520160675049,-0.03995466232299805
1782778883203944700,1.18994482421875,19.066749572753906,-1.9313664436340332,4.800504684448242
1782778883213954600,1.19995458984375,24.058176040649414,-1.1904921531677246,6.067352294921875
1782778883233943300,1.219943359375,34.57743453979492,-3.3870930671691895,4.164881229400635
1782778883243953200,1.229953125,36.98476028442383,-3.7218871116638184,4.148693084716797
1782778883253963000,1.239962890625,37.82398223876953,-4.315931797027588,5.033908367156982
1782778883263942400,1.2499423828125,38.93283462524414,-4.814725875854492,5.350625514984131
1782778883273952000,1.259951904296875,41.32162857055664,-5.2460784912109375,5.502923965454102
1782778883283961900,1.2699619140625,42.18602752685547,-5.996795654296875,5.580376625061035
1782778883293941200,1.279941162109375,39.77643966674805,-6.348137855529785,6.314752101898193
1782778883303950800,1.289950927734375,35.316368103027344,-6.352303504943848,7.629477500915527
1782778883313960700,1.299960693359375,29.972843170166016,-6.067663192749023,8.123961448669434
1782778883323939800,1.30993994140625,24.586185455322266,-5.777287483215332,8.08385944366455
1782778883333949700,1.31994970703125,19.790313720703125,-5.801016807556152,7.513032913208008
1782778883343959300,1.329959228515625,15.865592956542969,-6.343332290649414,6.670371055603027
1782778883353938700,1.339938720703125,13.433130264282227,-7.304481506347656,5.260909080505371
1782778883363948300,1.3499482421875,12.98824405670166,-8.957730293273926,2.720928192138672
1782778883373958100,1.359958251953125,13.246983528137207,-9.703780174255371,1.5620473623275757
1782778883383937500,1.3699375,13.099386215209961,-9.701217651367188,1.6103061437606812
1782778883393947400,1.379947509765625,12.383691787719727,-9.56067943572998,1.8209631443023682
1782778883403957000,1.38995703125,9.916925430297852,-9.515603065490723,1.792739748954773
1782778883413936000,1.39993603515625,6.605522632598877,-9.346388816833496,1.6804180145263672
1782778883423946000,1.409946044921875,4.189108848571777,-9.292489051818848,1.3010737895965576
1782778883433955600,1.41995556640625,2.511939525604248,-9.28381633758545,0.5652575492858887
1782778883443935000,1.42993505859375,2.087026834487915,-8.999723434448242,-0.2066357135772705
1782778883453944800,1.43994482421875,1.980888843536377,-8.962581634521484,0.6093766689300537
1782778883463954400,1.449954345703125,1.8647855520248413,-8.543655395507812,1.1833841800689697
1782778883474073600,1.460073486328125,1.4727994203567505,-8.37701416015625,0.4974161386489868
1782778883483943700,1.469943603515625,0.8119015693664551,-8.40908145904541,0.24542617797851562
1782778883494062300,1.480062255859375,0.3048614263534546,-8.217743873596191,0.5889815092086792
1782778883503932700,1.4899326171875,-0.017474055290222168,-8.148238182067871,0.9032622575759888
1782778883513942300,1.4999423828125,-0.11430752277374268,-8.217962265014648,0.929314136505127
1782778883523908900,1.509908935546875,0.20166146755218506,-8.302711486816406,0.5842164754867554
1782778883533931300,1.51993115234375,0.5930395126342773,-8.671439170837402,0.23295676708221436
1782778883543941000,1.529941162109375,1.2972729206085205,-9.11579418182373,-0.4214510917663574
1782778883553950700,1.53995068359375,2.004307508468628,-9.449119567871094,-1.031011939048767
1782778883563960600,1.549960693359375,2.4062647819519043,-9.676152229309082,-1.1729754209518433
1782778883573940000,1.55993994140625,2.7992589473724365,-9.851799964904785,-0.951347827911377
1782778883583949800,1.56994970703125,3.159330368041992,-10.012100219726562,-0.5174907445907593
1782778883593959400,1.57995947265625,3.4446702003479004,-10.113612174987793,-0.1250286102294922
1782778883603938600,1.5899384765625,3.4825401306152344,-10.184104919433594,0.26411008834838867
1782778883613948200,1.5999482421875,3.1273348331451416,-10.157946586608887,0.6942358016967773
1782778883623958000,1.6099580078125,2.6764211654663086,-10.027295112609863,1.0524073839187622
1782778883633937400,1.6199375,2.251160144805908,-10.000497817993164,1.2814923524856567
1782778883643751200,1.629751220703125,1.8982206583023071,-10.113837242126465,1.0939207077026367
1782778883653926400,1.639926513671875,1.6779875755310059,-10.216814994812012,0.779829740524292
1782778883663936300,1.649936279296875,1.593214988708496,-10.099379539489746,0.8233432173728943
1782778883674129200,1.660129150390625,1.652193546295166,-10.006749153137207,1.0226831436157227
1782778883684065000,1.67006494140625,1.557152271270752,-9.99322509765625,1.1692088842391968
1782778883693935000,1.67993505859375,1.722800850868225,-9.929267883300781,1.3896888494491577
1782778883703944700,1.68994482421875,2.4045627117156982,-9.803956985473633,1.8056448698043823
1782778883714064000,1.70006396484375,3.417789936065674,-9.706982612609863,2.243144989013672
1782778883723933700,1.70993359375,4.65219259262085,-9.803306579589844,2.3025918006896973
1782778883733943600,1.719943603515625,6.423247337341309,-10.11862564086914,2.150768756866455
1782778883743953200,1.729953125,9.852012634277344,-10.095612525939941,2.4252753257751465
1782778883753963000,1.739962890625,12.85637092590332,-9.641521453857422,2.9694387912750244
1782778883763942400,1.7499423828125,16.470848083496094,-9.412485122680664,2.1531729698181152
1782778883773952000,1.759951904296875,19.803220748901367,-8.665724754333496,-0.701398491859436
1782778883793941200,1.779941162109375,19.871780395507812,-6.585735321044922,-2.0276224613189697
1782778883803950800,1.789950927734375,19.61992073059082,-5.075531959533691,0.7262757420539856
1782778883813960700,1.799960693359375,23.531652450561523,-4.678647518157959,3.326695203781128
1782778883823939800,1.80993994140625,28.840652465820312,-5.43990421295166,3.4581515789031982
1782778883833949700,1.81994970703125,33.5727653503418,-6.181419372558594,2.88753604888916
1782778883843959300,1.829959228515625,36.36838150024414,-6.559997081756592,2.22275447845459
1782778883853938700,1.839938720703125,37.87443542480469,-7.655958652496338,0.7532780170440674
1782778883863948300,1.8499482421875,39.144248962402344,-9.005783081054688,-1.281796932220459
1782778883873958100,1.859958251953125,39.78940200805664,-9.133991241455078,-1.0224655866622925
1782778883883937500,1.8699375,38.93898010253906,-8.190093994140625,1.6672370433807373
1782778883893947400,1.879947509765625,37.75544357299805,-6.947091102600098,5.357938766479492
1782778883903957000,1.88995703125,36.57012939453125,-5.935275077819824,8.151333808898926
1782778883913936100,1.89993603515625,33.46528625488281,-5.601090908050537,8.573728561401367
1782778883923946000,1.909946044921875,28.23619842529297,-5.775956153869629,7.38883638381958
1782778883933955600,1.91995556640625,22.117650985717773,-5.559962749481201,6.277987003326416
1782778883943935000,1.92993505859375,17.16838836669922,-5.465911388397217,5.5593342781066895
1782778883953944800,1.93994482421875,12.943662643432617,-5.894065856933594,4.936242580413818
1782778883963954400,1.949954345703125,9.864442825317383,-6.572919845581055,4.0889997482299805
1782778883973964300,1.95996435546875,8.220952987670898,-7.537679195404053,3.2758495807647705
1782778883983943400,1.969943359375,7.955289840698242,-8.647595405578613,2.2194368839263916
1782778883993953300,1.979953369140625,9.456191062927246,-9.862650871276855,0.8836068511009216
1782778884003963100,1.989963134765625,10.965357780456543,-10.59749984741211,0.017626821994781494
1782778884013942300,1.9999423828125,11.724298477172852,-10.905393600463867,-0.30184364318847656
1782778884023952000,2.009951904296875,11.414702415466309,-11.228333473205566,-0.46361029148101807
1782778884033961700,2.019961669921875,9.757397651672363,-11.42599105834961,-0.7503279447555542
1782778884043941000,2.029941162109375,7.302738189697266,-11.376751899719238,-0.6184918880462646
1782778884053950700,2.03995068359375,4.952145576477051,-10.97008991241455,-0.21017909049987793
1782778884063960600,2.049960693359375,2.8557162284851074,-10.411595344543457,0.15212500095367432
1782778884073940000,2.05993994140625,1.5755627155303955,-10.279431343078613,-0.5449203252792358
1782778884083949800,2.06994970703125,0.9722832441329956,-9.861828804016113,0.10035693645477295
1782778884093959400,2.07995947265625,0.32885003089904785,-9.711593627929688,0.5754454731941223
1782778884103938600,2.0899384765625,0.0004439353942871094,-9.338698387145996,0.04610037803649902
1782778884113948200,2.0999482421875,-0.07717537879943848,-9.14283275604248,0.09317135810852051
1782778884123958000,2.1099580078125,-0.36214566230773926,-8.911053657531738,0.5447513461112976
1782778884133937400,2.1199375,-0.6331310272216797,-8.586989402770996,0.7813277840614319
1782778884143947300,2.129947265625,-0.6720540523529053,-8.499991416931152,1.0903595685958862
1782778884153956900,2.139956787109375,-0.68428635597229,-8.386541366577148,1.3283417224884033
1782778884163936300,2.149936279296875,-0.5907707214355469,-8.32611083984375,1.2648509740829468
1782778884173945900,2.15994580078125,-0.23653841018676758,-8.456284523010254,0.984542727470398
1782778884183955700,2.169955810546875,0.19496726989746094,-8.582136154174805,0.6219683885574341
1782778884193935000,2.17993505859375,0.48223233222961426,-8.919342994689941,0.17424297332763672
1782778884203944700,2.18994482421875,0.7911843061447144,-9.271240234375,-0.3952977657318115
1782778884213954600,2.19995458984375,0.9184725284576416,-9.512886047363281,-0.7195659875869751
1782778884223964200,2.209964111328125,1.070938229560852,-9.811110496520996,-0.8952436447143555
1782778884233943300,2.219943359375,1.5887280702590942,-9.931021690368652,-0.9687772989273071
1782778884243953200,2.229953125,2.4178216457366943,-9.75075626373291,-0.5804094076156616
1782778884253963000,2.239962890625,3.2946574687957764,-9.595383644104004,0.08741962909698486
1782778884263942400,2.2499423828125,4.120489120483398,-9.36223316192627,0.8011398315429688
1782778884273952000,2.259951904296875,4.9090070724487305,-9.24317455291748,1.1480258703231812
1782778884283961900,2.2699619140625,5.351803779602051,-9.243656158447266,1.2755614519119263
1782778884293941200,2.279941162109375,5.078362941741943,-9.342935562133789,1.2163667678833008
1782778884303950800,2.289950927734375,4.449615478515625,-9.384200096130371,1.1295757293701172
1782778884313960700,2.299960693359375,3.735990285873413,-9.655136108398438,0.9378557205200195
1782778884324049200,2.310049072265625,3.17871356010437,-9.73645305633545,0.7490729689598083
1782778884333949700,2.31994970703125,2.874577760696411,-9.960144996643066,0.9074947834014893
1782778884343959300,2.329959228515625,3.5746119022369385,-10.36117172241211,0.8399173021316528
1782778884353938700,2.339938720703125,6.216045379638672,-10.366827011108398,0.5526044368743896
1782778884363948300,2.3499482421875,9.505681991577148,-10.506121635437012,0.5764361619949341
1782778884373958100,2.359958251953125,13.726099014282227,-10.024170875549316,1.4056535959243774
1782778884383937500,2.3699375,20.01464080810547,-7.9121928215026855,2.7095508575439453
1782778884393947400,2.379947509765625,25.331539154052734,-5.557823181152344,3.8795580863952637
1782778884403957000,2.38995703125,26.18022918701172,-4.299893379211426,4.348997592926025
1782778884413936000,2.39993603515625,24.243515014648438,-3.9741811752319336,4.646363735198975
1782778884433955600,2.41995556640625,24.449766159057617,-5.407425403594971,1.7300339937210083
1782778884443935000,2.42993505859375,26.419681549072266,-5.895318031311035,0.884872317314148
1782778884453944800,2.43994482421875,28.608312606811523,-5.274775981903076,2.0115365982055664
1782778884463954400,2.449954345703125,30.280187606811523,-4.86953592300415,3.471489906311035
1782778884473964300,2.45996435546875,31.483400344848633,-5.356308460235596,3.3369944095611572
1782778884483943400,2.469943359375,31.468969345092773,-5.096184730529785,4.210848808288574
1782778884493953300,2.479953369140625,31.578262329101562,-4.5678253173828125,5.7561845779418945
1782778884503963100,2.489963134765625,32.08826446533203,-5.021506309509277,6.208227157592773
1782778884513942300,2.4999423828125,32.641143798828125,-5.968903541564941,5.9965033531188965
1782778884523951900,2.509951904296875,31.715299606323242,-6.982889175415039,5.520543575286865
1782778884533961700,2.519961669921875,28.67837142944336,-7.571444511413574,5.0983381271362305
1782778884543941000,2.529941162109375,24.503686904907227,-7.790558815002441,4.810135364532471
1782778884553950700,2.53995068359375,20.30668067932129,-7.779034614562988,4.956445693969727
1782778884563960600,2.549960693359375,16.518476486206055,-7.557499885559082,5.4274139404296875
1782778884573940000,2.55993994140625,13.758445739746094,-7.608839511871338,5.777411460876465
1782778884583949800,2.56994970703125,12.304652214050293,-8.124048233032227,5.223935604095459
1782778884593959400,2.57995947265625,11.746500015258789,-8.63308334350586,4.772891998291016
1782778884603938600,2.5899384765625,11.345588684082031,-8.75529956817627,4.502707481384277
1782778884613948200,2.5999482421875,11.354410171508789,-9.184159278869629,3.410229206085205
1782778884623958000,2.6099580078125,11.019463539123535,-9.654773712158203,1.9961750507354736
1782778884633937400,2.6199375,10.623672485351562,-9.919181823730469,0.7936536073684692
1782778884643947300,2.629947265625,10.054716110229492,-10.065534591674805,0.14010873436927795
1782778884653956900,2.639956787109375,8.99945068359375,-10.077259063720703,-0.45238667726516724
1782778884663936300,2.649936279296875,7.766091346740723,-10.12450122833252,-1.0049443244934082
1782778884673945900,2.65994580078125,6.20509147644043,-9.867898941040039,-1.4028193950653076
1782778884683955700,2.669955810546875,4.479720592498779,-9.533002853393555,-1.416761875152588
1782778884693935000,2.67993505859375,2.7705607414245605,-9.189370155334473,-1.3011261224746704
1782778884703944700,2.68994482421875,0.9417222142219543,-8.817787170410156,-1.0410594940185547
1782778884713954600,2.69995458984375,-0.3898200988769531,-8.657686233520508,-1.048667311668396
1782778884723964200,2.709964111328125,-0.9331340789794922,-8.545096397399902,-1.088505506515503
1782778884733943600,2.719943603515625,-0.9959170818328857,-8.24138069152832,-0.9294146299362183
1782778884743953200,2.729953125,-0.5445554256439209,-8.311407089233398,-0.7641797065734863
1782778884753963000,2.739962890625,-0.16946446895599365,-8.381399154663086,-0.5863069891929626
1782778884764051700,2.7500517578125,0.10362112522125244,-8.446266174316406,-0.4071052074432373
1782778884773952000,2.759951904296875,0.5050450563430786,-8.766531944274902,-0.6727595925331116
1782778884783961900,2.7699619140625,0.910617470741272,-9.231371879577637,-1.0742015838623047
1782778884793941200,2.779941162109375,1.541755199432373,-9.708778381347656,-1.3527424335479736
1782778884803950800,2.789950927734375,2.3297853469848633,-10.150598526000977,-1.6185615062713623
1782778884813960700,2.799960693359375,3.125347852706909,-10.443988800048828,-1.7116928100585938
1782778884823939800,2.80993994140625,3.7198896408081055,-10.614950180053711,-1.642578363418579
1782778884833949700,2.81994970703125,4.071240425109863,-10.459429740905762,-1.2623047828674316
1782778884843959300,2.829959228515625,4.120854377746582,-10.283441543579102,-0.6547887921333313
1782778884853938700,2.839938720703125,3.820235252380371,-10.170390129089355,-0.35680121183395386
1782778884863948300,2.8499482421875,3.470848321914673,-10.076900482177734,-0.15220454335212708
1782778884873958100,2.859958251953125,2.974985122680664,-9.990981101989746,-0.0036985576152801514
1782778884883937500,2.8699375,2.5229179859161377,-9.898483276367188,0.1210503876209259
1782778884893947400,2.879947509765625,2.2435102462768555,-9.890604019165039,0.17376109957695007
1782778884903957000,2.88995703125,1.9872596263885498,-9.800094604492188,0.17378391325473785
1782778884913708800,2.899708740234375,2.441314697265625,-9.708673477172852,0.3737497329711914
1782778884923946000,2.909946044921875,3.6632726192474365,-9.756240844726562,0.496167927980423
1782778884933955600,2.91995556640625,4.941929817199707,-9.721532821655273,0.7698220610618591
1782778884943935000,2.92993505859375,5.8408708572387695,-9.675994873046875,1.0130317211151123
1782778884953944800,2.93994482421875,5.748757362365723,-9.747177124023438,0.9378736019134521
1782778884963954400,2.949954345703125,5.355442523956299,-9.855164527893066,1.3188953399658203
1782778884973964300,2.95996435546875,5.878545761108398,-9.63194751739502,1.813952088356018
1782778884983943700,2.969943603515625,8.266105651855469,-9.154065132141113,3.316896438598633
1782778884993953300,2.979953369140625,13.396390914916992,-8.589208602905273,4.673040390014648
1782778885003963100,2.989963134765625,19.15462303161621,-7.600532054901123,5.239066123962402
1782778885013942300,2.9999423828125,24.740280151367188,-6.33719539642334,5.399178981781006
1782778885023952000,3.009951904296875,28.607379913330078,-5.373281002044678,4.756503582000732
1782778885033961700,3.019961669921875,28.30940055847168,-5.448699951171875,3.7234396934509277
1782778885043941000,3.029941162109375,26.226572036743164,-5.409298419952393,0.8131482601165771
1782778885053950700,3.03995068359375,24.275959014892578,-5.36068058013916,-3.105079412460327
1782778885073940000,3.05993994140625,23.1680850982666,-5.904101371765137,-0.5128390789031982
1782778885083949800,3.06994970703125,27.2420711517334,-4.953129768371582,4.156835556030273
1782778885093959400,3.07995947265625,31.841787338256836,-4.463754177093506,8.574469566345215
1782778885103938600,3.0899384765625,35.6488037109375,-4.004160404205322,10.242975234985352
1782778885113948200,3.0999482421875,36.33974838256836,-4.0370097160339355,9.57767105102539
1782778885123958000,3.1099580078125,33.74932861328125,-4.311551570892334,8.01929759979248
1782778885133937400,3.1199375,30.606657028198242,-4.615699291229248,6.548613548278809
1782778885143947000,3.129947021484375,28.466543197631836,-4.9836297035217285,5.498502254486084
1782778885153956900,3.139956787109375,25.98447608947754,-5.967962265014648,4.036168575286865
1782778885163936300,3.149936279296875,22.884090423583984,-6.535700798034668,2.8343327045440674
1782778885173946000,3.159946044921875,19.703502655029297,-6.827990531921387,1.9142327308654785
1782778885183955700,3.169955810546875,16.775423049926758,-6.7968292236328125,1.4474475383758545
1782778885193935000,3.17993505859375,14.434568405151367,-6.876893043518066,1.1220468282699585
1782778885203944700,3.18994482421875,12.785669326782227,-7.0565595626831055,1.0375932455062866
1782778885213954600,3.19995458984375,11.564106941223145,-7.320845603942871,1.1832724809646606
1782778885223964200,3.209964111328125,10.57262134552002,-7.593038558959961,1.2626149654388428
1782778885233943600,3.219943603515625,9.9827299118042,-7.965435028076172,1.3048887252807617
1782778885243953200,3.229953125,9.732308387756348,-8.506050109863281,1.0302894115447998
1782778885253963000,3.239962890625,9.643595695495605,-8.974395751953125,0.8213368058204651
1782778885263942400,3.2499423828125,10.584924697875977,-9.128591537475586,1.2107598781585693
1782778885273952000,3.259951904296875,10.60621452331543,-9.21357536315918,1.339327096939087
1782778885283961900,3.2699619140625,9.721120834350586,-9.342408180236816,0.9737836718559265
1782778885293941200,3.279941162109375,8.59736442565918,-9.667913436889648,0.589512825012207
1782778885303950800,3.289950927734375,7.276923179626465,-9.666389465332031,-0.07664456963539124
1782778885313960700,3.299960693359375,6.006357192993164,-9.436529159545898,-0.16818594932556152
1782778885323939800,3.30993994140625,5.034059524536133,-9.355006217956543,-0.15796297788619995
1782778885333949700,3.31994970703125,4.127751350402832,-9.317136764526367,-0.18907618522644043
1782778885343959300,3.329959228515625,3.241631269454956,-9.249505043029785,-0.2075718641281128
1782778885353938700,3.339938720703125,2.44231915473938,-9.198603630065918,0.05581772327423096
1782778885363948300,3.3499482421875,1.8732719421386719,-8.91469669342041,0.20872339606285095
1782778885373958100,3.359958251953125,1.4279539585113525,-8.846779823303223,0.4632394313812256
1782778885383937500,3.3699375,1.0827314853668213,-8.847575187683105,0.31173840165138245
1782778885394056400,3.380056396484375,0.7413440942764282,-8.869985580444336,0.07129150629043579
1782778885403926300,3.38992626953125,0.6002500057220459,-8.792831420898438,0.0025581717491149902
1782778885413936000,3.39993603515625,0.7171777486801147,-8.588264465332031,0.04056668281555176
1782778885423945700,3.40994580078125,1.0212687253952026,-8.667661666870117,-0.3237544894218445
1782778885433790200,3.419790283203125,1.4754928350448608,-8.847636222839355,-0.8298367261886597
1782778885443935000,3.42993505859375,1.948325514793396,-8.899470329284668,-0.9722920060157776
1782778885453944800,3.43994482421875,2.3361549377441406,-8.922981262207031,-0.7335373163223267
1782778885463954400,3.449954345703125,2.565742015838623,-8.96231460571289,-0.3945762515068054
1782778885474055700,3.4600556640625,2.6653671264648438,-9.001825332641602,0.02862083911895752
1782778885484052700,3.470052734375,2.6236014366149902,-9.045365333557129,0.551283597946167
1782778885493953300,3.479953369140625,2.5200624465942383,-9.162019729614258,0.9936325550079346
1782778885503963100,3.489963134765625,2.414979934692383,-9.184560775756836,1.3011343479156494
1782778885514051600,3.500051513671875,2.210516929626465,-9.166138648986816,1.5517077445983887
1782778885523951900,3.509951904296875,1.8946478366851807,-9.375370979309082,1.623591423034668
1782778885533961700,3.519961669921875,1.532444953918457,-9.695158958435059,1.1860995292663574
1782778885543941000,3.529941162109375,1.4925814867019653,-9.948780059814453,0.5966808199882507
1782778885553632800,3.5396328125,1.7812483310699463,-9.874898910522461,0.5363783836364746
1782778885563930000,3.54993017578125,2.517131805419922,-9.758574485778809,1.0511229038238525
1782778885573940000,3.55993994140625,3.409235715866089,-9.82198429107666,1.6658575534820557
1782778885583949800,3.56994970703125,4.864980697631836,-9.753521919250488,2.0001723766326904
1782778885593959400,3.57995947265625,6.238620758056641,-9.644851684570312,2.5279879570007324
1782778885603938600,3.5899384765625,7.609958648681641,-9.376142501831055,2.463144302368164
1782778885613948400,3.599948486328125,10.251729965209961,-9.050432205200195,2.0083961486816406
1782778885623958000,3.6099580078125,14.675878524780273,-8.462570190429688,1.7200415134429932
1782778885633937400,3.6199375,21.64548110961914,-7.275877952575684,1.4291306734085083
1782778885643947300,3.629947265625,27.564929962158203,-6.170767784118652,0.07760107517242432
1782778885653956900,3.639956787109375,29.059425354003906,-5.378140926361084,-0.42834460735321045
1782778885663936300,3.649936279296875,26.758516311645508,-4.483877182006836,0.814602255821228
1782778885673945900,3.65994580078125,24.390708923339844,-2.95466947555542,3.7882349491119385
1782778885683955700,3.669955810546875,25.389455795288086,-3.2172813415527344,6.652105331420898
1782778885693935000,3.67993505859375,29.71744728088379,-3.2586779594421387,7.013034820556641
1782778885713954600,3.69995458984375,37.11865234375,-3.3985800743103027,7.239177703857422
1782778885723964400,3.70996435546875,40.020137786865234,-4.6181464195251465,5.374537467956543
1782778885733943300,3.719943359375,42.10745620727539,-6.110075950622559,3.3163836002349854
1782778885743953200,3.729953125,44.01711654663086,-6.2441205978393555,3.4955484867095947
1782778885753963000,3.739962890625,43.746944427490234,-5.981086730957031,5.243076324462891
1782778885763942400,3.7499423828125,40.799720764160156,-5.846113204956055,7.531782150268555
1782778885773952000,3.759951904296875,36.63534164428711,-5.715582847595215,9.252471923828125
1782778885783961900,3.7699619140625,30.22976303100586,-5.512674808502197,9.57180404663086
1782778885793941200,3.779941162109375,23.48096466064453,-5.486481666564941,8.073357582092285
1782778885803950800,3.789950927734375,16.95330238342285,-5.6479597091674805,6.128699779510498
1782778885813960700,3.799960693359375,12.439126014709473,-5.890678405761719,4.066895008087158
1782778885823939800,3.80993994140625,9.69736099243164,-6.7252302169799805,1.9040067195892334
1782778885833949700,3.81994970703125,8.36607837677002,-7.3905134201049805,0.918452799320221
1782778885843959300,3.829959228515625,8.052618026733398,-7.942626476287842,1.0379855632781982
1782778885853938700,3.839938720703125,8.679937362670898,-8.234148979187012,1.477638840675354
1782778885863948300,3.8499482421875,10.667741775512695,-9.126638412475586,1.0408403873443604
1782778885873958100,3.859958251953125,12.462319374084473,-9.945145606994629,0.02119731903076172
1782778885883937500,3.8699375,12.809192657470703,-10.387264251708984,-0.09050154685974121
1782778885893947400,3.879947509765625,10.472051620483398,-10.401240348815918,0.25069427490234375
1782778885903957000,3.88995703125,7.3522443771362305,-10.628538131713867,-0.021719694137573242
1782778885913936100,3.89993603515625,5.0784149169921875,-10.594866752624512,-0.5359995365142822
1782778885923945700,3.90994580078125,2.4671573638916016,-10.114625930786133,0.21300101280212402
1782778885933955600,3.91995556640625,0.4423246383666992,-9.492361068725586,1.6798288822174072
1782778885943935000,3.92993505859375,-1.3919334411621094,-8.85786247253418,1.8799307346343994
1782778885953944800,3.93994482421875,-2.8648922443389893,-8.671282768249512,1.6560615301132202
1782778885963954400,3.949954345703125,-3.4229843616485596,-8.532454490661621,1.4835734367370605
1782778885973964300,3.95996435546875,-3.459221839904785,-8.353605270385742,1.366180181503296
1782778885983943700,3.969943603515625,-3.3468472957611084,-8.296801567077637,1.2551997900009155
1782778885993953300,3.979953369140625,-2.8857429027557373,-8.218441009521484,0.9431085586547852
1782778886003963100,3.989963134765625,-1.9821968078613281,-8.184654235839844,0.9384853839874268
1782778886013942300,3.9999423828125,-0.6723895072937012,-8.200923919677734,1.0114672183990479
1782778886023952000,4.009951904296875,1.071500301361084,-8.209444046020508,1.0783072710037231
1782778886033961700,4.019961669921875,2.7086939811706543,-8.372138023376465,1.3549739122390747
1782778886043941000,4.029941162109375,4.184648036956787,-8.667709350585938,1.4295700788497925
1782778886053950700,4.03995068359375,5.623656272888184,-8.945941925048828,1.165615200996399
1782778886063960600,4.049960693359375,6.716413974761963,-9.148075103759766,1.0849049091339111
1782778886073940000,4.05993994140625,7.153058052062988,-9.180919647216797,1.3464622497558594
1782778886083949800,4.06994970703125,6.796496868133545,-8.991857528686523,2.093636989593506
1782778886093959400,4.07995947265625,5.735236167907715,-8.67809009552002,2.849057197570801
1782778886103938600,4.0899384765625,4.350564956665039,-8.540163040161133,3.4795167446136475
1782778886114057500,4.100057373046875,3.2567124366760254,-8.567240715026855,3.7234244346618652
1782778886123927600,4.109927490234375,2.304823637008667,-8.38615894317627,3.644397497177124
1782778886133937400,4.1199375,1.4852514266967773,-8.388544082641602,3.524301528930664
1782778886143947000,4.129947021484375,0.892108678817749,-8.521024703979492,3.177194356918335
1782778886153956900,4.139956787109375,0.6362104415893555,-8.638474464416504,2.6724822521209717
1782778886163936300,4.149936279296875,0.8153438568115234,-8.645160675048828,2.5273046493530273
1782778886173946000,4.159946044921875,1.282547950744629,-8.411859512329102,3.1331186294555664
1782778886183955700,4.169955810546875,2.22149658203125,-8.257217407226562,3.9546961784362793
1782778886193935000,4.17993505859375,3.7306690216064453,-8.48880672454834,3.7702207565307617
1782778886203944700,4.18994482421875,5.12302827835083,-8.610249519348145,3.229431390762329
1782778886213954600,4.19995458984375,6.184941291809082,-8.450224876403809,2.907151222229004
1782778886223964400,4.20996435546875,7.214658737182617,-7.656485080718994,3.1144814491271973
1782778886233943600,4.219943603515625,9.295552253723145,-7.128857135772705,4.30666446685791
1782778886243953200,4.229953125,14.200931549072266,-6.528044700622559,5.298429489135742
1782778886253963000,4.239962890625,27.651596069335938,-4.824697017669678,4.587123870849609
1782778886263942400,4.2499423828125,35.36835479736328,-4.012137413024902,5.031098365783691
1782778886273952000,4.259951904296875,37.32394790649414,-5.120516777038574,4.237506866455078
1782778886283961900,4.2699619140625,36.73341751098633,-4.235454082489014,1.7006200551986694
1782778886293941200,4.279941162109375,32.4200325012207,-4.53206205368042,0.11086559295654297
1782778886303950800,4.289950927734375,27.777111053466797,-5.428256034851074,0.7443139553070068
1782778886313960700,4.299960693359375,24.986814498901367,-4.490024089813232,3.1668436527252197
1782778886323939800,4.30993994140625,24.526010513305664,-3.278500556945801,6.664329528808594
1782778886333949700,4.31994970703125,26.166032791137695,-3.318452835083008,9.35347843170166
1782778886353938700,4.339938720703125,29.852603912353516,-5.852329254150391,9.103452682495117
1782778886363948300,4.3499482421875,30.25299072265625,-7.939291000366211,6.8874406814575195
1782778886373958100,4.359958251953125,30.914949417114258,-9.515069007873535,4.843643665313721
1782778886383937500,4.3699375,31.012845993041992,-9.348422050476074,5.142580032348633
1782778886393947100,4.379947021484375,30.22998809814453,-8.395286560058594,6.390054702758789
1782778886403957000,4.38995703125,26.861330032348633,-7.546741485595703,6.919299125671387
1782778886413936000,4.39993603515625,21.797603607177734,-6.86810302734375,7.1732988357543945
1782778886423946000,4.409946044921875,15.621026992797852,-6.910089492797852,8.369864463806152
1782778886433955600,4.41995556640625,11.377538681030273,-7.028264999389648,7.340543746948242
1782778886443935000,4.42993505859375,8.17657470703125,-7.924345970153809,6.094766616821289
1782778886453944800,4.43994482421875,6.306675434112549,-8.588539123535156,5.027740955352783
1782778886463954400,4.449954345703125,5.973719120025635,-9.089582443237305,4.316058158874512
1782778886473964300,4.45996435546875,7.679841041564941,-9.291501998901367,4.243332386016846
1782778886483943700,4.469943603515625,9.923974990844727,-8.95676326751709,4.686013698577881
1782778886493953300,4.479953369140625,12.285411834716797,-8.703269004821777,5.352935314178467
1782778886503963100,4.489963134765625,14.795992851257324,-8.308517456054688,6.074923515319824
1782778886513942300,4.4999423828125,15.939591407775879,-7.662549018859863,6.69094181060791
1782778886523951900,4.509951904296875,14.41166877746582,-7.633793830871582,6.234534740447998
1782778886533961700,4.519961669921875,11.265286445617676,-8.13573932647705,4.435616493225098
1782778886543941000,4.529941162109375,7.762341499328613,-8.678991317749023,2.947906494140625
1782778886553950700,4.53995068359375,4.0893049240112305,-9.414100646972656,1.1369696855545044
1782778886563960600,4.549960693359375,0.8453481197357178,-9.70836067199707,-0.312849760055542
1782778886573940000,4.55993994140625,-1.4725489616394043,-9.62649154663086,-0.7651858329772949
1782778886583949800,4.56994970703125,-3.0712311267852783,-9.111515045166016,-0.6748340129852295
1782778886593959400,4.57995947265625,-4.102930068969727,-8.563210487365723,-0.269625186920166
1782778886603938600,4.5899384765625,-4.3710479736328125,-7.931596279144287,0.6840865612030029
1782778886613948400,4.599948486328125,-4.081622123718262,-7.58340311050415,1.333016276359558
1782778886623958000,4.6099580078125,-3.130746364593506,-7.738150119781494,1.2255384922027588
1782778886633937400,4.6199375,-1.1685330867767334,-7.697640419006348,1.411400556564331
1782778886643947300,4.629947265625,0.8550772666931152,-7.922550678253174,1.7787069082260132
1782778886653956900,4.639956787109375,2.531409978866577,-8.125992774963379,1.8821182250976562
1782778886663936300,4.649936279296875,3.629520893096924,-8.248146057128906,2.128830671310425
1782778886673946000,4.659946044921875,4.190777778625488,-8.514657020568848,2.4140889644622803
1782778886683896000,4.66989599609375,4.23972225189209,-8.759272575378418,2.4280924797058105
1782778886694864000,4.68086376953125,4.020951271057129,-8.773740768432617,2.609377861022949
1782778886713954600,4.69995458984375,2.5904359817504883,-8.95943546295166,3.569614887237549
1782778886723964400,4.70996435546875,1.3256454467773438,-9.173739433288574,3.8316025733947754
1782778886733943600,4.719943603515625,0.37045764923095703,-9.602517127990723,3.7564194202423096
1782778886743953200,4.729953125,-0.14018356800079346,-9.923973083496094,3.2635908126831055
1782778886753963000,4.739962890625,0.08371913433074951,-10.25928020477295,2.5534675121307373
1782778886764051700,4.7500517578125,0.6088061332702637,-10.593169212341309,1.618927240371704
1782778886773952000,4.759951904296875,1.1070736646652222,-10.658221244812012,1.517326831817627
1782778886783902200,4.769902099609375,2.012861490249634,-10.853574752807617,2.4975454807281494
1782778886794032600,4.78003271484375,3.439858913421631,-10.602143287658691,3.532238245010376
1782778886803950800,4.789950927734375,4.9104228019714355,-10.021737098693848,4.391692161560059
1782778886813960700,4.799960693359375,6.74031925201416,-9.91490650177002,5.297328472137451
1782778886823939800,4.80993994140625,9.31810474395752,-9.544270515441895,5.370301246643066
1782778886833949700,4.81994970703125,16.944786071777344,-9.425681114196777,4.042913913726807
1782778886843959300,4.829959228515625,22.283178329467773,-8.834383964538574,2.2912423610687256
1782778886853938700,4.839938720703125,25.89033317565918,-8.420554161071777,2.5935027599334717
1782778886863948300,4.8499482421875,27.422138214111328,-8.313201904296875,5.0941619873046875
1782778886873958100,4.859958251953125,27.74555778503418,-7.0012617111206055,5.442030906677246
1782778886883937500,4.8699375,28.751924514770508,-7.392263412475586,4.986441612243652
1782778886893947400,4.879947509765625,29.212474822998047,-7.454229354858398,3.138444662094116
1782778886913936100,4.89993603515625,30.239675521850586,-5.163825988769531,3.2322134971618652
1782778886923946000,4.909946044921875,31.26972770690918,-4.108978748321533,2.160383939743042
1782778886933955600,4.91995556640625,30.767810821533203,-3.6642775535583496,1.886096477508545
1782778886943935000,4.92993505859375,28.840389251708984,-3.895693778991699,2.7374730110168457
1782778886953944800,4.93994482421875,26.806259155273438,-4.766493320465088,3.9329214096069336
1782778886963954400,4.949954345703125,26.62023162841797,-6.15692138671875,4.836856842041016
1782778886973964300,4.95996435546875,27.871776580810547,-6.635924339294434,6.75255823135376
1782778886983943400,4.969943359375,29.910491943359375,-6.708043575286865,7.462805271148682
1782778886993953300,4.979953369140625,30.630693435668945,-6.661430358886719,6.567798614501953
1782778887003963100,4.989963134765625,29.237462997436523,-6.494604110717773,5.302729606628418
1782778887013942300,4.9999423828125,25.332706451416016,-6.23887825012207,4.954627513885498
1782778887023952000,5.009951904296875,20.211421966552734,-5.9488067626953125,5.529983997344971
1782778887033961700,5.019961669921875,15.32615852355957,-6.013372421264648,6.141731262207031
1782778887043941000,5.029941162109375,11.345479965209961,-6.500001907348633,6.182681560516357
1782778887053950700,5.03995068359375,8.824381828308105,-7.691593170166016,5.81239128112793
1782778887063960600,5.049960693359375,8.433084487915039,-8.806259155273438,4.533519268035889
1782778887073940000,5.05993994140625,8.364169120788574,-9.625992774963379,3.1237339973449707
1782778887083890000,5.069889892578125,8.936054229736328,-10.202279090881348,1.9467591047286987
1782778887094813000,5.08081298828125,9.068638801574707,-10.303004264831543,1.3575031757354736
1782778887113948400,5.099948486328125,7.202546119689941,-10.010076522827148,1.1839442253112793
1782778887123958000,5.1099580078125,6.125364780426025,-9.263731956481934,1.4571990966796875
1782778887133937400,5.1199375,4.624940872192383,-8.636366844177246,2.8398308753967285
1782778887143947300,5.129947265625,3.331749439239502,-7.968046188354492,3.061634063720703
1782778887153956900,5.139956787109375,1.9692838191986084,-7.609370708465576,2.519810676574707
1782778887164029200,5.150029296875,0.5435688495635986,-7.461308002471924,1.9293110370635986
1782778887174857200,5.160857177734375,-0.2247833013534546,-7.2630205154418945,1.5433998107910156
1782778887193935000,5.17993505859375,-2.172834634780884,-6.965325832366943,1.7685809135437012
1782778887203944700,5.18994482421875,-2.5869016647338867,-7.12113094329834,1.4114983081817627
1782778887213894700,5.199894775390625,-2.070294141769409,-7.438378810882568,1.038623571395874
1782778887224025300,5.210025390625,-1.0546131134033203,-7.727610111236572,0.9451181888580322
1782778887233943300,5.219943359375,0.1777355670928955,-8.017387390136719,1.0541207790374756
1782778887243953200,5.229953125,1.2880157232284546,-8.307159423828125,1.3604705333709717
1782778887253963000,5.239962890625,2.2304978370666504,-8.408394813537598,1.8431693315505981
1782778887263942400,5.2499423828125,3.2007229328155518,-8.324078559875488,2.3346025943756104
1782778887273952300,5.2599521484375,3.7036001682281494,-8.394906997680664,2.4820642471313477
1782778887283961900,5.2699619140625,3.3734042644500732,-8.382709503173828,2.664914608001709
1782778887293941200,5.279941162109375,2.2988243103027344,-8.381046295166016,2.8564040660858154
1782778887303950800,5.289950927734375,1.337169885635376,-8.391257286071777,2.9165380001068115
1782778887314008800,5.3000087890625,0.8115177154541016,-8.530524253845215,3.0524353981018066
1782778887323939800,5.30993994140625,0.5586566925048828,-8.842127799987793,2.994976043701172
1782778887333949700,5.31994970703125,0.6512229442596436,-9.071613311767578,2.857778549194336
1782778887343959300,5.329959228515625,1.143817663192749,-9.306906700134277,3.017085075378418
1782778887353559600,5.3395595703125,1.6884136199951172,-9.500085830688477,3.119734287261963
1782778887363948300,5.3499482421875,2.006497859954834,-9.704066276550293,3.1685593128204346
1782778887373958100,5.359958251953125,2.5030806064605713,-10.110915184020996,3.068305730819702
1782778887383937500,5.3699375,3.4460465908050537,-10.330462455749512,2.706477642059326
1782778887393947100,5.379947021484375,4.624931335449219,-10.434739112854004,2.4223382472991943
1782778887403957000,5.38995703125,5.713962554931641,-10.624201774597168,2.6780972480773926
1782778887413936000,5.39993603515625,6.656398773193359,-10.68320369720459,3.8496007919311523
1782778887423946000,5.409946044921875,8.731943130493164,-10.172698974609375,5.593334197998047
1782778887433955600,5.41995556640625,13.728639602661133,-8.988181114196777,6.87478494644165
1782778887443935000,5.42993505859375,21.132522583007812,-7.739326000213623,7.594650745391846
1782778887453944800,5.43994482421875,25.414215087890625,-7.168733596801758,5.147769451141357
1782778887473964300,5.45996435546875,27.46756362915039,-7.213618755340576,2.709794044494629
1782778887483943700,5.469943603515625,26.659343719482422,-5.767650127410889,2.5612478256225586
1782778887493953300,5.479953369140625,26.980438232421875,-4.615912914276123,3.574057102203369
1782778887503963100,5.489963134765625,27.760311126708984,-4.178358554840088,5.276697158813477
1782778887513942300,5.4999423828125,28.633085250854492,-3.3839292526245117,6.200634002685547
1782778887523951900,5.509951904296875,29.323596954345703,-2.427340030670166,5.89137077331543
1782778887533961700,5.519961669921875,29.640987396240234,-2.756143569946289,5.565945625305176
1782778887543941000,5.529941162109375,28.7636661529541,-3.772609233856201,6.525994777679443
1782778887553951000,5.539950927734375,27.59871482849121,-5.115958213806152,8.350682258605957
1782778887563960600,5.549960693359375,28.717601776123047,-6.756515026092529,9.109207153320312
1782778887573880300,5.55988037109375,31.696638107299805,-8.28493881225586,8.767471313476562
1782778887584010800,5.5700107421875,34.777347564697266,-9.39987850189209,7.7726593017578125
1782778887593959400,5.57995947265625,35.286685943603516,-9.593555450439453,6.742854118347168
1782778887603938600,5.5899384765625,32.551368713378906,-8.864128112792969,6.520718574523926
1782778887613948400,5.599948486328125,27.17169189453125,-7.576200485229492,7.111274719238281
1782778887623958000,5.6099580078125,21.552318572998047,-6.650697708129883,6.796428680419922
1782778887633937400,5.6199375,16.283430099487305,-6.125629425048828,6.333257675170898
1782778887643947300,5.629947265625,11.46582317352295,-6.376176357269287,5.947153091430664
1782778887653897200,5.639897216796875,8.444210052490234,-7.221135139465332,5.03557014465332
1782778887663968000,5.649968017578125,7.922762870788574,-8.372328758239746,3.399324893951416
1782778887674007000,5.660007080078125,9.27957820892334,-9.717375755310059,2.3792600631713867
1782778887683896000,5.66989599609375,11.605042457580566,-10.810938835144043,0.5316855907440186
1782778887694821000,5.680821044921875,12.492433547973633,-11.31747817993164,0.02123737335205078
1782778887713954600,5.69995458984375,10.26581859588623,-10.846501350402832,0.7372426986694336
1782778887723964400,5.70996435546875,8.410306930541992,-10.078241348266602,1.1303255558013916
1782778887733943600,5.719943603515625,6.465281963348389,-9.447668075561523,2.1173908710479736
1782778887743953200,5.729953125,4.416466236114502,-8.625061988830566,3.2285282611846924
1782778887753963000,5.739962890625,2.2378602027893066,-8.067756652832031,2.754666328430176
1782778887763882800,5.7498828125,0.27508771419525146,-7.9181599617004395,1.7621310949325562
1782778887778617300,5.764617431640625,-1.2738624811172485,-7.523646354675293,0.494256854057312
1782778887793941200,5.779941162109375,-2.0656073093414307,-7.213272571563721,0.8874808549880981
1782778887803950800,5.789950927734375,-2.1781907081604004,-7.141622543334961,0.9330990314483643
1782778887813960700,5.799960693359375,-1.9766123294830322,-7.474283218383789,0.5939780473709106
1782778887823939800,5.80993994140625,-1.5391614437103271,-7.892657279968262,0.07644939422607422
1782778887833949700,5.81994970703125,-0.7666985988616943,-8.248478889465332,-0.2983436584472656
1782778887843959300,5.829959228515625,0.44951701164245605,-8.458711624145508,-0.1337897777557373
1782778887853938700,5.839938720703125,1.8473639488220215,-8.712230682373047,0.38531219959259033
1782778887863948300,5.8499482421875,2.718627452850342,-8.738485336303711,1.0853694677352905
1782778887873639200,5.85963916015625,3.0946269035339355,-8.869633674621582,1.3573516607284546
1782778887883937500,5.8699375,3.295391321182251,-9.093192100524902,1.2119810581207275
1782778887893947100,5.879947021484375,3.2349300384521484,-9.205764770507812,1.3038462400436401
1782778887903957000,5.88995703125,3.1081013679504395,-9.255166053771973,1.414141058921814
1782778887913936100,5.89993603515625,2.749406337738037,-9.043274879455566,1.4464751482009888
1782778887924055000,5.910054931640625,1.8785390853881836,-8.903024673461914,1.7445507049560547
1782778887933955600,5.91995556640625,0.7988146543502808,-8.681448936462402,2.3024215698242188
1782778887943935000,5.92993505859375,0.21869707107543945,-8.579758644104004,2.714315891265869
1782778887953944800,5.93994482421875,0.4396708011627197,-8.636468887329102,2.800172805786133
1782778887963954400,5.949954345703125,1.475735068321228,-8.505946159362793,2.582131862640381
1782778887973904600,5.959904541015625,2.8148062229156494,-8.580748558044434,2.2145462036132812
1782778887984035000,5.97003515625,3.9805004596710205,-8.736369132995605,1.8285934925079346
1782778887993953300,5.979953369140625,4.738471984863281,-8.852981567382812,1.6946227550506592
1782778888003963100,5.989963134765625,5.440288543701172,-8.84264087677002,2.153411865234375
1782778888013942300,5.9999423828125,5.645084381103516,-8.988354682922363,2.90568208694458
1782778888023952000,6.009951904296875,6.90681266784668,-8.908323287963867,3.665008068084717
1782778888033961700,6.019961669921875,10.062423706054688,-8.396812438964844,4.084256172180176
1782778888043941000,6.029941162109375,16.639862060546875,-8.73276138305664,3.6378469467163086
1782778888053950700,6.03995068359375,29.483657836914062,-8.303439140319824,2.3596572875976562
1782778888063960600,6.049960693359375,32.590118408203125,-7.594320297241211,-0.5046031475067139
1782778888073940000,6.05993994140625,30.798542022705078,-7.530736923217773,0.8845616579055786
1782778888083949600,6.069949462890625,25.012372970581055,-6.473863124847412,1.1604373455047607
1782778888093959400,6.07995947265625,21.22435188293457,-4.678667068481445,2.3826093673706055
1782778888113948400,6.099948486328125,25.820228576660156,-3.0356087684631348,2.049602508544922
1782778888123958000,6.1099580078125,29.31072998046875,-3.0973172187805176,2.0966873168945312
1782778888133937400,6.1199375,31.231794357299805,-3.0033321380615234,1.0346238613128662
1782778888143887400,6.129887451171875,31.153972625732422,-3.4983701705932617,-0.1287999153137207
1782778888154018000,6.14001806640625,30.690502166748047,-3.534628391265869,-0.09668052196502686
1782778888163936300,6.149936279296875,29.56774139404297,-3.779780864715576,1.6095263957977295
1782778888173886500,6.159886474609375,29.271642684936523,-4.223154067993164,4.346979141235352
1782778888183957200,6.169957275390625,30.452564239501953,-4.5565361976623535,6.876199722290039
1782778888194026800,6.18002685546875,32.99076461791992,-4.989115238189697,7.186032295227051
1782778888203945000,6.189945068359375,33.92277908325195,-5.74806022644043,5.007084846496582
1782778888213954600,6.19995458984375,31.467512130737305,-6.319894313812256,2.2651729583740234
1782778888223964400,6.20996435546875,26.863855361938477,-5.936019420623779,1.589503526687622
1782778888233943300,6.219943359375,21.7734317779541,-5.200117588043213,2.0588204860687256
1782778888243953200,6.229953125,16.850778579711914,-4.6774797439575195,2.498819351196289
1782778888253963000,6.239962890625,12.76315975189209,-4.78205680847168,2.3689489364624023
1782778888263882800,6.2498828125,10.127626419067383,-5.686670303344727,1.7836252450942993
1782778888274013200,6.26001318359375,8.917537689208984,-6.848756790161133,1.2942466735839844
1782778888283902200,6.269902099609375,8.548190116882324,-7.912857532501221,1.0416542291641235
1782778888294696200,6.2806962890625,9.544631004333496,-9.268905639648438,0.010562300682067871
1782778888313960700,6.299960693359375,11.392936706542969,-10.59682846069336,-1.2017822265625
1782778888323939800,6.30993994140625,11.377965927124023,-10.5950345993042,-0.9738850593566895
1782778888333949700,6.31994970703125,10.039018630981445,-10.017858505249023,0.1195979118347168
1782778888343959300,6.329959228515625,8.487337112426758,-9.08755111694336,1.6351696252822876
1782778888353938700,6.339938720703125,7.0369462966918945,-8.051210403442383,3.3545236587524414
1782778888363948300,6.3499482421875,5.634908676147461,-7.03013801574707,5.782278537750244
1782778888373958100,6.359958251953125,3.991896629333496,-6.504413604736328,4.990447044372559
1782778888383937500,6.3699375,2.4487991333007812,-6.953648567199707,3.527179718017578
1782778888393947400,6.379947509765625,1.2755513191223145,-7.558603763580322,1.2044868469238281
1782778888403957000,6.38995703125,0.44359445571899414,-8.201131820678711,-0.9297945499420166
1782778888413936000,6.39993603515625,0.04656171798706055,-8.511478424072266,-1.633487582206726
1782778888423946000,6.409946044921875,-0.48972153663635254,-8.426535606384277,-1.296723484992981
1782778888433955600,6.41995556640625,-0.7886841297149658,-8.364763259887695,-0.8550102710723877
1782778888443935000,6.42993505859375,-0.35273027420043945,-8.16247844696045,-0.4258918762207031
1782778888453944800,6.43994482421875,0.6643521785736084,-8.02065372467041,0.4344213008880615
1782778888463954700,6.44995458984375,2.053420066833496,-8.203096389770508,0.583074688911438
1782778888473964300,6.45996435546875,3.237743377685547,-8.549203872680664,0.42547309398651123
1782778888483900200,6.469900146484375,4.528977394104004,-8.984391212463379,0.5994985103607178
1782778888493953300,6.479953369140625,5.499650001525879,-9.284919738769531,0.8209344148635864
1782778888503963000,6.489962890625,5.807027816772461,-9.480862617492676,0.926127016544342
1782778888513942300,6.4999423828125,5.860179901123047,-9.531426429748535,1.0627228021621704
1782778888523951900,6.509951904296875,5.886904239654541,-9.458671569824219,1.045515775680542
1782778888533961700,6.519961669921875,4.717546463012695,-9.27217960357666,1.0243399143218994
1782778888543941000,6.529941162109375,3.0438954830169678,-8.912203788757324,1.3143342733383179
1782778888553950700,6.53995068359375,1.5772104263305664,-8.572731018066406,2.0012271404266357
1782778888563960600,6.549960693359375,0.43056797981262207,-8.398601531982422,2.587181568145752
1782778888573910800,6.559910888671875,-0.01105642318725586,-8.450900077819824,2.471007823944092
1782778888584010800,6.5700107421875,0.4168274402618408,-8.626739501953125,2.04156231880188
1782778888593959400,6.57995947265625,1.5930228233337402,-8.8165283203125,1.6139246225357056
1782778888603938600,6.5899384765625,2.9734768867492676,-8.845582962036133,1.0941367149353027
1782778888613948400,6.599948486328125,3.9451873302459717,-9.09560489654541,1.0971800088882446
1782778888623521800,6.609521728515625,4.519038200378418,-9.244915008544922,1.755678653717041
1782778888633967900,6.6199677734375,5.226349353790283,-8.994361877441406,3.2033498287200928
1782778888643947300,6.629947265625,6.979710102081299,-8.06546401977539,4.4549665451049805
1782778888653956900,6.639956787109375,10.751956939697266,-6.647723197937012,4.65408182144165
1782778888663936300,6.649936279296875,16.701772689819336,-5.059286117553711,4.366326332092285
1782778888673946000,6.659946044921875,29.223796844482422,-3.6797914505004883,3.2886476516723633
1782778888683896000,6.66989599609375,31.149471282958984,-3.442945957183838,1.2493661642074585
1782778888695187700,6.681187744140625,29.83771514892578,-3.1958227157592773,2.6275033950805664
1782778888713954600,6.69995458984375,25.45088768005371,-0.32030773162841797,3.020571231842041
1782778888723964400,6.70996435546875,24.752052307128906,0.852656364440918,3.2121191024780273
1782778888733943600,6.719943603515625,24.35682487487793,2.343587875366211,4.16077184677124
1782778888753963000,6.739962890625,24.43132972717285,2.064650535583496,4.015974044799805
1782778888763942400,6.7499423828125,27.675212860107422,-0.23470783233642578,3.015502452850342
1782778888773892400,6.759892333984375,30.457225799560547,-2.3632283210754395,4.157589912414551
1782778888784023000,6.77002294921875,34.78632354736328,-4.099108695983887,5.691095352172852
1782778888793881300,6.77988134765625,39.52096176147461,-5.352128982543945,6.085930347442627
1782778888804012000,6.790011962890625,41.72578430175781,-5.884432792663574,6.2674970626831055
1782778888813960700,6.799960693359375,40.030731201171875,-5.586987495422363,6.857850551605225
1782778888823939800,6.80993994140625,35.1624755859375,-5.157540798187256,6.64750862121582
1782778888833949700,6.81994970703125,29.745210647583008,-4.612257957458496,6.537955284118652
1782778888843959300,6.829959228515625,24.82569694519043,-4.2999796867370605,5.833227634429932
1782778888853938700,6.839938720703125,18.790632247924805,-4.649110317230225,4.268819332122803
1782778888863948300,6.8499482421875,14.103909492492676,-5.440676689147949,2.796196460723877
1782778888873958100,6.859958251953125,10.640702247619629,-6.441638946533203,1.557133674621582
1782778888883937500,6.8699375,8.765535354614258,-7.461045265197754,0.8305408954620361
1782778888893947400,6.879947509765625,8.466585159301758,-8.504666328430176,0.49595069885253906
1782778888903957000,6.88995703125,9.244977951049805,-8.870279312133789,-0.12289667129516602
1782778888913936100,6.89993603515625,9.68871784210205,-9.25341510772705,0.3516824245452881
1782778888923946000,6.909946044921875,9.986593246459961,-9.285076141357422,0.9094148874282837
1782778888933955600,6.91995556640625,10.234307289123535,-9.054986953735352,1.536539077758789
1782778888943935000,6.92993505859375,9.800217628479004,-8.904742240905762,1.48958158493042
1782778888953944800,6.93994482421875,8.255304336547852,-8.294384956359863,1.7981925010681152
1782778888963954400,6.949954345703125,6.16285514831543,-8.006422996520996,1.8578122854232788
1782778888973964300,6.95996435546875,4.183693885803223,-7.884115219116211,1.5364524126052856
1782778888983943700,6.969943603515625,2.7949209213256836,-7.790131568908691,0.9920345544815063
1782778888994062300,6.980062255859375,1.7409271001815796,-7.707127571105957,0.6030669212341309
1782778889003932400,6.989932373046875,1.4108378887176514,-6.965478897094727,-0.1252460479736328
1782778889013942300,6.9999423828125,-0.7976765632629395,-7.650007247924805,-0.10739278793334961
1782778889023952000,7.009951904296875,-1.9982025623321533,-7.853869915008545,0.12409460544586182
1782778889033961700,7.019961669921875,-1.082566261291504,-7.512088775634766,0.9581655263900757
1782778889043941000,7.029941162109375,0.4442298412322998,-7.882965564727783,1.4153180122375488
1782778889053950700,7.03995068359375,2.5840702056884766,-8.368972778320312,0.3672903776168823
1782778889063960600,7.049960693359375,4.077359199523926,-8.400894165039062,0.09060287475585938
1782778889073940000,7.05993994140625,4.831257343292236,-8.247835159301758,1.012103796005249
1782778889084059000,7.070058837890625,3.202096462249756,-8.654423713684082,0.5239911079406738
1782778889093929000,7.079928955078125,0.18523931503295898,-8.314207077026367,0.538306474685669
