time,seconds_elapsed,z,y,x
1782778806285665500,0.19966552734375,-3.3308157920837402,-0.14055180549621582,-7.687429428100586
1782778806295675100,0.209675048828125,-3.243072509765625,-0.12385360896587372,-7.5489325523376465
1782778806305685000,0.21968505859375,-2.965362071990967,0.06918972730636597,-7.6490159034729
1782778806315694600,0.229694580078125,-2.9301130771636963,0.5707525014877319,-7.580379962921143
1782778806325673700,0.239673828125,-3.088131904602051,-0.5442596673965454,-7.812291145324707
1782778806335683600,0.24968359375,-2.816166877746582,-1.6639683246612549,-8.700631141662598
1782778806345693400,0.259693359375,-1.8383651971817017,-2.670928955078125,-9.25700855255127
1782778806355672600,0.269672607421875,-0.2899761199951172,-3.041171073913574,-9.91566276550293
1782778806365682400,0.279682373046875,0.8706138134002686,-1.9013091325759888,-9.39989948272705
1782778806375692300,0.2896923828125,2.423090934753418,0.04448568820953369,-8.172125816345215
1782778806385671400,0.29967138671875,5.064346790313721,1.7636387348175049,-7.126906394958496
1782778806395681300,0.309681396484375,7.498989582061768,4.498167514801025,-7.576422691345215
1782778806405691000,0.31969091796875,9.931605339050293,8.151132583618164,-10.506845474243164
1782778806415670000,0.329669921875,9.49260425567627,11.924833297729492,-13.607694625854492
1782778806425680000,0.339679931640625,7.030146598815918,15.513185501098633,-14.325597763061523
1782778806435689700,0.349689697265625,4.831721782684326,19.862398147583008,-13.6602783203125
1782778806445668900,0.3596689453125,5.211179733276367,21.296424865722656,-11.177560806274414
1782778806455678700,0.3696787109375,10.914466857910156,19.52454948425293,-7.933497428894043
1782778806465688600,0.3796884765625,21.264162063598633,18.7905330657959,-4.540790557861328
1782778806475667700,0.389667724609375,35.31359100341797,18.069194793701172,-0.41025495529174805
1782778806485677600,0.399677490234375,50.00491714477539,16.082162857055664,0.9025545120239258
1782778806495687200,0.409687255859375,56.42561340332031,13.944934844970703,-3.570352554321289
1782778806505666600,0.41966650390625,52.721866607666016,12.80476188659668,-10.235173225402832
1782778806515676200,0.42967626953125,42.97869873046875,12.011053085327148,-13.942569732666016
1782778806525686000,0.43968603515625,31.378890991210938,12.561963081359863,-13.699371337890625
1782778806535665400,0.44966552734375,20.986507415771484,14.187225341796875,-10.237323760986328
1782778806545675000,0.459675048828125,13.117080688476562,15.8150634765625,-6.053515434265137
1782778806555684900,0.469684814453125,6.621351718902588,16.47278594970703,-5.08756160736084
1782778806565664300,0.479664306640625,1.8557181358337402,15.4158935546875,-6.566177845001221
1782778806575673900,0.489673828125,-0.655543327331543,12.373407363891602,-10.19772720336914
1782778806585683700,0.49968359375,-0.4679079055786133,9.035109519958496,-12.95423412322998
1782778806595693300,0.509693359375,1.8698420524597168,6.18937349319458,-13.448674201965332
1782778806605672700,0.519672607421875,4.634593963623047,3.6410489082336426,-13.33751106262207
1782778806615682300,0.529682373046875,7.7927470207214355,1.6748485565185547,-13.411503791809082
1782778806625692200,0.539692138671875,14.054829597473145,0.8722623586654663,-11.712686538696289
1782778806635671300,0.54967138671875,16.23014259338379,0.18519878387451172,-9.332887649536133
1782778806645681200,0.55968115234375,15.849176406860352,2.5768187046051025,-7.344345569610596
1782778806655691000,0.56969091796875,13.065321922302246,4.885108470916748,-3.877976894378662
1782778806665670100,0.579670166015625,7.672110557556152,4.9242424964904785,-1.8510513305664062
1782778806675680000,0.589679931640625,2.200439691543579,4.04131555557251,-2.915727138519287
1782778806685689900,0.59968994140625,-1.0342113971710205,3.6945879459381104,-7.36097526550293
1782778806695669000,0.6096689453125,-0.8658523559570312,3.7656946182250977,-12.935503959655762
1782778806705678800,0.619678955078125,-0.0580441951751709,3.2424044609069824,-14.823463439941406
1782778806715688400,0.6296884765625,-0.3990328311920166,3.578097105026245,-12.425103187561035
1782778806725667600,0.63966748046875,-0.39551496505737305,4.079362392425537,-10.059392929077148
1782778806735677400,0.649677490234375,1.1340503692626953,4.154714107513428,-8.910856246948242
1782778806745687300,0.659687255859375,3.4157044887542725,6.288206100463867,-11.269342422485352
1782778806755666700,0.669666748046875,3.1973583698272705,4.562623977661133,-5.981583118438721
1782778806765676300,0.67967626953125,4.565237522125244,4.3946943283081055,-4.476570129394531
1782778806775686100,0.68968603515625,4.763827800750732,2.8569536209106445,-6.41945743560791
1782778806785665500,0.69966552734375,3.5727028846740723,1.6676251888275146,-9.219183921813965
1782778806795675100,0.709675048828125,0.8006815910339355,1.8501052856445312,-11.401838302612305
1782778806805685000,0.71968505859375,-3.091379165649414,2.495859384536743,-12.978347778320312
1782778806815664000,0.7296640625,-7.7386980056762695,2.195490598678589,-11.728013038635254
1782778806825673700,0.739673828125,-7.555489540100098,1.5158463716506958,-11.405112266540527
1782778806835683600,0.74968359375,-2.6335506439208984,1.2903393507003784,-12.047029495239258
1782778806845693400,0.759693359375,0.5343618392944336,1.3484930992126465,-11.018625259399414
1782778806855672600,0.769672607421875,2.2960197925567627,1.8046753406524658,-10.036209106445312
1782778806865682400,0.779682373046875,3.1488449573516846,1.9462203979492188,-9.312860488891602
1782778806875692300,0.7896923828125,2.5833773612976074,1.986985445022583,-9.216299057006836
1782778806885671400,0.79967138671875,-0.3813796043395996,1.524808406829834,-10.252761840820312
1782778806895681300,0.809681396484375,-4.18114709854126,0.8398488759994507,-9.802361488342285
1782778806905691000,0.81969091796875,-7.04559326171875,0.5704268217086792,-8.9449462890625
1782778806915670000,0.829669921875,-7.191287994384766,1.9334454536437988,-7.68964958190918
1782778806925679900,0.839679931640625,-6.197618007659912,3.2758917808532715,-6.7732415199279785
1782778806935689700,0.849689697265625,-6.116667747497559,2.476255178451538,-7.905084133148193
1782778806945668900,0.8596689453125,-5.7697882652282715,1.2371931076049805,-9.660113334655762
1782778806955678700,0.8696787109375,-5.0324201583862305,0.7003135681152344,-11.09169864654541
1782778806965688600,0.8796884765625,-4.506226062774658,0.9471104145050049,-10.39149284362793
1782778806975667700,0.889667724609375,-3.8946588039398193,1.9585933685302734,-8.305721282958984
1782778806985677600,0.899677490234375,-3.446519374847412,2.5227839946746826,-6.92149019241333
1782778806995644200,0.90964404296875,-3.410482406616211,2.5991017818450928,-7.7518205642700195
1782778807005666600,0.91966650390625,-3.438910722732544,2.337019920349121,-8.343880653381348
1782778807015676200,0.92967626953125,-3.4250552654266357,2.4754693508148193,-8.63089370727539
1782778807025686000,0.93968603515625,-3.604334592819214,2.5671699047088623,-8.383779525756836
1782778807035909400,0.949909423828125,-3.873433828353882,2.0789172649383545,-8.197148323059082
1782778807045675000,0.959675048828125,-3.7718772888183594,-1.6336989402770996,-10.894429206848145
1782778807055684900,0.969684814453125,-1.9506092071533203,0.37645936012268066,-12.41774845123291
1782778807065664300,0.979664306640625,-0.7476110458374023,3.0561559200286865,-9.865348815917969
1782778807075673900,0.989673828125,1.4219214916229248,3.9997897148132324,-7.913241386413574
1782778807085683700,0.99968359375,6.118398666381836,5.969677925109863,-7.9634881019592285
1782778807095693300,1.009693359375,8.843635559082031,7.412822723388672,-7.695232391357422
1782778807105672700,1.019672607421875,10.793464660644531,10.186212539672852,-8.10401439666748
1782778807115682600,1.0296826171875,12.494091033935547,14.637701034545898,-5.678830146789551
1782778807125692200,1.039692138671875,14.133691787719727,16.249248504638672,-6.027774810791016
1782778807135671300,1.04967138671875,18.573341369628906,18.06793785095215,-9.454272270202637
1782778807145681200,1.05968115234375,21.29057502746582,19.32774543762207,-12.285399436950684
1782778807155691000,1.06969091796875,19.323720932006836,19.69443130493164,-9.925870895385742
1782778807165670100,1.079670166015625,16.080747604370117,20.911575317382812,-6.434417724609375
1782778807175680000,1.089679931640625,15.360401153564453,21.942768096923828,-2.9175424575805664
1782778807185689900,1.09968994140625,18.731416702270508,21.11034393310547,-2.1488943099975586
1782778807195669000,1.1096689453125,22.624462127685547,19.15519142150879,-2.8950982093811035
1782778807205678800,1.119678955078125,26.08115577697754,16.781269073486328,-4.1817474365234375
1782778807215688400,1.1296884765625,29.775667190551758,14.335107803344727,-5.064268112182617
1782778807225667600,1.13966748046875,31.972497940063477,12.47762680053711,-4.157475471496582
1782778807235677400,1.149677490234375,32.61587905883789,11.573113441467285,-1.9844255447387695
1782778807245687300,1.159687255859375,31.272449493408203,11.905158042907715,-1.5747766494750977
1782778807255666700,1.169666748046875,25.09174156188965,11.538040161132812,0.9373798370361328
1782778807265676300,1.17967626953125,16.137048721313477,11.931520462036133,-1.7534875869750977
1782778807275686100,1.18968603515625,6.709059715270996,11.52025032043457,-3.6883912086486816
1782778807285665500,1.19966552734375,0.31327033042907715,11.347335815429688,-3.599979877471924
1782778807295675100,1.209675048828125,-3.339702606201172,11.106470108032227,-3.7596817016601562
1782778807305685000,1.21968505859375,-4.273359298706055,9.920479774475098,-2.1435670852661133
1782778807315664100,1.2296640625,-2.5229122638702393,7.540194511413574,-4.549905776977539
1782778807325673700,1.239673828125,1.5476281642913818,4.615859508514404,-8.711345672607422
1782778807335683600,1.24968359375,5.877328872680664,2.408693552017212,-11.427413940429688
1782778807345693400,1.259693359375,8.487751960754395,1.5806050300598145,-12.968500137329102
1782778807355672600,1.269672607421875,8.850133895874023,1.8623788356781006,-12.842784881591797
1782778807365682400,1.279682373046875,6.582221031188965,1.382018804550171,-12.811347007751465
1782778807375692300,1.2896923828125,3.6660852432250977,3.974318027496338,-10.810694694519043
1782778807385671400,1.29967138671875,0.10489428043365479,5.283426761627197,-8.302472114562988
1782778807395681300,1.309681396484375,-3.214578151702881,5.389376163482666,-8.342010498046875
1782778807405691000,1.31969091796875,-5.1122727394104,5.797887802124023,-8.237581253051758
1782778807415670000,1.329669921875,-6.358874320983887,5.147095203399658,-9.642849922180176
1782778807425680000,1.339679931640625,-7.116726398468018,3.7908997535705566,-11.912561416625977
1782778807435689700,1.349689697265625,-6.923734664916992,3.1722378730773926,-13.583659172058105
1782778807445668900,1.3596689453125,-5.401818752288818,2.6425399780273438,-11.893030166625977
1782778807455678700,1.3696787109375,-2.459139823913574,3.635651111602783,-10.829212188720703
1782778807465688600,1.3796884765625,0.4622492790222168,3.973444700241089,-9.224843978881836
1782778807475667700,1.389667724609375,2.7328038215637207,4.009276866912842,-8.503206253051758
1782778807485677600,1.399677490234375,2.411799430847168,4.261876106262207,-8.5056734085083
1782778807495687200,1.409687255859375,1.702506422996521,4.362139701843262,-8.31194019317627
1782778807505666600,1.41966650390625,0.8398270606994629,4.420387268066406,-8.379143714904785
1782778807515676200,1.42967626953125,0.5091594457626343,4.366349697113037,-8.665314674377441
1782778807525686000,1.43968603515625,0.5439052581787109,4.46916389465332,-8.35887622833252
1782778807535665400,1.44966552734375,0.6240086555480957,4.427346229553223,-8.52448844909668
1782778807545675000,1.459675048828125,0.9727847576141357,4.195526123046875,-9.08401870727539
1782778807555684900,1.469684814453125,1.177324652671814,4.051773548126221,-9.494023323059082
1782778807565664300,1.479664306640625,1.542052984237671,3.73386812210083,-10.187277793884277
1782778807575765500,1.489765625,2.106226921081543,3.3689160346984863,-10.245559692382812
1782778807585683700,1.49968359375,2.863764762878418,3.616276979446411,-9.25598430633545
1782778807595693300,1.509693359375,3.023303985595703,4.204354763031006,-7.398908615112305
1782778807605672700,1.519672607421875,2.989835500717163,4.49305534362793,-6.6594319343566895
1782778807615682600,1.5296826171875,2.9187471866607666,4.90546989440918,-7.7123541831970215
1782778807625692200,1.539692138671875,1.935660481452942,3.8155834674835205,-6.894140243530273
1782778807635671300,1.54967138671875,0.5110083818435669,3.8010947704315186,-7.970638275146484
1782778807645681200,1.55968115234375,-0.5559231042861938,3.404479742050171,-7.80672025680542
1782778807655691000,1.56969091796875,0.2416396141052246,2.328645944595337,-5.902758598327637
1782778807665670100,1.579670166015625,0.5124855041503906,4.640152931213379,-8.87927532196045
1782778807675680000,1.589679931640625,-0.5112228393554688,3.8578567504882812,-8.845693588256836
1782778807685689900,1.59968994140625,-0.053741455078125,2.857025146484375,-9.203913688659668
1782778807695669000,1.6096689453125,1.2754204273223877,3.0662386417388916,-9.434072494506836
1782778807705678800,1.619678955078125,2.499732494354248,3.4277243614196777,-8.860709190368652
1782778807715688400,1.6296884765625,2.838341236114502,3.257568836212158,-7.78535270690918
1782778807725667600,1.63966748046875,2.888657331466675,3.1981699466705322,-7.8595685958862305
1782778807735677400,1.649677490234375,3.390129566192627,3.512472629547119,-8.824758529663086
1782778807745687300,1.659687255859375,5.413183212280273,3.9834394454956055,-10.483064651489258
1782778807755666700,1.669666748046875,9.266351699829102,3.477412700653076,-10.452652931213379
1782778807765676300,1.67967626953125,14.3800048828125,3.7852847576141357,-12.002394676208496
1782778807775686100,1.68968603515625,17.63327407836914,5.295106887817383,-12.071637153625488
1782778807785665500,1.69966552734375,17.88347053527832,8.720480918884277,-8.99899673461914
1782778807795675100,1.709675048828125,15.581891059875488,11.564631462097168,-5.889726638793945
1782778807805685000,1.71968505859375,15.29351806640625,14.572295188903809,-3.324028968811035
1782778807815664000,1.7296640625,19.011137008666992,16.354387283325195,-1.9436283111572266
1782778807825673700,1.739673828125,24.390405654907227,15.971758842468262,-1.710209846496582
1782778807835683600,1.74968359375,31.19598388671875,15.128166198730469,-2.813830852508545
1782778807845693400,1.759693359375,38.39410400390625,13.485118865966797,-4.714269638061523
1782778807855672600,1.769672607421875,42.11006546020508,12.086669921875,-3.318674087524414
1782778807865682400,1.779682373046875,42.56206512451172,12.386507034301758,0.2967686653137207
1782778807875692300,1.7896923828125,37.50320053100586,13.080517768859863,2.568718433380127
1782778807885671400,1.79967138671875,28.576520919799805,13.004975318908691,0.7389941215515137
1782778807895681300,1.809681396484375,22.480525970458984,12.574054718017578,-0.7454242706298828
1782778807905691000,1.81969091796875,20.166961669921875,11.910460472106934,-0.7266697883605957
1782778807915670000,1.829669921875,20.660303115844727,10.544927597045898,-1.2713651657104492
1782778807925679900,1.839679931640625,20.43588638305664,8.765422821044922,-2.7692065238952637
1782778807935811800,1.849811767578125,18.926795959472656,7.089494705200195,-4.865939140319824
1782778807945668900,1.8596689453125,17.506580352783203,5.514649391174316,-6.840572357177734
1782778807955678700,1.8696787109375,15.76020622253418,4.531007766723633,-7.647481918334961
1782778807965688600,1.8796884765625,13.315845489501953,4.550474166870117,-5.939846992492676
1782778807975667700,1.889667724609375,10.479169845581055,5.3060712814331055,-4.162818908691406
1782778807985677600,1.899677490234375,7.206916332244873,6.242527484893799,-2.5077080726623535
1782778807995687200,1.909687255859375,6.6259989738464355,6.97730016708374,-2.670628547668457
1782778808005666600,1.91966650390625,6.926642894744873,5.99318265914917,-2.817656993865967
1782778808015676200,1.92967626953125,8.105588912963867,7.296828746795654,-5.826969146728516
1782778808025686000,1.93968603515625,7.62135124206543,6.820487022399902,-4.7035698890686035
1782778808035665400,1.94966552734375,3.901416778564453,4.746738910675049,-5.659196853637695
1782778808045675000,1.959675048828125,-1.148906946182251,3.429711103439331,-9.261199951171875
1782778808055684900,1.969684814453125,-4.9810028076171875,2.135422706604004,-13.387349128723145
1782778808065664300,1.979664306640625,-7.3184614181518555,1.3865866661071777,-16.183631896972656
1782778808075673900,1.989673828125,-7.879907608032227,1.2184059619903564,-16.325603485107422
1782778808085683700,1.99968359375,-7.077670097351074,1.5379290580749512,-14.80349349975586
1782778808095693300,2.009693359375,-5.8899054527282715,1.8263249397277832,-12.779474258422852
1782778808105672700,2.019672607421875,-5.081276893615723,2.0296781063079834,-10.852097511291504
1782778808115682600,2.0296826171875,-4.781806945800781,1.832391381263733,-10.25498104095459
1782778808125692200,2.039692138671875,-5.008687496185303,1.5624995231628418,-10.60830307006836
1782778808135671300,2.04967138671875,-5.16901969909668,1.1305068731307983,-11.3444242477417
1782778808145681200,2.05968115234375,-4.31610631942749,0.41830968856811523,-12.632100105285645
1782778808155691000,2.06969091796875,-2.7299728393554688,-0.38286805152893066,-13.595109939575195
1782778808165670100,2.079670166015625,-1.0011234283447266,-0.7056217193603516,-13.77372932434082
1782778808175680000,2.089679931640625,0.8025139570236206,-0.8937482833862305,-13.640144348144531
1782778808185689900,2.09968994140625,2.195949077606201,-0.8304519653320312,-13.194280624389648
1782778808195669000,2.1096689453125,2.88126277923584,-0.6306371688842773,-12.643367767333984
1782778808205678800,2.119678955078125,2.511221170425415,-0.4093613624572754,-11.9638090133667
1782778808215688400,2.1296884765625,1.2674877643585205,0.004818439483642578,-11.129104614257812
1782778808225667600,2.13966748046875,-0.17771923542022705,0.4366624355316162,-10.456562995910645
1782778808235677400,2.149677490234375,-1.415917158126831,0.8180891275405884,-10.0889310836792
1782778808245687300,2.159687255859375,-2.7041726112365723,1.1399950981140137,-9.899606704711914
1782778808255666700,2.169666748046875,-3.6076579093933105,1.3516788482666016,-9.75011920928955
1782778808265602600,2.1796025390625,-3.8144965171813965,1.614976167678833,-9.635492324829102
1782778808275655700,2.18965576171875,-3.651214838027954,1.6165435314178467,-9.565569877624512
1782778808285665500,2.19966552734375,-3.533458709716797,1.4771568775177002,-9.683982849121094
1782778808295675100,2.209675048828125,-2.8972904682159424,1.561293125152588,-9.362475395202637
1782778808305685000,2.21968505859375,-2.570094347000122,1.8935081958770752,-8.693867683410645
1782778808315755800,2.229755859375,-2.7309751510620117,2.0273382663726807,-8.479265213012695
1782778808325783300,2.239783203125,-3.09844708442688,1.935227394104004,-8.766496658325195
1782778808335683600,2.24968359375,-3.378471612930298,1.759049654006958,-9.327946662902832
1782778808345693400,2.259693359375,-3.5509371757507324,1.5877809524536133,-9.692325592041016
1782778808355782100,2.2697822265625,-3.37309193611145,1.6589105129241943,-8.966838836669922
1782778808365682400,2.279682373046875,-3.1728007793426514,1.963696002960205,-7.915122032165527
1782778808375692300,2.2896923828125,-3.206735610961914,2.2604808807373047,-7.319098949432373
1782778808385671400,2.29967138671875,-3.2061238288879395,2.079493522644043,-7.802551746368408
1782778808395302400,2.309302490234375,-2.8751299381256104,1.8553988933563232,-9.174118041992188
1782778808405691000,2.31969091796875,-2.4050216674804688,1.5054547786712646,-10.541496276855469
1782778808415670000,2.329669921875,0.17568492889404297,1.4936392307281494,-10.45557975769043
1782778808425680000,2.339679931640625,3.984738826751709,1.5243473052978516,-9.058979034423828
1782778808435689700,2.349689697265625,8.671218872070312,2.3790478706359863,-7.933164596557617
1782778808445668900,2.3596689453125,13.465473175048828,3.3611655235290527,-8.025386810302734
1782778808455678700,2.3696787109375,17.980213165283203,4.498392105102539,-10.146915435791016
1782778808465688600,2.3796884765625,19.404640197753906,6.489580154418945,-10.957864761352539
1782778808475667700,2.389667724609375,15.99909782409668,9.403247833251953,-9.556697845458984
1782778808485677600,2.399677490234375,11.825617790222168,12.949823379516602,-5.883740425109863
1782778808495687200,2.409687255859375,16.44121551513672,12.990848541259766,-4.3928093910217285
1782778808505666600,2.41966650390625,27.792448043823242,8.300224304199219,-3.133486270904541
1782778808515676200,2.42967626953125,40.056549072265625,6.320389270782471,-3.348562240600586
1782778808525686000,2.43968603515625,54.073368072509766,3.4262194633483887,-4.603969573974609
1782778808535665400,2.44966552734375,61.72293472290039,0.25012922286987305,-5.981629371643066
1782778808545675000,2.459675048828125,61.63595962524414,-1.0862793922424316,-7.105970859527588
1782778808555684900,2.469684814453125,53.06747055053711,0.6308386325836182,-4.755359649658203
1782778808565664300,2.479664306640625,42.72461700439453,2.867147207260132,-1.5205044746398926
1782778808575673900,2.489673828125,34.76554870605469,4.0052666664123535,-0.2929410934448242
1782778808585683700,2.49968359375,28.774581909179688,3.7275962829589844,-1.3614859580993652
1782778808595693300,2.509693359375,23.219797134399414,3.206982374191284,-3.7857818603515625
1782778808605672700,2.519672607421875,17.217493057250977,3.1571974754333496,-4.591367244720459
1782778808615682600,2.5296826171875,11.126792907714844,3.257513999938965,-4.901656627655029
1782778808625692200,2.539692138671875,8.052291870117188,2.761282444000244,-6.607610702514648
1782778808635671300,2.54967138671875,9.373431205749512,1.1802915334701538,-8.718503952026367
1782778808645681200,2.55968115234375,9.94070053100586,0.1929013729095459,-8.91553020477295
1782778808655691000,2.56969091796875,9.643255233764648,0.558201789855957,-8.942197799682617
1782778808665670100,2.579670166015625,9.430646896362305,0.6687018871307373,-7.949056625366211
1782778808675680000,2.589679931640625,8.054079055786133,1.2497518062591553,-5.993638038635254
1782778808685689900,2.59968994140625,5.409523963928223,2.4983513355255127,-4.022271156311035
1782778808695669000,2.6096689453125,2.6136550903320312,3.4485769271850586,-3.6790008544921875
1782778808705678800,2.619678955078125,-0.427584171295166,3.8458027839660645,-4.684999942779541
1782778808715688400,2.6296884765625,-3.156332492828369,3.912965774536133,-5.744016647338867
1782778808725667600,2.63966748046875,-5.4108805656433105,3.365525245666504,-7.794419288635254
1782778808735677400,2.649677490234375,-6.426727771759033,2.481877565383911,-11.617081642150879
1782778808745687300,2.659687255859375,-6.192568778991699,1.8061563968658447,-13.554683685302734
1782778808755666700,2.669666748046875,-6.22691535949707,1.7061644792556763,-13.637348175048828
1782778808765676300,2.67967626953125,-6.357756614685059,1.8571884632110596,-12.650426864624023
1782778808775686100,2.68968603515625,-5.999532222747803,1.972581386566162,-11.353606224060059
1782778808785665500,2.69966552734375,-5.704780578613281,2.1871910095214844,-10.311448097229004
1782778808795675100,2.709675048828125,-5.287591934204102,2.116100788116455,-10.486808776855469
1782778808805684700,2.719684814453125,-4.545372486114502,1.7447917461395264,-11.101454734802246
1782778808815664000,2.7296640625,-3.6253862380981445,1.4635028839111328,-11.643266677856445
1782778808825614000,2.739614013671875,-2.6438608169555664,1.1040427684783936,-12.214405059814453
1782778808835744800,2.749744873046875,-1.5458143949508667,0.8630392551422119,-12.527533531188965
1782778808845633800,2.7596337890625,-0.605617880821228,0.8327934741973877,-12.277336120605469
1782778808856682500,2.7706826171875,0.40412211418151855,0.8622770309448242,-11.98045539855957
1782778808875692300,2.7896923828125,0.739520788192749,1.1274123191833496,-10.863519668579102
1782778808885671400,2.79967138671875,0.09725642204284668,1.440140724182129,-10.290547370910645
1782778808895681300,2.809681396484375,-0.8125982284545898,1.751967430114746,-9.994645118713379
1782778808905691100,2.819691162109375,-1.7883856296539307,2.2000277042388916,-9.461526870727539
1782778808915670000,2.829669921875,-2.7372570037841797,2.5452804565429688,-9.236360549926758
1782778808925301200,2.83930126953125,-3.781374454498291,2.7422051429748535,-9.233290672302246
1782778808935689700,2.849689697265625,-4.715503692626953,3.0239527225494385,-8.633152961730957
1782778808945668900,2.8596689453125,-5.316539764404297,3.1828982830047607,-8.02457046508789
1782778808955678700,2.8696787109375,-5.504263877868652,3.345836639404297,-7.752601623535156
1782778808965688600,2.8796884765625,-5.54286003112793,3.446617603302002,-7.624324321746826
1782778808975667700,2.889667724609375,-5.671405792236328,3.414041519165039,-7.822186470031738
1782778808985677600,2.899677490234375,-5.701725959777832,3.168855667114258,-8.405549049377441
1782778808995687400,2.9096875,-5.635439872741699,2.945335865020752,-8.986929893493652
1782778809005666600,2.91966650390625,-5.587286472320557,2.8304569721221924,-9.136292457580566
1782778809015676200,2.92967626953125,-5.5736517906188965,2.8100645542144775,-9.044032096862793
1782778809025686000,2.93968603515625,-5.626938819885254,2.7291359901428223,-9.049610137939453
1782778809035605800,2.949605712890625,-5.458673477172852,2.6781206130981445,-9.042669296264648
1782778809045736000,2.95973583984375,-3.8103439807891846,2.525186061859131,-9.152264595031738
1782778809055625200,2.969625244140625,-2.84381365776062,2.3177690505981445,-9.46415901184082
1782778809065755600,2.979755615234375,-1.6082546710968018,1.7994576692581177,-9.945304870605469
1782778809075673900,2.989673828125,-0.01112675666809082,1.3623512983322144,-11.205379486083984
1782778809085683700,2.99968359375,0.7090661525726318,0.9732789993286133,-12.07084846496582
1782778809095693300,3.009693359375,0.8406968116760254,1.161296010017395,-12.918603897094727
1782778809105672700,3.019672607421875,1.4301724433898926,1.519877314567566,-12.969263076782227
1782778809115682300,3.029682373046875,4.938164710998535,2.639758348464966,-12.82757568359375
1782778809125692200,3.039692138671875,8.913805961608887,4.314245700836182,-12.139188766479492
1782778809135611600,3.049611572265625,10.944120407104492,6.6683526039123535,-11.103225708007812
1782778809145682400,3.059682373046875,9.724935531616211,9.836647987365723,-11.465441703796387
1782778809155752000,3.069751953125,5.251107692718506,12.344464302062988,-13.64545726776123
1782778809165670400,3.07967041015625,6.531459331512451,13.851988792419434,-14.351688385009766
1782778809175680000,3.089679931640625,17.436220169067383,12.010029792785645,-11.174857139587402
1782778809185689900,3.09968994140625,28.90223503112793,8.815540313720703,-5.595434188842773
1782778809195669000,3.1096689453125,40.77558898925781,7.3808746337890625,0.2615480422973633
1782778809205678800,3.119678955078125,54.7582893371582,4.772785663604736,0.25396251678466797
1782778809215688400,3.1296884765625,62.37820053100586,0.8144299983978271,-3.564906597137451
1782778809225667800,3.139667724609375,58.72480010986328,0.32753849029541016,-5.362553119659424
1782778809235677400,3.149677490234375,50.07362747192383,2.2489171028137207,-3.8020358085632324
1782778809245687300,3.159687255859375,41.13704299926758,4.483512878417969,-0.7243094444274902
1782778809255606800,3.169606689453125,33.23201370239258,7.044437408447266,2.181572914123535
1782778809265647000,3.179647216796875,29.092777252197266,8.559259414672852,3.595263957977295
1782778809275747000,3.1897470703125,24.261869430541992,9.271568298339844,3.325606346130371
1782778809285665500,3.19966552734375,20.467323303222656,9.518533706665039,2.2991018295288086
1782778809295675100,3.209675048828125,18.07022476196289,8.657751083374023,-0.12820100784301758
1782778809305685000,3.21968505859375,15.972429275512695,7.378190994262695,-3.132756233215332
1782778809315664100,3.2296640625,14.149016380310059,6.269957542419434,-5.67719030380249
1782778809325673700,3.239673828125,12.053979873657227,5.288243293762207,-7.552034854888916
1782778809335683600,3.24968359375,9.845210075378418,4.582599639892578,-8.135863304138184
1782778809345693400,3.259693359375,7.826951503753662,4.454867362976074,-7.906482219696045
1782778809355672600,3.269672607421875,6.223226070404053,4.926231861114502,-6.501688003540039
1782778809365682400,3.279682373046875,4.835118293762207,6.000431060791016,-4.717050075531006
1782778809375692300,3.2896923828125,3.682950258255005,6.504220962524414,-3.344729423522949
1782778809385671700,3.299671630859375,3.4497718811035156,6.667176246643066,-2.1170754432678223
1782778809395681300,3.309681396484375,3.9779763221740723,6.251895427703857,-2.0471601486206055
1782778809405691100,3.319691162109375,3.984325408935547,5.766059875488281,-3.2969937324523926
1782778809415670300,3.329670166015625,3.5938260555267334,5.254170894622803,-4.975027561187744
1782778809425680000,3.339679931640625,2.5384795665740967,4.181958198547363,-7.964451789855957
1782778809435689700,3.349689697265625,-0.4779963493347168,3.2096686363220215,-10.96577262878418
1782778809445669000,3.359669189453125,-4.542409896850586,2.7362377643585205,-13.727781295776367
1782778809455678700,3.3696787109375,-8.119246482849121,2.4977965354919434,-15.031665802001953
1782778809465688600,3.3796884765625,-10.903329849243164,2.8922386169433594,-14.59501838684082
1782778809475668000,3.38966796875,-12.630325317382812,3.425758123397827,-12.798370361328125
1782778809485677600,3.399677490234375,-12.466328620910645,3.761507987976074,-11.214899063110352
1782778809495627500,3.40962744140625,-10.869157791137695,3.6412596702575684,-10.434560775756836
1782778809505758200,3.41975830078125,-8.41655158996582,3.259411096572876,-10.167142868041992
1782778809515616500,3.429616455078125,-5.610668182373047,2.549858570098877,-10.96915340423584
1782778809525747000,3.439746826171875,-3.2233922481536865,1.948599100112915,-12.071170806884766
1782778809536456000,3.4504560546875,-1.276111364364624,1.4158051013946533,-13.203161239624023
1782778809555684900,3.469684814453125,0.5433106422424316,1.397812843322754,-13.352434158325195
1782778809565664300,3.479664306640625,0.5887737274169922,1.6063427925109863,-12.760292053222656
1782778809575673900,3.489673828125,-0.09176397323608398,2.127321720123291,-11.676246643066406
1782778809585683700,3.49968359375,-0.80287766456604,2.6661458015441895,-10.463821411132812
1782778809595693300,3.509693359375,-1.24982750415802,3.3581748008728027,-9.265597343444824
1782778809605672700,3.519672607421875,-1.5569379329681396,4.096385955810547,-7.790129661560059
1782778809615682600,3.5296826171875,-1.6667909622192383,4.754921913146973,-6.894491672515869
1782778809625692200,3.539692138671875,-1.9353086948394775,5.147029876708984,-6.614182949066162
1782778809635628300,3.549628173828125,-2.2846341133117676,5.393797397613525,-6.6169352531433105
1782778809645681200,3.55968115234375,-2.682222604751587,5.58365535736084,-6.391916275024414
1782778809655691000,3.56969091796875,-3.3853487968444824,5.644645690917969,-6.027202606201172
1782778809665670100,3.579670166015625,-4.031895160675049,5.6308913230896,-5.952139854431152
1782778809675680000,3.589679931640625,-4.436468601226807,5.474851608276367,-6.1785478591918945
1782778809685630000,3.5996298828125,-4.536404609680176,5.177923679351807,-6.608420372009277
1782778809695870000,3.609869873046875,-4.20365571975708,5.024405479431152,-7.198841094970703
1782778809705678800,3.619678955078125,-3.7776715755462646,4.625071048736572,-8.035666465759277
1782778809715688400,3.6296884765625,-3.319967031478882,4.243618965148926,-8.921762466430664
1782778809725777200,3.639777099609375,-3.004378080368042,4.080467224121094,-9.418464660644531
1782778809735677400,3.649677490234375,-2.4887661933898926,3.9126017093658447,-9.521685600280762
1782778809745687300,3.659687255859375,-1.7085511684417725,3.653736114501953,-9.981225967407227
1782778809755677700,3.669677734375,-1.3896790742874146,3.4201114177703857,-10.039986610412598
1782778809765687600,3.6796875,-1.2636644840240479,3.297927141189575,-9.84883975982666
1782778809775697400,3.689697509765625,-0.234696626663208,3.198489189147949,-9.680703163146973
1782778809785676500,3.699676513671875,2.322840690612793,3.1844563484191895,-9.772089958190918
1782778809795686400,3.709686279296875,5.709094047546387,3.4407646656036377,-9.563780784606934
1782778809805636600,3.71963671875,8.247442245483398,3.9652693271636963,-9.616838455200195
1782778809815767000,3.72976708984375,10.46231460571289,5.279373645782471,-10.245133399963379
1782778809825685200,3.739685302734375,12.831796646118164,7.336643218994141,-10.854510307312012
1782778809835694800,3.74969482421875,16.286930084228516,10.609474182128906,-12.392097473144531
1782778809845645000,3.75964501953125,17.731788635253906,14.103950500488281,-12.076415061950684
1782778809855775500,3.769775390625,17.07388687133789,17.20946502685547,-9.035160064697266
1782778809865634000,3.779634033203125,19.009967803955078,20.278133392333984,-7.44886589050293
1782778809875764500,3.789764404296875,23.754547119140625,18.952959060668945,-6.857382297515869
1782778809885683000,3.799682861328125,29.14629364013672,16.668445587158203,-6.031387805938721
1782778809896598000,3.810597900390625,33.03330612182617,16.041847229003906,-5.611818790435791
1782778809915681500,3.829681640625,39.91287612915039,14.099817276000977,-1.3906502723693848
1782778809925631700,3.8396318359375,38.29237365722656,13.484338760375977,-1.006779670715332
1782778809935762200,3.84976220703125,32.712642669677734,13.576030731201172,-1.1782870292663574
1782778809945680400,3.859680419921875,27.310049057006836,13.088152885437012,-2.8095879554748535
1782778809955690200,3.869690185546875,22.61898422241211,12.129426956176758,-4.597253799438477
1782778809965699800,3.879699951171875,18.085796356201172,11.096834182739258,-5.602167129516602
1782778809975679000,3.889678955078125,14.993295669555664,9.744346618652344,-6.878484725952148
1782778809985688800,3.899688720703125,14.567145347595215,8.335906982421875,-8.585928916931152
1782778809995698700,3.90969873046875,17.3053035736084,6.619598865509033,-9.641935348510742
1782778810005678000,3.919677978515625,18.164609909057617,5.611867427825928,-9.914098739624023
1782778810015687700,3.929687744140625,15.137691497802734,5.732974052429199,-7.151210308074951
1782778810025697500,3.939697509765625,9.82894515991211,6.867511749267578,-2.6415162086486816
1782778810035677000,3.949677001953125,4.30694580078125,7.283245086669922,-0.2509489059448242
1782778810045626600,3.959626708984375,0.0733785629272461,6.357132911682129,-1.4905657768249512
1782778810056707000,3.97070703125,-1.8607301712036133,5.0180983543396,-4.259838104248047
1782778810075685000,3.98968505859375,-1.6827309131622314,3.557650566101074,-8.22812557220459
1782778810085695000,3.999695068359375,-0.982277512550354,3.8669474124908447,-9.104732513427734
1782778810095704800,4.009704833984375,-0.5017085075378418,4.037818908691406,-9.466900825500488
1782778810105684000,4.01968408203125,-0.6996673345565796,4.329859733581543,-9.35757827758789
1782778810115693800,4.02969384765625,-2.062495470046997,4.671629428863525,-9.503276824951172
1782778810125703700,4.03970361328125,-4.284050941467285,4.856411933898926,-9.969860076904297
1782778810135682800,4.049682861328125,-5.950375080108643,5.0311174392700195,-10.20594310760498
1782778810145692700,4.059692626953125,-7.42790412902832,5.2269978523254395,-9.023210525512695
1782778810155702300,4.069702392578125,-7.975541114807129,6.045590877532959,-8.757264137268066
1782778810165681400,4.079681396484375,-9.657464981079102,4.971710681915283,-6.654763221740723
1782778810175691300,4.089691162109375,-9.444039344787598,4.912084579467773,-7.589727401733398
1782778810185701000,4.099701171875,-8.293066024780273,4.490442276000977,-8.679365158081055
1782778810195680500,4.109680419921875,-5.743701934814453,3.9574790000915527,-9.148676872253418
1782778810205630500,4.11963037109375,-2.4216578006744385,3.4821829795837402,-8.293085098266602
1782778810215761000,4.129760986328125,0.006030559539794922,4.154224395751953,-7.498213291168213
1782778810225619500,4.139619384765625,2.2345781326293945,4.305531024932861,-8.040962219238281
1782778810235750100,4.149750244140625,3.544426918029785,4.125998497009277,-8.687520980834961
1782778810245698600,4.159698486328125,3.3108277320861816,4.030956268310547,-9.069086074829102
1782778810255618000,4.1696181640625,2.812556743621826,4.147551536560059,-9.036109924316406
1782778810265689000,4.179689208984375,1.4806702136993408,4.410638809204102,-8.248692512512207
1782778810275758300,4.18975830078125,0.25484180450439453,4.659243106842041,-7.967828273773193
1782778810285676800,4.1996767578125,-1.2894465923309326,4.996993541717529,-7.451544761657715
1782778810295686400,4.209686279296875,-2.4415111541748047,4.881083965301514,-7.302371978759766
1782778810305696300,4.2196962890625,-2.96155047416687,4.830958843231201,-7.303546905517578
1782778810315858700,4.229858642578125,-3.9722838401794434,4.655332088470459,-8.0589017868042
1782778810325794300,4.239794189453125,-4.683797359466553,3.918166399002075,-7.920191287994385
1782778810335695000,4.249695068359375,-4.691410541534424,4.070462226867676,-7.804532051086426
1782778810345704700,4.25970458984375,-4.34075403213501,4.527237892150879,-7.499972343444824
1782778810355793200,4.269793212890625,-3.750552177429199,4.668923377990723,-7.166112899780273
1782778810365693700,4.279693603515625,-3.7372403144836426,4.541181564331055,-7.082052707672119
1782778810375703600,4.28970361328125,-4.115293502807617,4.431007385253906,-7.538269996643066
1782778810385682700,4.2996826171875,-4.356363296508789,4.460536956787109,-8.092615127563477
1782778810395405000,4.309405029296875,-4.204402923583984,4.838269233703613,-8.619738578796387
1782778810405672000,4.319671875,-4.074257850646973,4.201918601989746,-9.312728881835938
1782778810415681800,4.329681884765625,-1.6655545234680176,3.055820941925049,-9.992860794067383
1782778810425691400,4.33969140625,2.8404226303100586,2.9255123138427734,-10.111818313598633
1782778810435701200,4.349701171875,5.432485103607178,3.4145045280456543,-9.921459197998047
1782778810445680400,4.359680419921875,6.3764472007751465,3.867706060409546,-8.411614418029785
1782778810455690200,4.369690185546875,6.532904624938965,4.004426002502441,-7.209259510040283
1782778810465699800,4.379699951171875,6.9338788986206055,3.5906665325164795,-7.3825364112854
1782778810475679200,4.38967919921875,7.386946201324463,3.1578786373138428,-8.908225059509277
1782778810485688800,4.399688720703125,8.259798049926758,4.6057281494140625,-11.76415729522705
1782778810495698700,4.40969873046875,13.995088577270508,6.794384002685547,-11.047172546386719
1782778810515687700,4.429687744140625,20.480472564697266,11.469547271728516,-6.041502952575684
1782778810525697500,4.439697509765625,17.217456817626953,13.005311965942383,-6.525972843170166
1782778810535677000,4.449677001953125,18.41400909423828,13.450960159301758,-5.036848545074463
1782778810545686500,4.4596865234375,21.680500030517578,12.645990371704102,-8.398360252380371
1782778810555696000,4.469696044921875,25.40886116027832,11.498641967773438,-10.468100547790527
1782778810565675500,4.479675537109375,28.88351821899414,10.697288513183594,-10.047049522399902
1782778810575685000,4.48968505859375,30.630146026611328,10.169027328491211,-8.928349494934082
1782778810585695000,4.499695068359375,30.64003562927246,9.608499526977539,-6.150398254394531
1782778810595704800,4.509704833984375,31.294937133789062,10.922088623046875,-2.1110963821411133
1782778810605624300,4.519624267578125,31.17064094543457,10.672536849975586,-1.6741766929626465
1782778810615755000,4.529755126953125,27.763019561767578,9.264402389526367,-4.787067413330078
1782778810625703700,4.53970361328125,22.727333068847656,7.7100019454956055,-8.540046691894531
1782778810635682800,4.549682861328125,16.263404846191406,7.2478179931640625,-11.126461029052734
1782778810645632800,4.5596328125,11.06767749786377,7.530245780944824,-10.518874168395996
1782778810657159700,4.57115966796875,6.965412616729736,7.20723295211792,-9.071271896362305
1782778810675691300,4.589691162109375,3.4617764949798584,4.972301483154297,-8.756723403930664
1782778810685672000,4.599671875,3.5941200256347656,2.9841420650482178,-9.672759056091309
1782778810696336000,4.6103359375,5.096136093139648,2.9603307247161865,-8.890225410461426
1782778810715700000,4.629699951171875,5.275853157043457,1.7839136123657227,-8.286259651184082
1782778810725679000,4.63967919921875,6.189740180969238,2.0299603939056396,-7.651569366455078
1782778810735689000,4.64968896484375,8.181255340576172,3.184941291809082,-5.996629238128662
1782778810745698600,4.659698486328125,9.018353462219238,4.450510025024414,-5.452221870422363
1782778810755678000,4.669677978515625,7.841733455657959,4.904854774475098,-6.651496410369873
1782778810765687600,4.6796875,4.363008499145508,4.919355392456055,-8.448180198669434
1782778810775697400,4.689697509765625,0.647132396697998,5.694756984710693,-10.321407318115234
1782778810785676800,4.6996767578125,-2.187824010848999,6.353772163391113,-9.476912498474121
1782778810795686400,4.709686279296875,-3.9676856994628906,6.243107795715332,-8.110503196716309
1782778810805696300,4.7196962890625,-4.3196940422058105,6.49446439743042,-8.881524085998535
1782778810815675400,4.72967529296875,-4.148873805999756,6.469841957092285,-9.60603141784668
1782778810825305000,4.73930517578125,-3.831400156021118,6.282818794250488,-9.011543273925781
1782778810835695000,4.749695068359375,-3.412071704864502,6.3751702308654785,-8.130940437316895
1782778810845704700,4.75970458984375,-2.748490333557129,6.406746864318848,-7.498779296875
1782778810855792400,4.76979248046875,-1.8082255125045776,6.343573093414307,-7.361508369445801
1782778810865693700,4.779693603515625,-0.8003712892532349,5.990655899047852,-7.773685455322266
1782778810875703600,4.78970361328125,0.18420624732971191,5.705066680908203,-8.208174705505371
1782778810885682700,4.7996826171875,0.7200579643249512,5.6252546310424805,-7.923914909362793
1782778810895692500,4.809692626953125,1.127274513244629,5.38001823425293,-8.225367546081543
1782778810905702400,4.819702392578125,0.9198620319366455,5.134472846984863,-8.411458015441895
1782778810915681500,4.829681640625,0.4662456512451172,4.75163459777832,-8.859207153320312
1782778810925631700,4.8396318359375,-0.1758866310119629,4.500759124755859,-9.426115989685059
1782778810935702500,4.84970263671875,-0.9099013805389404,4.423413276672363,-9.705083847045898
1782778810945771800,4.859771728515625,-1.4299339056015015,4.904342174530029,-9.476411819458008
1782778810955690200,4.869690185546875,-1.6725972890853882,5.096004486083984,-8.84895133972168
1782778810965640200,4.87964013671875,-2.3993122577667236,5.0026350021362305,-8.470849990844727
1782778810977050400,4.89105029296875,-2.9202592372894287,5.211980819702148,-9.043386459350586
1782778810995808000,4.90980810546875,-2.918271064758301,5.538580894470215,-7.6877546310424805
1782778811005678000,4.919677978515625,-2.5993523597717285,5.367578506469727,-7.387530326843262
1782778811015552800,4.929552734375,-1.8079185485839844,5.02313232421875,-8.23892879486084
1782778811025667000,4.9396669921875,-0.5567517280578613,5.258059501647949,-9.117876052856445
1782778811035617000,4.949616943359375,0.572009801864624,5.377945423126221,-8.752158164978027
1782778811045687800,4.959687744140625,0.7624111175537109,5.570548057556152,-8.02316665649414
1782778811056545800,4.9705458984375,0.7528266906738281,5.619443893432617,-7.9362406730651855
1782778811075685000,4.98968505859375,2.7158761024475098,4.40716028213501,-9.035051345825195
1782778811085665800,4.999665771484375,3.232595682144165,3.815528154373169,-9.280025482177734
1782778811096314600,5.010314697265625,2.4645042419433594,2.958095073699951,-9.947370529174805
1782778811115693800,5.02969384765625,3.951054811477661,4.061063289642334,-8.300189971923828
1782778811125703700,5.03970361328125,6.524206161499023,4.8899407386779785,-7.57863712310791
1782778811135682800,5.049682861328125,9.65129280090332,5.147637844085693,-8.837902069091797
1782778811155702300,5.069702392578125,14.76689338684082,4.7876667976379395,-9.88218879699707
1782778811165681400,5.079681396484375,17.756061553955078,6.033833980560303,-8.897016525268555
1782778811175691300,5.089691162109375,19.137020111083984,7.708010673522949,-7.834674835205078
1782778811185701000,5.099701171875,18.499330520629883,10.612739562988281,-7.335155487060547
1782778811195680300,5.10968017578125,15.700340270996094,13.314237594604492,-6.696494102478027
1782778811205690000,5.119690185546875,11.916754722595215,15.221856117248535,-6.145396709442139
1782778811215700000,5.129699951171875,10.577174186706543,16.392126083374023,-6.535889148712158
1782778811225679000,5.13967919921875,11.3030424118042,16.26919174194336,-7.202791690826416
1782778811235689000,5.14968896484375,13.078784942626953,15.68916130065918,-6.703176021575928
1782778811245698600,5.159698486328125,15.258829116821289,14.610528945922852,-4.5074663162231445
1782778811255678000,5.169677978515625,18.95990753173828,12.704861640930176,-2.334381103515625
1782778811265687600,5.1796875,25.67125129699707,9.158947944641113,-3.5737338066101074
1782778811275697400,5.189697509765625,29.997127532958984,6.195700645446777,-8.9266357421875
1782778811285676500,5.199676513671875,30.304704666137695,5.854381561279297,-9.952302932739258
1782778811295686400,5.209686279296875,27.455280303955078,7.030165672302246,-7.37014627456665
1782778811305696300,5.2196962890625,21.24580192565918,8.211109161376953,-5.052460670471191
1782778811315675600,5.229675537109375,15.395132064819336,9.031698226928711,-3.0368356704711914
1782778811325685200,5.239685302734375,10.970784187316895,9.613143920898438,-0.42006540298461914
1782778811335695000,5.249695068359375,8.727344512939453,9.142034530639648,0.8551692962646484
1782778811345704700,5.25970458984375,8.647910118103027,7.470104694366455,-1.0377917289733887
1782778811355683800,5.269683837890625,10.349519729614258,5.007986068725586,-5.095232963562012
1782778811365693700,5.279693603515625,12.540459632873535,2.985973834991455,-9.049820899963379
1782778811375703600,5.28970361328125,12.817334175109863,1.8882670402526855,-11.601003646850586
1782778811385682700,5.2996826171875,10.924328804016113,2.1824512481689453,-11.903341293334961
1782778811395692500,5.309692626953125,8.236570358276367,2.6857657432556152,-11.58471393585205
1782778811405702400,5.319702392578125,6.086666584014893,3.1971921920776367,-11.524698257446289
1782778811415681500,5.329681640625,4.3857741355896,3.8937954902648926,-11.197006225585938
1782778811425691400,5.33969140625,3.3847920894622803,4.416917324066162,-10.749201774597168
1782778811435701200,5.349701171875,2.2266082763671875,4.942180156707764,-10.568198204040527
1782778811445680400,5.359680419921875,0.5216536521911621,5.015501499176025,-10.946818351745605
1782778811455690200,5.369690185546875,-0.9017226696014404,4.789937496185303,-11.995376586914062
1782778811465699800,5.379699951171875,-1.5382453203201294,4.681970119476318,-12.892640113830566
1782778811475679000,5.389678955078125,-1.039658784866333,3.9225916862487793,-12.859949111938477
1782778811485688800,5.399688720703125,-1.1509703397750854,4.339773178100586,-11.349722862243652
1782778811495698700,5.40969873046875,-1.1182756423950195,4.952891826629639,-10.974686622619629
1782778811505678000,5.419677978515625,-0.9316921830177307,5.092654228210449,-9.856627464294434
1782778811515687700,5.429687744140625,-0.4444984197616577,5.241573810577393,-8.885990142822266
1782778811525697500,5.439697509765625,0.20225036144256592,5.370643615722656,-8.365269660949707
1782778811535676700,5.4496767578125,0.8671077489852905,5.128634929656982,-8.377573013305664
1782778811545686500,5.4596865234375,1.3824166059494019,4.756637096405029,-8.82138729095459
1782778811555696400,5.4696962890625,2.090364933013916,4.470844268798828,-9.27463150024414
1782778811565675300,5.47967529296875,3.0978329181671143,4.170434951782227,-9.652196884155273
1782778811575685000,5.48968505859375,3.4094784259796143,4.002514839172363,-10.00432014465332
1782778811585695000,5.499695068359375,2.973032236099243,4.094346046447754,-9.980095863342285
1782778811595704800,5.509704833984375,1.9833635091781616,4.524101734161377,-9.167234420776367
1782778811605684000,5.51968408203125,0.8817431926727295,5.200235366821289,-7.725043773651123
1782778811615693800,5.52969384765625,0.058286190032958984,5.789046764373779,-6.754202365875244
1782778811625703700,5.53970361328125,-0.7059048414230347,6.114881992340088,-6.554638385772705
1782778811635682800,5.549682861328125,-1.434565782546997,6.2583417892456055,-6.672779560089111
1782778811645692700,5.559692626953125,-1.7838497161865234,6.161569118499756,-7.031492710113525
1782778811655702300,5.569702392578125,-1.7523627281188965,6.072310924530029,-7.7235822677612305
1782778811665681400,5.579681396484375,-1.6862304210662842,5.849460601806641,-8.150917053222656
1782778811675255000,5.589255126953125,-1.2826093435287476,5.787644386291504,-8.276839256286621
1782778811685641500,5.599641357421875,-0.4124014377593994,5.8784379959106445,-7.657070636749268
1782778811696618800,5.61061865234375,0.5661139488220215,6.036513328552246,-6.4347405433654785
1782778811715700000,5.629699951171875,2.631286859512329,6.124135971069336,-5.722716331481934
1782778811725679000,5.63967919921875,3.2734663486480713,5.618298530578613,-5.857624530792236
1782778811735689000,5.64968896484375,4.684236526489258,4.9820404052734375,-6.1075239181518555
1782778811745698600,5.659698486328125,7.074375152587891,4.377511978149414,-7.117286205291748
1782778811755677700,5.669677734375,10.279989242553711,3.785463333129883,-6.624581336975098
1782778811765687600,5.6796875,14.759571075439453,3.615878105163574,-6.64845085144043
1782778811775697400,5.689697509765625,17.88210105895996,3.7678871154785156,-6.746700286865234
1782778811795686400,5.709686279296875,18.495071411132812,5.314096450805664,-5.2898454666137695
1782778811805696300,5.7196962890625,15.855413436889648,6.46942663192749,-6.017772674560547
1782778811815675400,5.72967529296875,14.877365112304688,7.670865535736084,-5.891707420349121
1782778811825685200,5.739685302734375,15.730053901672363,8.969191551208496,-5.908185005187988
1782778811835695000,5.749695068359375,17.651765823364258,10.181913375854492,-5.236978054046631
1782778811845704700,5.75970458984375,19.318065643310547,11.260507583618164,-4.045117378234863
1782778811855684000,5.76968408203125,23.28605842590332,12.951156616210938,-4.356966972351074
1782778811865693700,5.779693603515625,25.38855743408203,13.761114120483398,-3.803852081298828
1782778811875703600,5.78970361328125,23.350522994995117,13.148859024047852,-2.8275909423828125
1782778811885682700,5.7996826171875,19.684967041015625,12.240400314331055,-2.017073154449463
1782778811895692500,5.809692626953125,15.84520435333252,11.130224227905273,-1.9578628540039062
1782778811905702400,5.819702392578125,14.753984451293945,9.385988235473633,-3.8790979385375977
1782778811915681500,5.829681640625,16.485443115234375,6.713794708251953,-6.981797218322754
1782778811925691400,5.83969140625,17.819591522216797,5.157471179962158,-9.305863380432129
1782778811935701200,5.849701171875,16.760173797607422,4.552382946014404,-9.980224609375
1782778811945680400,5.859680419921875,14.001267433166504,4.461645126342773,-9.419015884399414
1782778811955690200,5.869690185546875,10.821762084960938,4.456584453582764,-8.081940650939941
1782778811965699800,5.879699951171875,8.502778053283691,4.798348903656006,-5.365174293518066
1782778811975679000,5.889678955078125,7.316044330596924,5.087594985961914,-2.6775588989257812
1782778811985688800,5.899688720703125,6.531247615814209,5.125552654266357,-1.650987148284912
1782778811995698700,5.90969873046875,6.039571762084961,4.623948574066162,-2.672544479370117
1782778812005677800,5.919677734375,6.147675514221191,3.3015213012695312,-5.346212387084961
1782778812015687700,5.929687744140625,6.5975022315979,2.3620922565460205,-8.802647590637207
1782778812025697500,5.939697509765625,6.874134063720703,1.9042993783950806,-10.516158103942871
1782778812035677000,5.949677001953125,7.1812334060668945,1.9122453927993774,-11.346135139465332
1782778812045686500,5.9596865234375,6.968757152557373,2.54990816116333,-10.967233657836914
1782778812055696400,5.9696962890625,5.725988388061523,3.3698410987854004,-10.111701011657715
1782778812065675300,5.97967529296875,4.42426872253418,3.918585777282715,-9.614237785339355
1782778812075685000,5.98968505859375,3.143132448196411,4.295042514801025,-9.362835884094238
1782778812085695000,5.999695068359375,1.7453794479370117,5.204233646392822,-8.431320190429688
1782778812095704800,6.009704833984375,0.13841485977172852,5.455504894256592,-9.072647094726562
1782778812105684000,6.01968408203125,-1.316002607345581,5.382630825042725,-9.849174499511719
1782778812115693800,6.02969384765625,-2.470346212387085,4.862074375152588,-9.62975025177002
1782778812125703700,6.03970361328125,-2.630815029144287,4.927362442016602,-11.10037899017334
1782778812135682800,6.049682861328125,-2.6071763038635254,4.675405502319336,-11.665546417236328
1782778812145692700,6.059692626953125,-1.9016268253326416,4.260801315307617,-11.11089038848877
1782778812155702300,6.069702392578125,-0.9157909154891968,4.376948833465576,-10.705107688903809
1782778812165681400,6.079681396484375,0.051381826400756836,4.502890110015869,-9.846146583557129
1782778812175691300,6.089691162109375,0.9543757438659668,4.513275623321533,-9.18513011932373
1782778812185701000,6.099701171875,2.0719261169433594,4.592398643493652,-8.966055870056152
1782778812195680300,6.10968017578125,2.65108323097229,4.512546539306641,-8.869925498962402
1782778812205690000,6.119690185546875,2.720883369445801,4.385927200317383,-8.966893196105957
1782778812215700000,6.129699951171875,2.4247231483459473,4.238058090209961,-9.135600090026855
1782778812225679000,6.13967919921875,2.1071856021881104,4.131097793579102,-9.2482271194458
1782778812235689000,6.14968896484375,1.5730541944503784,4.205801963806152,-9.053308486938477
1782778812245698600,6.159698486328125,1.0775730609893799,4.234477519989014,-8.84900951385498
1782778812255678000,6.169677978515625,0.7713649272918701,4.462031841278076,-8.464451789855957
1782778812265687600,6.1796875,0.5810961723327637,4.705667495727539,-7.869312286376953
1782778812275697400,6.189697509765625,0.17788171768188477,4.981479167938232,-7.467089653015137
1782778812285676800,6.1996767578125,-0.02740764617919922,5.107888221740723,-7.872219085693359
1782778812295686400,6.209686279296875,-0.16507959365844727,4.956952095031738,-8.541025161743164
1782778812305696300,6.2196962890625,-0.20906662940979004,4.761842250823975,-9.040088653564453
1782778812315675600,6.229675537109375,-0.34243154525756836,4.606793403625488,-9.507798194885254
1782778812325685200,6.239685302734375,-0.683887243270874,4.459338188171387,-9.159890174865723
1782778812335695000,6.249695068359375,-0.5467483997344971,4.403214454650879,-8.570350646972656
1782778812345704700,6.25970458984375,-0.09534597396850586,4.391974449157715,-8.042792320251465
1782778812355684000,6.26968408203125,1.103971242904663,4.1900434494018555,-7.619690895080566
1782778812365693700,6.279693603515625,3.1610891819000244,3.946244716644287,-8.256799697875977
1782778812375703600,6.28970361328125,3.205033302307129,3.9055256843566895,-8.448545455932617
1782778812385682700,6.2996826171875,2.0093488693237305,3.83962345123291,-7.9101104736328125
1782778812395692500,6.309692626953125,2.032510995864868,3.8859751224517822,-8.127628326416016
1782778812405702400,6.319702392578125,3.0105395317077637,4.1243977546691895,-8.277085304260254
1782778812415681500,6.329681640625,5.794466972351074,5.112841606140137,-7.764934539794922
1782778812425691400,6.33969140625,11.070985794067383,7.142745494842529,-6.782480239868164
1782778812435701200,6.349701171875,13.873208045959473,7.503653526306152,-6.095073699951172
1782778812445680400,6.359680419921875,16.096405029296875,7.832843780517578,-4.322539806365967
1782778812455690200,6.369690185546875,17.669227600097656,7.468333721160889,-4.082974910736084
1782778812465699800,6.379699951171875,20.205087661743164,6.6837944984436035,-5.477208137512207
1782778812475679000,6.389678955078125,22.92470359802246,6.73226261138916,-7.440920829772949
1782778812485688800,6.399688720703125,24.41922378540039,8.49198055267334,-7.652862548828125
1782778812495698700,6.40969873046875,25.87738037109375,10.264898300170898,-6.128495216369629
1782778812515687700,6.429687744140625,25.597335815429688,13.847392082214355,-2.9731264114379883
1782778812525697500,6.439697509765625,23.371179580688477,13.928067207336426,-3.704594135284424
1782778812535676700,6.4496767578125,19.587329864501953,12.681275367736816,-4.571004390716553
1782778812545686500,6.4596865234375,17.057228088378906,11.250300407409668,-3.1971826553344727
1782778812555696400,6.4696962890625,17.94942855834961,9.700055122375488,-2.066984176635742
1782778812565675500,6.479675537109375,21.67963218688965,7.550214767456055,-4.145102500915527
1782778812575715600,6.489715576171875,25.474609375,6.170900344848633,-6.568492889404297
1782778812585695000,6.499695068359375,26.75606918334961,5.620695114135742,-8.099714279174805
1782778812595704800,6.509704833984375,24.379493713378906,5.6410980224609375,-8.045677185058594
1782778812605684000,6.51968408203125,19.777873992919922,5.644103050231934,-7.10159969329834
1782778812615693800,6.52969384765625,14.742857933044434,5.394608497619629,-6.281973361968994
1782778812625703700,6.53970361328125,9.824055671691895,4.829716682434082,-6.118574142456055
1782778812635682800,6.549682861328125,5.897111415863037,3.882277488708496,-6.738419532775879
1782778812645632800,6.5596328125,2.8322417736053467,2.7575483322143555,-8.51848316192627
1782778812656637000,6.570636962890625,1.6611708402633667,1.525112509727478,-10.209067344665527
1782778812675691300,6.589691162109375,1.5228989124298096,0.3063020706176758,-11.918895721435547
1782778812685701000,6.599701171875,2.3936047554016113,0.022958755493164062,-12.941149711608887
1782778812695680500,6.609680419921875,2.999399185180664,0.3543100357055664,-13.12332820892334
1782778812705690000,6.619690185546875,2.6450753211975098,1.096523642539978,-11.955114364624023
1782778812715700000,6.629699951171875,2.090965747833252,1.7271854877471924,-11.51881217956543
1782778812725619500,6.639619384765625,1.066357970237732,2.5108227729797363,-11.203399658203125
1782778812738198000,6.652197998046875,-0.8909568786621094,3.184192419052124,-9.609947204589844
1782778812755678000,6.669677978515625,-4.225138187408447,3.5634875297546387,-11.028203010559082
1782778812765687600,6.6796875,-5.448690414428711,3.3984296321868896,-11.08580207824707
1782778812775637800,6.6896376953125,-5.808258056640625,3.3508119583129883,-10.958430290222168
1782778812785769500,6.69976953125,-5.580593585968018,3.106428623199463,-10.810873031616211
1782778812795747300,6.709747314453125,-4.635289669036865,2.8125405311584473,-10.682010650634766
1782778812805696300,6.7196962890625,-3.0698628425598145,2.747363805770874,-10.630911827087402
1782778812815675600,6.729675537109375,-1.5484364032745361,2.7037765979766846,-10.301445960998535
1782778812825685200,6.739685302734375,-0.1142348051071167,2.692844867706299,-10.212345123291016
1782778812835635200,6.74963525390625,0.99036705493927,2.74041748046875,-10.203324317932129
1782778812845706200,6.759706298828125,1.6764204502105713,2.7681877613067627,-9.962099075317383
1782778812856687600,6.7706875,1.7464607954025269,2.708803415298462,-10.022013664245605
1782778812875644000,6.789643798828125,1.377262830734253,3.009517192840576,-9.306745529174805
1782778812885774300,6.7997744140625,0.7889987230300903,3.1018428802490234,-9.300309181213379
1782778812895692500,6.809692626953125,0.17465925216674805,3.2603166103363037,-9.35645866394043
1782778812905702400,6.819702392578125,-0.3961672782897949,3.4400694370269775,-9.104781150817871
1782778812915681500,6.829681640625,-0.6517611742019653,3.541705369949341,-8.99851131439209
1782778812925691400,6.83969140625,-0.4570862054824829,3.7963967323303223,-9.06975269317627
1782778812935701200,6.849701171875,-0.13437926769256592,4.062992572784424,-8.948254585266113
1782778812945680400,6.859680419921875,0.10317456722259521,4.322160720825195,-8.849008560180664
1782778812955690200,6.869690185546875,-0.06815636157989502,4.642124652862549,-8.759169578552246
1782778812965700000,6.8797001953125,-0.4024585485458374,4.824237823486328,-8.361445426940918
1782778812975679200,6.88967919921875,-0.402996301651001,5.071699619293213,-7.816136360168457
1782778812985798100,6.899798095703125,-0.519647479057312,5.092794418334961,-7.764294147491455
1782778812995668200,6.909668212890625,-0.5052109956741333,4.81510066986084,-8.529875755310059
1782778813005677800,6.919677734375,-0.24943363666534424,4.458264350891113,-9.09056568145752
1782778813015687700,6.929687744140625,0.33544206619262695,4.170289993286133,-8.784637451171875
1782778813025697500,6.939697509765625,1.7010960578918457,3.962433099746704,-7.892704486846924
1782778813035677000,6.949677001953125,2.9094624519348145,3.8324451446533203,-6.881654739379883
1782778813045686500,6.9596865234375,4.3780198097229,3.86295747756958,-5.889684677124023
1782778813055696400,6.9696962890625,7.253267288208008,4.245339870452881,-4.673954963684082
1782778813065675500,6.979675537109375,11.440631866455078,4.683562278747559,-4.565670490264893
1782778813075685000,6.98968505859375,16.1732234954834,5.089497089385986,-5.682455062866211
1782778813085695000,6.999695068359375,20.23325538635254,5.214632987976074,-6.282622337341309
1782778813095704800,7.009704833984375,22.958423614501953,5.301314353942871,-5.565577507019043
1782778813105684000,7.01968408203125,25.139476776123047,5.811525344848633,-3.7398195266723633
1782778813115693800,7.02969384765625,27.814136505126953,6.490923881530762,-2.8017520904541016
1782778813125703700,7.03970361328125,30.085800170898438,7.910416126251221,-4.2024664878845215
1782778813135682800,7.049682861328125,30.412036895751953,9.744996070861816,-2.472196578979492
1782778813145692700,7.059692626953125,28.348918914794922,11.877897262573242,0.728907585144043
1782778813155702500,7.06970263671875,26.819686889648438,13.172260284423828,2.1269750595092773
1782778813165681400,7.079681396484375,24.469791412353516,12.948833465576172,1.2434844970703125
1782778813175691300,7.089691162109375,22.488380432128906,12.1171293258667,-0.3590526580810547
1782778813185701000,7.099701171875,21.097806930541992,11.223482131958008,-0.729975700378418
1782778813195680300,7.10968017578125,21.6769962310791,9.958330154418945,-0.6551370620727539
1782778813205690000,7.119690185546875,25.020376205444336,8.797239303588867,-1.0660614967346191
1782778813215700000,7.129699951171875,29.144123077392578,7.769613265991211,-2.772972583770752
1782778813225679400,7.139679443359375,31.654083251953125,7.021938800811768,-4.661234378814697
1782778813235689000,7.14968896484375,31.389732360839844,6.9189629554748535,-5.553877353668213
1782778813245639000,7.159638916015625,27.828052520751953,6.958492279052734,-5.230098724365234
1782778813256717300,7.17071728515625,21.44744873046875,6.995929718017578,-4.5408549308776855
1782778813275637800,7.1896376953125,9.219136238098145,6.000096797943115,-4.614499092102051
1782778813285768200,7.199768310546875,4.722400188446045,4.914272308349609,-6.423871994018555
1782778813295686400,7.209686279296875,1.3060498237609863,3.71773362159729,-8.328446388244629
1782778813305696300,7.2196962890625,-0.7015939950942993,2.3171024322509766,-9.815671920776367
1782778813315675600,7.229675537109375,-1.8917121887207031,1.4118599891662598,-11.549623489379883
1782778813325685200,7.239685302734375,-2.620616912841797,0.6503400802612305,-12.01622200012207
1782778813335695000,7.249695068359375,-2.592836856842041,0.6881451606750488,-12.252418518066406
1782778813345704700,7.25970458984375,-2.4879305362701416,1.4160481691360474,-11.301939010620117
1782778813355684000,7.26968408203125,-2.876610040664673,2.1794593334198,-9.71070671081543
1782778813365634000,7.279634033203125,-3.769659996032715,3.000110626220703,-8.711441993713379
1782778813375359200,7.289359130859375,-4.7777581214904785,3.636409282684326,-8.653984069824219
1782778813385653800,7.29965380859375,-6.109862327575684,3.9536588191986084,-9.641435623168945
1782778813395753700,7.309753662109375,-7.276193141937256,4.071687698364258,-10.304126739501953
1782778813405702400,7.319702392578125,-8.040892601013184,3.807921886444092,-10.959894180297852
1782778813415681800,7.329681884765625,-8.449955940246582,3.5181140899658203,-11.865455627441406
1782778813425691400,7.33969140625,-8.43502426147461,3.256495714187622,-12.327679634094238
1782778813435701200,7.349701171875,-8.009686470031738,3.259902000427246,-12.294054985046387
1782778813445680400,7.359680419921875,-7.2118048667907715,3.2960026264190674,-11.712427139282227
1782778813455690200,7.369690185546875,-5.996794700622559,3.35595703125,-10.690698623657227
1782778813465699800,7.379699951171875,-4.292779445648193,3.176426887512207,-10.287530899047852
1782778813475679200,7.38967919921875,-2.5556607246398926,3.092175006866455,-10.23566722869873
1782778813485688800,7.399688720703125,-0.8881039619445801,2.9785830974578857,-10.190153121948242
1782778813495698700,7.40969873046875,0.07270979881286621,2.9168617725372314,-10.082966804504395
1782778813505677800,7.419677734375,0.31394100189208984,2.9327566623687744,-9.801431655883789
1782778813515687700,7.429687744140625,-0.32649827003479004,2.9323487281799316,-9.39466381072998
1782778813525697500,7.439697509765625,-1.4642735719680786,2.959627151489258,-9.121353149414062
1782778813535677000,7.449677001953125,-2.4715323448181152,2.9962048530578613,-9.099629402160645
1782778813545686500,7.4596865234375,-3.0048813819885254,3.0184030532836914,-9.210132598876953
1782778813555500300,7.469500244140625,-3.4586312770843506,3.0859215259552,-9.091615676879883
1782778813565675500,7.479675537109375,-3.826321601867676,3.2509138584136963,-8.854144096374512
1782778813575685000,7.48968505859375,-3.981630563735962,3.3823647499084473,-8.625012397766113
1782778813585695000,7.499695068359375,-4.088543891906738,3.496948003768921,-8.656868934631348
1782778813595765800,7.509765869140625,-4.30100679397583,3.5206665992736816,-8.864678382873535
1782778813605793300,7.519793212890625,-4.450371265411377,3.451774835586548,-8.964227676391602
1782778813615693800,7.52969384765625,-4.720703125,3.217289924621582,-8.868896484375
1782778813625703700,7.53970361328125,-4.31768798828125,2.99229097366333,-8.790792465209961
1782778813635792000,7.5497919921875,-3.334540605545044,2.6568613052368164,-8.898663520812988
1782778813645692700,7.559692626953125,-2.248663902282715,2.3129873275756836,-9.113019943237305
1782778813655702300,7.569702392578125,-1.1166956424713135,2.2949814796447754,-8.668850898742676
1782778813665681400,7.579681396484375,0.24285149574279785,2.26572322845459,-7.499260902404785
1782778813675691300,7.589691162109375,2.0009801387786865,2.280439615249634,-6.793963432312012
1782778813685701000,7.599701171875,3.6068854331970215,2.7730977535247803,-6.033143043518066
1782778813695680500,7.609680419921875,7.569792747497559,3.806788206100464,-6.106283187866211
1782778813705690000,7.619690185546875,12.381072998046875,5.088315010070801,-6.595311164855957
1782778813715700000,7.629699951171875,17.45887565612793,6.272398471832275,-7.304307460784912
1782778813725679000,7.63967919921875,21.640941619873047,7.529386043548584,-8.297053337097168
1782778813735689000,7.64968896484375,21.8403377532959,8.606889724731445,-8.122749328613281
1782778813745698800,7.65969873046875,19.780086517333984,11.210092544555664,-7.085694313049316
1782778813755678000,7.669677978515625,17.72900390625,13.287464141845703,-5.244561195373535
1782778813765687600,7.6796875,16.340770721435547,14.556164741516113,-3.796539783477783
1782778813775697400,7.689697509765625,15.942904472351074,15.150422096252441,-1.3017587661743164
1782778813785676500,7.699676513671875,18.716201782226562,15.242795944213867,0.4969167709350586
1782778813795686400,7.709686279296875,24.133955001831055,14.240756034851074,1.6087169647216797
1782778813805696300,7.7196962890625,31.51428985595703,13.120134353637695,2.204305648803711
1782778813815675600,7.729675537109375,35.50968551635742,11.650866508483887,1.4993782043457031
1782778813825685200,7.739685302734375,36.39071273803711,9.918770790100098,-1.410451889038086
1782778813835694800,7.74969482421875,35.15142059326172,8.411137580871582,-4.812603950500488
1782778813845735200,7.759735107421875,32.552249908447266,8.019311904907227,-6.532069206237793
1782778813855684000,7.76968408203125,28.47494125366211,8.567752838134766,-6.430610656738281
1782778813865693700,7.779693603515625,22.920915603637695,9.02385139465332,-6.189276695251465
1782778813875703600,7.78970361328125,17.214500427246094,8.817695617675781,-6.66547966003418
1782778813885682700,7.7996826171875,12.353055953979492,7.93468713760376,-7.430608749389648
1782778813895692500,7.809692626953125,8.871842384338379,6.513009548187256,-8.351433753967285
1782778813905702400,7.819702392578125,7.053870677947998,4.815771102905273,-8.583277702331543
1782778813915681500,7.829681640625,6.769153594970703,3.804060459136963,-8.728679656982422
1782778813925691400,7.83969140625,7.0337605476379395,2.8750505447387695,-9.056427955627441
1782778813935701200,7.849701171875,7.564949035644531,2.4303314685821533,-9.830496788024902
1782778813945680400,7.859680419921875,7.983923435211182,2.3872642517089844,-8.795969009399414
1782778813955690200,7.869690185546875,7.394815444946289,3.026524543762207,-8.062602996826172
1782778813965699800,7.879699951171875,6.156524658203125,3.704711675643921,-7.399967670440674
1782778813975679000,7.889678955078125,4.329773902893066,4.313420295715332,-6.787564277648926
1782778813985688800,7.899688720703125,2.09621524810791,4.7125115394592285,-6.537445545196533
1782778813995698700,7.90969873046875,-0.44706690311431885,4.591959476470947,-7.587416648864746
1782778814005678000,7.919677978515625,-2.963622570037842,4.029957294464111,-10.283618927001953
1782778814015687700,7.929687744140625,-4.96464204788208,3.7465412616729736,-12.555577278137207
1782778814025697500,7.939697509765625,-5.832196235656738,3.913909673690796,-13.029414176940918
1782778814035677000,7.949677001953125,-6.586487293243408,4.188134670257568,-12.706620216369629
1782778814045686500,7.9596865234375,-7.3671135902404785,4.218235969543457,-12.124648094177246
1782778814055696400,7.9696962890625,-7.698291301727295,4.343637466430664,-11.322000503540039
1782778814065675500,7.979675537109375,-6.639545440673828,4.479115962982178,-10.137224197387695
1782778814075685000,7.98968505859375,-4.574102401733398,4.3510026931762695,-9.710468292236328
1782778814085695000,7.999695068359375,-2.1099915504455566,4.160198211669922,-9.704545021057129
1782778814095704800,8.009704833984374,0.15874171257019043,3.8958983421325684,-9.758051872253418
1782778814105684000,8.01968408203125,1.747572660446167,3.624391555786133,-10.220431327819824
1782778814115693800,8.02969384765625,2.6577839851379395,3.250835418701172,-10.600870132446289
1782778814125703700,8.03970361328125,2.189263105392456,3.2990520000457764,-10.10077953338623
1782778814135682800,8.049682861328124,1.3414490222930908,3.3643665313720703,-8.92140007019043
1782778814145692700,8.059692626953124,0.5237240791320801,3.5055480003356934,-8.160594940185547
1782778814155702300,8.069702392578124,-0.5492541790008545,3.70888614654541,-8.06409740447998
1782778814165681400,8.079681396484375,-1.3112889528274536,3.847156524658203,-7.899958610534668
1782778814175691300,8.089691162109375,-1.3805150985717773,4.501083850860596,-7.239614009857178
1782778814185535700,8.09953564453125,-2.0370001792907715,4.735320091247559,-6.743176460266113
1782778814195680300,8.10968017578125,-2.2004685401916504,4.721975803375244,-6.713406562805176
1782778814205690000,8.119690185546874,-2.1279146671295166,4.654422283172607,-6.896677017211914
1782778814215700000,8.129699951171874,-1.6283518075942993,4.692941188812256,-7.190911293029785
1782778814225679000,8.13967919921875,-1.2233977317810059,4.467456340789795,-8.015965461730957
1782778814235689000,8.14968896484375,-2.0271172523498535,4.279655933380127,-8.853078842163086
1782778814245698600,8.159698486328125,-4.42961311340332,4.053471565246582,-9.342203140258789
