time,seconds_elapsed,z,y,x
1782778828777408000,0.189407958984375,0.3106318712234497,-4.193199634552002,-8.075807571411133
1782778828787998500,0.19999853515625,-1.1037895679473877,-3.7777984142303467,-8.647761344909668
1782778828797977600,0.2099775390625,-4.725286483764648,-1.9137778282165527,-7.003192901611328
1782778828807987200,0.2199873046875,-5.511117935180664,-0.23008418083190918,-3.445622682571411
1782778828817966600,0.229966552734375,-3.918640613555908,-0.38562899827957153,-2.7245917320251465
1782778828827976400,0.2399765625,-1.71893310546875,0.1451398730278015,-1.7408277988433838
1782778828837986000,0.249986083984375,1.9909429550170898,1.5438587665557861,-1.3376414775848389
1782778828847965400,0.25996533203125,7.169610977172852,3.2768189907073975,-1.2196295261383057
1782778828857975300,0.269975341796875,12.406828880310059,5.344701290130615,-2.876800775527954
1782778828867985000,0.27998486328125,15.65543270111084,6.7940144538879395,-4.275505065917969
1782778828877964000,0.289964111328125,14.264984130859375,7.292334079742432,-2.766179084777832
1782778828887974000,0.299973876953125,13.041690826416016,9.18760871887207,-1.7716187238693237
1782778828897983500,0.3099833984375,13.873163223266602,9.04296588897705,-0.9905998706817627
1782778828907963000,0.319962890625,16.066516876220703,8.316041946411133,1.4460022449493408
1782778828917972700,0.32997265625,20.242706298828125,8.458813667297363,3.9761247634887695
1782778828927982300,0.339982421875,25.91425323486328,8.12266731262207,5.657546043395996
1782778828937961700,0.349961669921875,31.24728012084961,7.826484680175781,6.912572860717773
1782778828947971600,0.3599716796875,33.134342193603516,8.074267387390137,6.686013221740723
1782778828957981400,0.3699814453125,29.461626052856445,7.827337265014648,6.240146636962891
1782778828967960300,0.379960205078125,23.895660400390625,7.10870361328125,5.720105171203613
1782778828977970200,0.38997021484375,19.608352661132812,6.181569576263428,4.69221305847168
1782778828987980000,0.39997998046875,17.690576553344727,4.7279767990112305,2.076852798461914
1782778828997959200,0.409959228515625,16.49847984313965,3.7952678203582764,-0.6961030960083008
1782778829007969000,0.419968994140625,14.209362983703613,3.3012871742248535,-1.9052555561065674
1782778829017979000,0.429978759765625,11.221786499023438,3.2245349884033203,-3.092703104019165
1782778829027958000,0.4399580078125,7.4542388916015625,3.4904747009277344,-3.6894168853759766
1782778829037968000,0.4499677734375,3.3089866638183594,3.5109148025512695,-3.495828151702881
1782778829047977700,0.459977783203125,-0.1243739128112793,3.625056743621826,-3.228566884994507
1782778829057987300,0.4699873046875,-2.050248622894287,3.6057422161102295,-3.1437721252441406
1782778829067966500,0.479966552734375,-2.660320281982422,2.7945568561553955,-4.373167037963867
1782778829077976300,0.489976318359375,-2.7026877403259277,1.6654800176620483,-6.44460391998291
1782778829087986200,0.499986083984375,-3.1549391746520996,0.9380720257759094,-7.4148430824279785
1782778829097965300,0.50996533203125,-4.080260276794434,0.5623185038566589,-8.05400276184082
1782778829107975200,0.51997509765625,-4.992431640625,0.5095875263214111,-8.50185775756836
1782778829117984800,0.52998486328125,-5.951363563537598,0.9017992615699768,-8.138564109802246
1782778829127964200,0.539964111328125,-7.121881008148193,1.5531516075134277,-7.264621734619141
1782778829137974000,0.54997412109375,-8.519969940185547,2.026416778564453,-6.517348766326904
1782778829147983600,0.559983642578125,-10.09126091003418,2.0718164443969727,-6.175835609436035
1782778829157963000,0.569962890625,-11.706148147583008,1.8689301013946533,-6.327324867248535
1782778829167972900,0.579972900390625,-13.094472885131836,1.3632702827453613,-6.9525556564331055
1782778829177982500,0.589982421875,-13.876623153686523,0.686151385307312,-7.776083946228027
1782778829187961600,0.599961669921875,-14.102548599243164,0.21760287880897522,-8.579797744750977
1782778829197971500,0.609971435546875,-13.62503433227539,-0.006392925977706909,-8.690418243408203
1782778829207981300,0.619981201171875,-13.0107421875,0.05929723381996155,-7.903830528259277
1782778829217960400,0.62996044921875,-12.333101272583008,-0.046977460384368896,-7.701948165893555
1782778829227970300,0.63997021484375,-10.68821907043457,-0.25855767726898193,-8.298052787780762
1782778829237980200,0.649980224609375,-8.453177452087402,-0.02862071990966797,-8.009726524353027
1782778829247959300,0.659959228515625,-5.478053569793701,0.2455829381942749,-7.053081512451172
1782778829257969200,0.66996923828125,-1.531938076019287,0.40479224920272827,-6.871561050415039
1782778829267979000,0.67997900390625,0.9485139846801758,0.7426412105560303,-6.794445991516113
1782778829277958000,0.6899580078125,0.9120302200317383,0.8000460863113403,-6.926567554473877
1782778829287967700,0.6999677734375,-0.34279966354370117,1.0754990577697754,-6.793089389801025
1782778829297977600,0.7099775390625,-1.863682746887207,1.3739129304885864,-6.330474376678467
1782778829307987200,0.7199873046875,-4.142670631408691,1.318014144897461,-6.127021312713623
1782778829317966600,0.729966552734375,-6.374133110046387,1.2462199926376343,-6.52667760848999
1782778829327976400,0.7399765625,-8.38890266418457,1.1335610151290894,-6.598870754241943
1782778829337986000,0.749986083984375,-9.350025177001953,1.1028063297271729,-6.336747169494629
1782778829347965400,0.75996533203125,-8.657992362976074,1.095125675201416,-6.097717761993408
1782778829357992700,0.76999267578125,-7.282288551330566,0.8859026432037354,-6.016354560852051
1782778829367954400,0.779954345703125,-5.969231128692627,0.6783329844474792,-6.134632587432861
1782778829377964000,0.789964111328125,-4.89388370513916,0.7001979351043701,-5.997306823730469
1782778829387974000,0.799973876953125,-4.113529205322266,0.9815560579299927,-5.390030860900879
1782778829397983500,0.8099833984375,-3.731255054473877,1.1366560459136963,-4.456460475921631
1782778829407963000,0.819962890625,-3.7904014587402344,0.8916341662406921,-4.394039154052734
1782778829417972700,0.82997265625,-2.945077896118164,0.44913411140441895,-4.468705654144287
1782778829427982300,0.839982421875,-0.9299769401550293,0.24818706512451172,-4.118957996368408
1782778829437961700,0.849961669921875,1.5272531509399414,0.17214643955230713,-3.326477527618408
1782778829447971600,0.8599716796875,4.634200096130371,-0.24765396118164062,-2.813380241394043
1782778829457981200,0.869981201171875,8.510625839233398,-0.022772789001464844,-3.7857799530029297
1782778829467960300,0.879960205078125,11.892394065856934,0.378448486328125,-3.8074309825897217
1782778829477970200,0.88997021484375,13.917386054992676,1.0235207080841064,-3.103405475616455
1782778829487980000,0.89997998046875,14.379984855651855,2.453728675842285,-1.865556240081787
1782778829497959200,0.909959228515625,14.20032024383545,3.4351484775543213,-0.9363570213317871
1782778829507969000,0.919968994140625,14.452123641967773,4.4996185302734375,-1.5837278366088867
1782778829517979000,0.929978759765625,15.305206298828125,6.156854629516602,-3.1155588626861572
1782778829527958000,0.9399580078125,16.50393295288086,7.103508472442627,-4.286900520324707
1782778829537967900,0.9499677734375,15.2899169921875,7.834841728210449,-4.145781993865967
1782778829557987300,0.9699873046875,11.208261489868164,10.628545761108398,0.502875566482544
1782778829567966500,0.979966552734375,11.9873685836792,11.228509902954102,3.606559991836548
1782778829577976300,0.989976318359375,14.576576232910156,11.237435340881348,7.680270195007324
1782778829587986200,0.999986083984375,18.15983009338379,10.214523315429688,10.785911560058594
1782778829597965300,1.00996533203125,21.82494354248047,7.833747386932373,9.994470596313477
1782778829607975200,1.01997509765625,23.231491088867188,4.855785369873047,4.522444725036621
1782778829617984800,1.02998486328125,21.7373046875,3.0457634925842285,-1.2415988445281982
1782778829627964200,1.039964111328125,16.72474479675293,3.2663052082061768,-3.2184650897979736
1782778829637974000,1.04997412109375,11.413653373718262,4.186305046081543,-2.4343457221984863
1782778829647983600,1.059983642578125,6.2797746658325195,4.997154235839844,-1.1728529930114746
1782778829657963000,1.069962890625,2.0105857849121094,5.168161392211914,-0.6755995750427246
1782778829667972900,1.079972900390625,-1.3382582664489746,4.745697975158691,-0.9466884136199951
1782778829677982500,1.089982421875,-3.6905460357666016,4.303192615509033,-1.0713350772857666
1782778829687961600,1.099961669921875,-4.471748352050781,4.132683753967285,-0.8722126483917236
1782778829697971500,1.109971435546875,-3.7906689643859863,3.7812483310699463,-0.7277388572692871
1782778829707981000,1.11998095703125,-2.6348628997802734,2.9844746589660645,-1.6302926540374756
1782778829717960400,1.12996044921875,-1.2614636421203613,1.9360448122024536,-3.1511318683624268
1782778829727970300,1.13997021484375,0.14473438262939453,0.8959258198738098,-5.339056968688965
1782778829737980200,1.149980224609375,0.7787914276123047,0.2367173433303833,-7.556221961975098
1782778829747959300,1.159959228515625,0.8192663192749023,0.07400369644165039,-8.931968688964844
1782778829757969200,1.16996923828125,0.6014289855957031,0.17928016185760498,-9.394737243652344
1782778829767979000,1.17997900390625,-0.40578794479370117,0.6449761390686035,-9.251497268676758
1782778829777958000,1.1899580078125,-2.17838716506958,1.263373851776123,-8.50421142578125
1782778829787967700,1.1999677734375,-4.213127136230469,1.723513126373291,-7.881723880767822
1782778829797977600,1.2099775390625,-6.260280132293701,2.1645097732543945,-7.42063570022583
1782778829807987200,1.2199873046875,-8.212898254394531,2.530215263366699,-6.494270324707031
1782778829817966600,1.229966552734375,-9.591856956481934,2.8670287132263184,-5.308992385864258
1782778829827976400,1.2399765625,-11.066117286682129,2.9958906173706055,-4.4701457023620605
1782778829837986000,1.249986083984375,-12.376623153686523,2.919332265853882,-4.378603935241699
1782778829847965400,1.25996533203125,-12.37556266784668,2.51362943649292,-4.986151218414307
1782778829857975300,1.269975341796875,-11.543210983276367,1.954689383506775,-5.9915008544921875
1782778829867985000,1.27998486328125,-10.238436698913574,1.5457197427749634,-6.568239212036133
1782778829877964000,1.289964111328125,-8.781000137329102,1.1349859237670898,-6.976543426513672
1782778829887974000,1.299973876953125,-7.728526592254639,0.9687550663948059,-7.358705043792725
1782778829897983500,1.3099833984375,-7.125904560089111,1.0864399671554565,-6.839607238769531
1782778829907963000,1.319962890625,-6.929842948913574,1.2211685180664062,-5.881443023681641
1782778829917972700,1.32997265625,-6.889013290405273,1.5598715543746948,-4.97898530960083
1782778829928257000,1.340257080078125,-7.111698150634766,1.8991420269012451,-4.033895015716553
1782778829937961700,1.349961669921875,-7.942673683166504,2.175091028213501,-3.4417977333068848
1782778829948032500,1.360032470703125,-8.87586498260498,2.183786392211914,-3.261976718902588
1782778829958090200,1.37009033203125,-9.51901626586914,2.1597986221313477,-3.3274450302124023
1782778829967960300,1.379960205078125,-10.003604888916016,1.9668854475021362,-3.5411927700042725
1782778829977970200,1.38997021484375,-10.149173736572266,1.589233636856079,-3.930513620376587
1782778829987980000,1.39997998046875,-9.794565200805664,1.3875172138214111,-4.318561553955078
1782778829997916000,1.409916015625,-8.914979934692383,1.1290968656539917,-4.275996685028076
1782778830007969000,1.419968994140625,-8.158519744873047,1.1133054494857788,-3.84380841255188
1782778830017978600,1.429978515625,-7.53073787689209,0.9098421335220337,-3.699021816253662
1782778830027958000,1.4399580078125,-6.347406387329102,0.5505551099777222,-3.7892446517944336
1782778830037968000,1.4499677734375,-4.714117527008057,0.4542907476425171,-3.6337199211120605
1782778830047977700,1.459977783203125,-3.7281494140625,0.1590256690979004,-3.1041603088378906
1782778830057987300,1.4699873046875,-3.3926243782043457,-0.12790131568908691,-2.422872543334961
1782778830067966500,1.479966552734375,-2.413569450378418,-0.44085896015167236,-2.337775468826294
1782778830077976300,1.489976318359375,-0.11996650695800781,-0.5083878040313721,-3.5070343017578125
1782778830087986200,1.499986083984375,3.829564094543457,-0.3553171157836914,-5.580445289611816
1782778830097965300,1.50996533203125,6.986748695373535,0.993674099445343,-7.450315475463867
1782778830107975200,1.51997509765625,8.28386116027832,2.1717135906219482,-5.824554920196533
1782778830117984800,1.52998486328125,8.129913330078125,3.021925926208496,-2.136023998260498
1782778830127964200,1.539964111328125,9.89323616027832,4.079577445983887,1.0114781856536865
1782778830137974000,1.54997412109375,14.383645057678223,4.140553951263428,3.3544204235076904
1782778830147983600,1.559983642578125,19.8851318359375,4.600172996520996,3.4975147247314453
1782778830157963000,1.569962890625,24.074399948120117,5.273058891296387,2.9673123359680176
1782778830167972900,1.579972900390625,25.36705207824707,5.1714768409729,2.8844664096832275
1782778830177982500,1.589982421875,25.588003158569336,5.136934757232666,2.0662789344787598
1782778830187961600,1.599961669921875,25.969295501708984,5.174344062805176,1.154026746749878
1782778830197971500,1.609971435546875,26.249223709106445,5.349863052368164,1.0009546279907227
1782778830207981300,1.619981201171875,25.579669952392578,5.671138763427734,1.6571998596191406
1782778830217960400,1.62996044921875,23.95064926147461,5.684601783752441,2.284371852874756
1782778830227970300,1.63997021484375,22.097932815551758,5.363239288330078,2.1830430030822754
1782778830237980200,1.649980224609375,20.31424331665039,4.875004768371582,1.075798511505127
1782778830247959300,1.659959228515625,17.7996883392334,4.566464424133301,-0.24607324600219727
1782778830257969200,1.66996923828125,14.429622650146484,4.562576770782471,-1.2787859439849854
1782778830267979000,1.67997900390625,10.728543281555176,4.724149703979492,-1.2231290340423584
1782778830277958000,1.6899580078125,7.380316734313965,4.589442729949951,-1.0927906036376953
1782778830287967700,1.6999677734375,4.953134536743164,4.2592549324035645,-1.1723523139953613
1782778830297977600,1.7099775390625,2.967556953430176,3.658865451812744,-1.6737041473388672
1782778830307987200,1.7199873046875,1.671046257019043,2.91687273979187,-3.2604422569274902
1782778830317966600,1.729966552734375,0.07850360870361328,2.7339329719543457,-4.368633270263672
1782778830327976400,1.7399765625,-1.6111774444580078,2.4940714836120605,-4.906400203704834
1782778830337986000,1.749986083984375,-2.680379867553711,2.3521649837493896,-5.805006980895996
1782778830347965400,1.75996533203125,-3.717257022857666,2.5198001861572266,-6.460668563842773
1782778830357975000,1.76997509765625,-4.922679424285889,2.900679349899292,-6.340975761413574
1782778830367985000,1.77998486328125,-5.9293646812438965,3.2777657508850098,-5.918419361114502
1782778830377964300,1.78996435546875,-6.707607269287109,3.413560390472412,-5.544075965881348
1782778830387974000,1.799973876953125,-7.4599528312683105,3.2772440910339355,-5.74884557723999
1782778830398092800,1.8100927734375,-8.5660400390625,2.8915305137634277,-6.327554225921631
1782778830407963000,1.819962890625,-9.965182304382324,2.464804172515869,-7.040404796600342
1782778830417972500,1.829972412109375,-11.306683540344238,2.2202436923980713,-7.286809921264648
1782778830427982300,1.839982421875,-12.554043769836426,1.8549081087112427,-7.364846706390381
1782778830437961700,1.849961669921875,-13.568548202514648,1.771253228187561,-7.791597843170166
1782778830447971600,1.8599716796875,-13.922892570495605,1.4814103841781616,-7.7766828536987305
1782778830457981400,1.8699814453125,-13.424158096313477,1.3126996755599976,-7.375999450683594
1782778830467960600,1.879960693359375,-11.976634979248047,1.5554863214492798,-6.3561530113220215
1782778830477970200,1.88997021484375,-10.514598846435547,1.8354322910308838,-5.266269683837891
1782778830487979800,1.899979736328125,-9.166885375976562,2.1540417671203613,-4.451292037963867
1782778830497959200,1.909959228515625,-8.295214653015137,2.441171646118164,-3.764129161834717
1782778830508078300,1.920078369140625,-8.196259498596191,2.3137433528900146,-3.692436695098877
1782778830517979000,1.929978759765625,-8.80937671661377,1.8650448322296143,-4.291877269744873
1782778830527958000,1.9399580078125,-9.67420768737793,1.3893725872039795,-5.2626142501831055
1782778830537967900,1.9499677734375,-10.30388069152832,1.057976484298706,-5.694054126739502
1782778830547977500,1.9599775390625,-10.38608169555664,0.9363545775413513,-5.683351516723633
1782778830557550600,1.969550537109375,-9.922123908996582,1.1296566724777222,-5.480489730834961
1782778830567966500,1.979966552734375,-9.076187133789062,1.3111491203308105,-4.97858190536499
1782778830578085600,1.990085693359375,-7.855203151702881,1.8060771226882935,-4.027254581451416
1782778830587955700,1.999955810546875,-7.118962287902832,2.432873487472534,-2.86208438873291
1782778830597965300,2.00996533203125,-7.383469581604004,2.7571845054626465,-2.004934310913086
1782778830608084200,2.020084228515625,-7.99673318862915,2.658548593521118,-2.047605514526367
1782778830617954300,2.029954345703125,-8.396267890930176,2.36615252494812,-2.674797773361206
1782778830627964200,2.039964111328125,-8.387667655944824,1.960034966468811,-3.2267465591430664
1782778830637869600,2.04986962890625,-8.098397254943848,1.42738676071167,-3.6432690620422363
1782778830647953200,2.059953125,-7.198021411895752,0.8538771271705627,-4.009555816650391
1782778830657963000,2.069962890625,-5.115004539489746,0.3261033296585083,-4.173174858093262
1782778830667972900,2.079972900390625,-2.7364635467529297,-0.1872164011001587,-4.13238525390625
1782778830677982500,2.089982421875,-0.06412220001220703,-0.6057366132736206,-3.774275064468384
1782778830687961900,2.0999619140625,3.8916683197021484,-0.42715978622436523,-2.840013027191162
1782778830697971500,2.109971435546875,9.388959884643555,0.5486152172088623,-2.2438786029815674
1782778830707981000,2.11998095703125,15.043414115905762,2.315356731414795,-2.606508255004883
1782778830717960400,2.12996044921875,17.10808563232422,4.70545768737793,-4.836724281311035
1782778830727970300,2.13997021484375,12.530060768127441,5.865716457366943,-6.098980903625488
1782778830737980000,2.14997998046875,5.25997257232666,8.037836074829102,-3.94759202003479
1782778830757969200,2.16996923828125,3.107174873352051,7.774676322937012,0.13261628150939941
1782778830767978800,2.179978759765625,10.237524032592773,6.304000377655029,0.2758655548095703
1782778830777958100,2.189958251953125,18.60206413269043,4.356327533721924,2.6651971340179443
1782778830787967700,2.1999677734375,27.912242889404297,2.34606671333313,3.9520912170410156
1782778830797977300,2.209977294921875,34.156982421875,1.1388678550720215,2.659390926361084
1782778830807987200,2.2199873046875,35.884307861328125,1.4821770191192627,0.9146652221679688
1782778830817966600,2.229966552734375,31.79131317138672,2.485701322555542,2.2812728881835938
1782778830827976400,2.2399765625,24.30426025390625,3.8393101692199707,5.2603559494018555
1782778830837986000,2.249986083984375,17.459766387939453,4.559208869934082,6.439301490783691
1782778830847965400,2.25996533203125,13.366806983947754,4.8587236404418945,5.739664077758789
1782778830857975300,2.269975341796875,11.210006713867188,4.9018635749816895,3.9207849502563477
1782778830867985000,2.27998486328125,9.920415878295898,4.50169563293457,1.6623668670654297
1782778830877964000,2.289964111328125,9.093049049377441,3.9929981231689453,-0.40864038467407227
1782778830887974000,2.299973876953125,8.01330280303955,3.787212371826172,-1.9329025745391846
1782778830897983500,2.3099833984375,6.758489608764648,3.5531067848205566,-2.577530860900879
1782778830907963000,2.319962890625,5.422496318817139,3.48831844329834,-3.0480854511260986
1782778830917972700,2.32997265625,4.464286804199219,3.3367834091186523,-3.623331308364868
1782778830927982300,2.339982421875,3.832474708557129,2.9870223999023438,-4.563687324523926
1782778830937961700,2.349961669921875,3.019449234008789,2.6941347122192383,-5.413250923156738
1782778830947971600,2.3599716796875,1.165482997894287,2.6200995445251465,-5.761408805847168
1782778830957981200,2.369981201171875,-1.3657665252685547,2.767751693725586,-5.854532718658447
1782778830967960300,2.379960205078125,-3.750178813934326,2.6644973754882812,-6.50091552734375
1782778830977970200,2.38997021484375,-5.834998607635498,2.5458080768585205,-7.325675010681152
1782778830987979800,2.399979736328125,-7.38498067855835,2.3103373050689697,-8.45810317993164
1782778830997959200,2.409959228515625,-8.814753532409668,2.0308890342712402,-8.370620727539062
1782778831007969000,2.419968994140625,-10.03084945678711,2.340277671813965,-8.048498153686523
1782778831017978600,2.429978515625,-11.08724308013916,2.818392276763916,-7.0953288078308105
1782778831027958000,2.4399580078125,-11.696746826171875,2.963744640350342,-6.037532806396484
1782778831037968000,2.4499677734375,-11.81368637084961,2.8252596855163574,-5.861489295959473
1782778831047977500,2.4599775390625,-11.786537170410156,2.625643730163574,-5.993841648101807
1782778831057987300,2.4699873046875,-11.721792221069336,2.142915964126587,-6.156302452087402
1782778831067966500,2.479966552734375,-11.287117958068848,1.6667641401290894,-6.710253715515137
1782778831077976300,2.489976318359375,-10.589574813842773,1.172987699508667,-7.245545864105225
1782778831087986200,2.499986083984375,-9.817492485046387,0.7527177929878235,-7.570007801055908
1782778831097965300,2.50996533203125,-9.141338348388672,0.5610527992248535,-7.6025872230529785
1782778831107975200,2.51997509765625,-8.855690002441406,0.6417025923728943,-7.2337799072265625
1782778831117984800,2.52998486328125,-8.63992691040039,0.849718451499939,-6.776899337768555
1782778831127964200,2.539964111328125,-8.3897705078125,0.9968569278717041,-6.282944679260254
1782778831137974000,2.54997412109375,-8.198867797851562,1.235116720199585,-5.754384994506836
1782778831147983600,2.559983642578125,-8.11037826538086,1.4382988214492798,-5.297338485717773
1782778831157950000,2.569949951171875,-8.166743278503418,1.6050591468811035,-4.944826602935791
1782778831167972900,2.579972900390625,-8.33631706237793,1.606225848197937,-4.87337064743042
1782778831177982500,2.589982421875,-8.632983207702637,1.5411851406097412,-5.026803970336914
1782778831187613200,2.59961328125,-8.918670654296875,1.3742055892944336,-5.258975505828857
1782778831197971500,2.609971435546875,-9.238863945007324,1.4519226551055908,-5.283487319946289
1782778831207981300,2.619981201171875,-9.582337379455566,1.5392744541168213,-4.835514068603516
1782778831218069800,2.63006982421875,-9.69963264465332,1.525713562965393,-4.582602024078369
1782778831227970300,2.63997021484375,-9.561226844787598,1.4163951873779297,-4.670004844665527
1782778831237980200,2.649980224609375,-9.081554412841797,1.386797308921814,-4.356717109680176
1782778831248068600,2.660068603515625,-8.104289054870605,1.4059960842132568,-3.6203885078430176
1782778831257969200,2.66996923828125,-6.492898941040039,1.3700615167617798,-3.1199898719787598
1782778831267978800,2.679978759765625,-4.5082106590271,1.2695640325546265,-2.4636833667755127
1782778831277958000,2.6899580078125,-2.02195405960083,1.0227010250091553,-1.9824888706207275
1782778831287967700,2.6999677734375,-0.030676841735839844,0.6509653925895691,-2.561687469482422
1782778831297977600,2.7099775390625,1.5099163055419922,0.27959907054901123,-4.171599864959717
1782778831307987200,2.7199873046875,3.7128124237060547,0.6686404347419739,-5.3377227783203125
1782778831317966600,2.729966552734375,7.3097944259643555,1.9999780654907227,-5.008164405822754
1782778831327976200,2.73997607421875,10.664639472961426,3.524739980697632,-4.567857265472412
1782778831337986000,2.749986083984375,13.620009422302246,4.695145606994629,-2.863779306411743
1782778831347965400,2.75996533203125,17.3712158203125,5.132604122161865,-0.38812923431396484
1782778831357975000,2.76997509765625,21.16378402709961,5.654029369354248,0.5095076560974121
1782778831367985000,2.77998486328125,22.833959579467773,5.566494464874268,-0.16860651969909668
1782778831377964300,2.78996435546875,21.770801544189453,5.462474346160889,-0.7080178260803223
1782778831397983500,2.8099833984375,22.500080108642578,4.68125057220459,1.0536305904388428
1782778831407963000,2.819962890625,24.964487075805664,4.276918411254883,2.2548511028289795
1782778831417972700,2.82997265625,26.689041137695312,4.625793933868408,4.185308456420898
1782778831427982300,2.839982421875,26.208049774169922,5.316318511962891,5.273221969604492
1782778831437961700,2.849961669921875,24.297582626342773,6.174915313720703,5.66642427444458
1782778831447971600,2.8599716796875,21.413471221923828,6.616017818450928,4.814005374908447
1782778831457981400,2.8699814453125,17.768203735351562,6.511972427368164,2.848483085632324
1782778831467960300,2.879960205078125,13.857626914978027,6.230002403259277,0.5685291290283203
1782778831477970200,2.88997021484375,10.301362037658691,6.052522659301758,-1.0000944137573242
1782778831487980000,2.89997998046875,7.773469924926758,5.679709434509277,-1.8132703304290771
1782778831497959200,2.909959228515625,5.747597694396973,5.175570487976074,-2.048029899597168
1782778831507969000,2.919968994140625,3.889162063598633,4.565049171447754,-1.8965470790863037
1782778831517979000,2.929978759765625,2.4096412658691406,3.9368629455566406,-1.7481656074523926
1782778831527958000,2.9399580078125,1.4278593063354492,3.2058115005493164,-1.8688795566558838
1782778831537967900,2.9499677734375,1.3692083358764648,2.527663469314575,-2.855599880218506
1782778831547977500,2.9599775390625,0.5214920043945312,2.0310277938842773,-3.75539493560791
1782778831557987300,2.9699873046875,-1.051591396331787,1.425156831741333,-4.660401821136475
1782778831567966700,2.979966796875,-2.990095615386963,1.1016520261764526,-5.507038593292236
1782778831577976300,2.989976318359375,-5.486752033233643,0.9877544641494751,-5.910336494445801
1782778831587986200,2.999986083984375,-7.613361358642578,0.9005253911018372,-5.987217903137207
1782778831597965300,3.00996533203125,-9.349384307861328,0.9598484039306641,-6.113900661468506
1782778831607975000,3.019974853515625,-10.473151206970215,0.967477023601532,-6.309521198272705
1782778831617984800,3.02998486328125,-10.76443099975586,1.043657660484314,-6.481366157531738
1782778831627964200,3.039964111328125,-10.589603424072266,1.1233165264129639,-6.773535251617432
1782778831637914400,3.049914306640625,-10.084465980529785,1.298241376876831,-6.294376850128174
1782778831648044800,3.060044921875,-9.359023094177246,1.555799126625061,-6.563438415527344
1782778831657963000,3.069962890625,-9.431404113769531,1.755684494972229,-6.294018745422363
1782778831667972900,3.079972900390625,-10.295806884765625,2.0324902534484863,-5.6680989265441895
1782778831677982500,3.089982421875,-11.257590293884277,2.260256290435791,-5.1467671394348145
1782778831687961900,3.0999619140625,-12.2376127243042,2.2668027877807617,-4.920485496520996
1782778831697971500,3.109971435546875,-12.947002410888672,2.01515793800354,-5.03164005279541
1782778831707981300,3.119981201171875,-13.281341552734375,1.7645100355148315,-5.433387279510498
1782778831717960400,3.12996044921875,-13.068679809570312,1.4234933853149414,-5.8816447257995605
1782778831727970300,3.13997021484375,-12.244760513305664,1.0686132907867432,-6.214442729949951
1782778831737980000,3.14997998046875,-10.928313255310059,0.8031401038169861,-6.223193645477295
1782778831747959300,3.159959228515625,-9.7645902633667,0.665290117263794,-6.038294315338135
1782778831757969200,3.16996923828125,-9.042940139770508,0.7311448454856873,-5.6071014404296875
1782778831767979000,3.17997900390625,-8.887898445129395,0.853502631187439,-4.857310771942139
1782778831777958100,3.189958251953125,-9.220876693725586,0.9929239749908447,-4.371417045593262
1782778831787967700,3.1999677734375,-9.733635902404785,1.1239818334579468,-4.021793365478516
1782778831797873400,3.209873291015625,-9.680810928344727,1.0498061180114746,-4.041189193725586
1782778831807956700,3.219956787109375,-8.977930068969727,0.8729445934295654,-4.527405261993408
1782778831817966600,3.229966552734375,-7.887692451477051,0.5919398069381714,-5.3109235763549805
1782778831827976400,3.2399765625,-7.0103349685668945,0.753189206123352,-5.457520484924316
1782778831838169300,3.25016943359375,-7.129950046539307,1.0398730039596558,-4.738211631774902
1782778831848073700,3.26007373046875,-7.12895393371582,1.3634718656539917,-4.371846675872803
1782778831857975300,3.269975341796875,-7.40323543548584,1.7490694522857666,-3.697967767715454
1782778831867985000,3.27998486328125,-7.527231216430664,2.1377129554748535,-2.7768146991729736
1782778831877964300,3.28996435546875,-6.889528274536133,2.340749740600586,-2.14288067817688
1782778831887974000,3.299973876953125,-5.820059299468994,2.2434146404266357,-2.2627642154693604
1782778831897983500,3.3099833984375,-4.560786247253418,1.9836469888687134,-2.6216254234313965
1782778831907963000,3.319962890625,-2.4243016242980957,1.4451690912246704,-3.1268768310546875
1782778831917972700,3.32997265625,1.0367813110351562,1.3645846843719482,-3.8562746047973633
1782778831927982300,3.339982421875,5.156418800354004,1.4422252178192139,-4.753645896911621
1782778831937961700,3.349961669921875,9.315718650817871,2.3956189155578613,-5.65578556060791
1782778831957981200,3.369981201171875,12.90699577331543,5.727663993835449,-3.059288501739502
1782778831967960300,3.379960205078125,13.419170379638672,6.958629131317139,-0.46511411666870117
1782778831977970200,3.38997021484375,16.088321685791016,7.450048446655273,0.512423038482666
1782778831987979800,3.399979736328125,20.11667251586914,6.14528751373291,-1.2609987258911133
1782778831997959200,3.409959228515625,22.781288146972656,5.463797569274902,-3.5331575870513916
1782778832007969000,3.419968994140625,24.684371948242188,4.192980766296387,-2.5558629035949707
1782778832017978600,3.429978515625,27.041656494140625,3.209104299545288,-1.6617670059204102
1782778832027958000,3.4399580078125,29.691837310791016,2.111079216003418,0.27309465408325195
1782778832037968000,3.4499677734375,31.406057357788086,1.8755974769592285,3.4720711708068848
1782778832047977500,3.4599775390625,31.960071563720703,2.4946935176849365,6.224237442016602
1782778832057987300,3.4699873046875,30.325458526611328,3.310262680053711,6.389013767242432
1782778832067966700,3.479966796875,26.180583953857422,3.804734945297241,5.005062103271484
1782778832077976300,3.489976318359375,20.51779556274414,4.279509544372559,3.5247488021850586
1782778832087986200,3.499986083984375,14.782175064086914,5.015993118286133,2.3456974029541016
1782778832097965300,3.50996533203125,10.320978164672852,5.605278968811035,0.5452899932861328
1782778832107975200,3.51997509765625,6.760382652282715,5.936688423156738,-0.9844369888305664
1782778832117984800,3.52998486328125,4.045454025268555,6.029064178466797,-1.575005292892456
1782778832127964200,3.539964111328125,2.3061132431030273,5.8353118896484375,-1.944831132888794
1782778832137914400,3.549914306640625,0.9469070434570312,5.3596086502075195,-2.559704065322876
1782778832147985200,3.559985107421875,0.3895702362060547,4.533271312713623,-3.7388620376586914
1782778832158054400,3.570054443359375,1.6493568420410156,3.4067444801330566,-5.2393035888671875
1782778832167972900,3.579972900390625,3.131178855895996,2.2152509689331055,-6.795099258422852
1782778832177982500,3.589982421875,2.1452646255493164,1.711745262145996,-7.599554538726807
1782778832187961600,3.599961669921875,-0.5481758117675781,1.313327670097351,-8.016497611999512
1782778832197971500,3.609971435546875,-3.378976345062256,1.0396921634674072,-8.608339309692383
1782778832207921400,3.61992138671875,-5.996499538421631,0.8306599855422974,-8.961821556091309
1782778832218541600,3.63054150390625,-8.880011558532715,1.062675952911377,-8.599547386169434
1782778832237980200,3.649980224609375,-12.213055610656738,1.5540958642959595,-6.921418190002441
1782778832247959300,3.659959228515625,-13.193485260009766,1.8669772148132324,-6.611560344696045
1782778832257969200,3.66996923828125,-13.975455284118652,1.7355326414108276,-6.144430160522461
1782778832267978800,3.679978759765625,-13.477750778198242,1.6991243362426758,-5.72543478012085
1782778832277958000,3.6899580078125,-12.520242691040039,1.82204008102417,-5.46885871887207
1782778832287967700,3.6999677734375,-11.59755802154541,1.7672150135040283,-5.039457321166992
1782778832297977300,3.709977294921875,-10.60146427154541,1.7048454284667969,-4.990116119384766
1782778832307987200,3.7199873046875,-9.657466888427734,1.6158448457717896,-5.22581672668457
1782778832317937400,3.7299375,-8.827839851379395,1.3826675415039062,-5.566082954406738
1782778832328037400,3.740037353515625,-8.324485778808594,1.2788798809051514,-5.600024223327637
1782778832337986000,3.749986083984375,-8.322782516479492,1.3852338790893555,-5.137811660766602
1782778832347965400,3.75996533203125,-8.566905975341797,1.4699069261550903,-4.732416152954102
1782778832358249700,3.770249755859375,-8.8368558883667,1.4617942571640015,-4.721147060394287
1782778832367985000,3.77998486328125,-8.933850288391113,1.370391845703125,-4.744056224822998
1782778832377904400,3.789904296875,-8.831575393676758,1.309662103652954,-4.680246353149414
1782778832388034800,3.800034912109375,-8.423093795776367,1.2569811344146729,-4.597663402557373
1782778832397983500,3.8099833984375,-7.93574333190918,1.2288521528244019,-4.475312232971191
1782778832408072200,3.820072265625,-7.706459045410156,1.271323561668396,-4.274295806884766
1782778832417972700,3.82997265625,-7.6451287269592285,1.5298584699630737,-3.746842861175537
1782778832427982300,3.839982421875,-7.783517360687256,1.788550615310669,-3.0896012783050537
1782778832437780200,3.8497802734375,-8.279643058776855,1.9063595533370972,-2.7625555992126465
1782778832447971600,3.8599716796875,-8.905441284179688,1.830838680267334,-2.9437808990478516
1782778832457981200,3.869981201171875,-9.24899673461914,1.6213726997375488,-3.3441057205200195
1782778832467960300,3.879960205078125,-9.458525657653809,1.4963849782943726,-3.5927865505218506
1782778832478092300,3.89009228515625,-9.536670684814453,1.3171924352645874,-3.720324993133545
1782778832488089300,3.90008935546875,-9.593083381652832,1.1861979961395264,-3.6578586101531982
1782778832497959200,3.909959228515625,-9.58033275604248,1.0730843544006348,-3.4518837928771973
1782778832507969000,3.919968994140625,-9.050488471984863,0.8342126607894897,-3.518949508666992
1782778832518088000,3.930087890625,-7.949372291564941,0.5864503383636475,-3.3639278411865234
1782778832527958000,3.9399580078125,-6.128300666809082,0.41916555166244507,-2.7240097522735596
1782778832537967900,3.9499677734375,-3.647080421447754,0.6323186159133911,-2.035050868988037
1782778832547977500,3.9599775390625,-0.16663837432861328,1.6541303396224976,-1.3311026096343994
1782778832557987300,3.9699873046875,4.066713333129883,3.041959285736084,-1.045919418334961
1782778832567966700,3.979966796875,8.980918884277344,4.557554721832275,-1.8910036087036133
1782778832577976300,3.989976318359375,13.951465606689453,5.856133460998535,-1.8665404319763184
1782778832587986200,3.999986083984375,17.978702545166016,6.398442268371582,-0.5417861938476562
1782778832597965300,4.00996533203125,21.354755401611328,7.48796272277832,-0.37256336212158203
1782778832607975200,4.01997509765625,21.822242736816406,8.098780632019043,-1.469186782836914
1782778832617984800,4.02998486328125,20.783828735351562,7.956338882446289,-3.0875327587127686
1782778832627964200,4.039964111328125,19.469043731689453,7.812997341156006,-2.5378525257110596
1782778832637974000,4.04997412109375,18.73230743408203,7.778653144836426,-0.37836432456970215
1782778832647983600,4.059983642578125,21.691219329833984,6.7024993896484375,1.7026019096374512
1782778832657963000,4.069962890625,26.00800323486328,5.06997013092041,2.9102721214294434
1782778832667972900,4.079972900390625,30.77098846435547,3.849271297454834,3.071718454360962
1782778832677982500,4.089982421875,32.065521240234375,2.993185043334961,2.0711073875427246
1782778832687961600,4.099961669921875,28.80526351928711,2.447411060333252,0.5214667320251465
1782778832697971500,4.109971435546875,23.046653747558594,2.9433207511901855,0.09956645965576172
1782778832707981000,4.11998095703125,17.374465942382812,3.709944248199463,-0.1824193000793457
1782778832717960400,4.12996044921875,12.983688354492188,4.392496585845947,-0.5044703483581543
1782778832727970300,4.13997021484375,8.734505653381348,5.022072792053223,-0.6636579036712646
1782778832737980000,4.14997998046875,4.648927688598633,5.360422611236572,-0.7950704097747803
1782778832747959300,4.159959228515625,1.1844072341918945,5.51216459274292,-0.825047492980957
1782778832757969200,4.16996923828125,-1.3366599082946777,5.124135971069336,-1.4891645908355713
1782778832767978800,4.179978759765625,-2.85198974609375,4.744549751281738,-2.4946014881134033
1782778832777958000,4.1899580078125,-3.9458565711975098,4.312521934509277,-3.296128749847412
1782778832787967700,4.1999677734375,-4.858623504638672,4.024539947509766,-3.8904056549072266
1782778832797977300,4.209977294921875,-5.467648029327393,3.8405532836914062,-4.4956560134887695
1782778832807987200,4.2199873046875,-5.818037033081055,3.336475372314453,-5.632218360900879
1782778832817966600,4.229966552734375,-6.180614471435547,2.9646713733673096,-6.774521827697754
1782778832827976400,4.2399765625,-6.64443302154541,2.741813898086548,-7.3924150466918945
1782778832837986000,4.249986083984375,-7.267624855041504,2.6144957542419434,-7.562514305114746
1782778832847965400,4.25996533203125,-7.966022491455078,2.567500114440918,-7.42066764831543
1782778832857975300,4.269975341796875,-8.786704063415527,2.6047074794769287,-6.974393367767334
1782778832867985000,4.27998486328125,-9.907490730285645,2.7643606662750244,-6.251818656921387
1782778832877964000,4.289964111328125,-11.229448318481445,2.8177618980407715,-5.90319299697876
1782778832887974000,4.299973876953125,-12.238590240478516,2.567901134490967,-5.581688404083252
1782778832897983500,4.3099833984375,-12.79653549194336,2.417173147201538,-5.916282653808594
1782778832907963000,4.319962890625,-12.50466537475586,2.2738986015319824,-6.398104667663574
1782778832917972700,4.32997265625,-11.6925687789917,2.0421550273895264,-6.577253341674805
1782778832927982300,4.339982421875,-10.734709739685059,1.8511048555374146,-6.701934814453125
1782778832937961700,4.349961669921875,-9.657560348510742,1.8002938032150269,-6.671070098876953
1782778832947971600,4.3599716796875,-8.671927452087402,1.8592168092727661,-6.136369705200195
1782778832957981200,4.369981201171875,-8.132506370544434,1.8519117832183838,-5.65478515625
1782778832967960300,4.379960205078125,-7.644036293029785,1.9070900678634644,-5.256170749664307
1782778832977970200,4.38997021484375,-7.297163009643555,1.953888177871704,-4.837453365325928
1782778832987979800,4.399979736328125,-7.079322338104248,1.8668084144592285,-4.700598239898682
1782778832998173000,4.4101728515625,-6.838047027587891,1.9297640323638916,-4.483153820037842
1782778833007969000,4.419968994140625,-6.605183124542236,1.9545047283172607,-4.384549140930176
1782778833017979000,4.429978759765625,-6.390715599060059,1.7680634260177612,-4.648460865020752
1782778833027958000,4.4399580078125,-6.579959392547607,1.57172429561615,-5.048592567443848
1782778833037968000,4.4499677734375,-6.800366401672363,1.3545775413513184,-5.368008613586426
1782778833047977500,4.4599775390625,-6.911796569824219,1.205136775970459,-5.560056209564209
1782778833057987300,4.4699873046875,-7.504585266113281,1.1252074241638184,-5.381457805633545
1782778833067966700,4.479966796875,-8.208086013793945,1.320678472518921,-4.55325984954834
1782778833077719300,4.48971923828125,-8.764902114868164,1.4613304138183594,-3.8824851512908936
1782778833087955700,4.499955810546875,-9.198994636535645,1.490768313407898,-3.5915331840515137
1782778833097965300,4.50996533203125,-8.702777862548828,1.3441505432128906,-3.3778412342071533
1782778833107975200,4.51997509765625,-6.937822341918945,0.6936588883399963,-3.7494699954986572
1782778833117984800,4.52998486328125,-5.093095779418945,0.297247052192688,-3.9498634338378906
1782778833127964200,4.539964111328125,-2.978663444519043,-0.16770589351654053,-3.1272449493408203
1782778833137974000,4.54997412109375,0.6063327789306641,-0.35927844047546387,-2.585404396057129
1782778833147983600,4.559983642578125,5.383816719055176,0.0983511209487915,-2.489912509918213
1782778833157963000,4.569962890625,10.759133338928223,1.7984074354171753,-2.6118767261505127
1782778833167972600,4.57997265625,14.620644569396973,4.982176780700684,-4.110590934753418
1782778833177982500,4.589982421875,14.214873313903809,7.332934379577637,-5.495812892913818
1782778833187961600,4.599961669921875,10.608119010925293,7.5012993812561035,-4.703766345977783
1782778833197971500,4.609971435546875,8.852550506591797,9.225777626037598,-3.97912859916687
1782778833207981300,4.619981201171875,10.36542797088623,8.213955879211426,-2.004793882369995
1782778833217960400,4.62996044921875,15.576083183288574,6.6755218505859375,-0.16782617568969727
1782778833237980000,4.64997998046875,27.801240921020508,5.365832805633545,6.41758918762207
1782778833247959300,4.659959228515625,34.68388366699219,4.081048965454102,7.3309645652771
1782778833257969200,4.66996923828125,38.420562744140625,2.5876357555389404,4.926726818084717
1782778833267979000,4.67997900390625,37.72084426879883,1.3842294216156006,2.6621150970458984
1782778833277958100,4.689958251953125,33.329315185546875,0.6691672801971436,0.7627501487731934
1782778833287967700,4.6999677734375,27.29388427734375,1.0643603801727295,0.47196531295776367
1782778833297977300,4.709977294921875,21.353038787841797,2.440523624420166,1.6551012992858887
1782778833307987200,4.7199873046875,16.413616180419922,3.6220855712890625,2.0932836532592773
1782778833317966600,4.729966552734375,12.156813621520996,4.355616092681885,1.1237602233886719
1782778833327976400,4.7399765625,9.009781837463379,4.832370281219482,0.038483619689941406
1782778833337986000,4.749986083984375,6.162435531616211,4.951432704925537,-0.38642311096191406
1782778833347965400,4.75996533203125,3.6943740844726562,4.553051471710205,-1.1885223388671875
1782778833357975300,4.769975341796875,1.3756704330444336,4.074222564697266,-2.358973741531372
1782778833367985000,4.77998486328125,-0.7170777320861816,3.725971221923828,-3.5047123432159424
1782778833377874000,4.7898740234375,-2.1531519889831543,3.4273533821105957,-4.378192901611328
1782778833388034800,4.800034912109375,-2.9341330528259277,2.820401191711426,-5.558755874633789
1782778833397983500,4.8099833984375,-3.9460058212280273,2.4769692420959473,-6.215401649475098
1782778833407963000,4.819962890625,-5.477758884429932,2.0214710235595703,-6.605026721954346
1782778833417972700,4.82997265625,-6.217199325561523,1.755516529083252,-7.149394989013672
1782778833427982300,4.839982421875,-6.768825531005859,1.7389949560165405,-6.873960494995117
1782778833437902000,4.849902099609375,-7.020784854888916,2.261467933654785,-5.928956985473633
1782778833448032500,4.860032470703125,-7.9294047355651855,2.4679760932922363,-5.709531307220459
1782778833457981200,4.869981201171875,-8.803548812866211,2.328261375427246,-6.04987907409668
1782778833467960300,4.879960205078125,-9.269560813903809,2.2153100967407227,-6.170397758483887
1782778833477941000,4.88994091796875,-9.896687507629395,2.2003583908081055,-5.999935150146484
1782778833488041000,4.900041015625,-10.610391616821289,2.0841760635375977,-5.676194190979004
1782778833497959200,4.909959228515625,-11.342649459838867,1.8889213800430298,-5.717947006225586
1782778833507969000,4.919968994140625,-12.30039119720459,1.8566761016845703,-5.689057350158691
1782778833517919000,4.9299189453125,-13.40450668334961,1.9877070188522339,-5.464398384094238
1782778833528049400,4.94004931640625,-14.293712615966797,1.8452225923538208,-5.465254783630371
1782778833537967900,4.9499677734375,-14.51754379272461,1.4866377115249634,-5.828697204589844
1782778833547977500,4.9599775390625,-13.881298065185547,1.1410996913909912,-6.271282196044922
1782778833557987300,4.9699873046875,-13.066617965698242,0.6449773907661438,-6.695137023925781
1782778833567966700,4.979966796875,-12.280265808105469,0.19732245802879333,-7.027740478515625
1782778833577916400,4.98991650390625,-11.587275505065918,-0.027133077383041382,-6.953596115112305
1782778833588047000,5.000047119140625,-10.940340042114258,-0.23575732111930847,-6.535364151000977
1782778833597965300,5.00996533203125,-10.689094543457031,-0.23482027649879456,-5.946310520172119
1782778833607975200,5.01997509765625,-10.811166763305664,-0.09524485468864441,-5.253151893615723
1782778833617984800,5.02998486328125,-10.905601501464844,0.027626246213912964,-4.680917739868164
1782778833627964200,5.039964111328125,-10.815232276916504,0.13268911838531494,-4.519710540771484
1782778833638096000,5.050095947265625,-10.547296524047852,0.08218777179718018,-4.424533367156982
1782778833648046000,5.060046142578125,-10.477808952331543,-0.041296303272247314,-4.603989601135254
1782778833658208500,5.07020849609375,-10.584315299987793,-0.047759681940078735,-4.741178512573242
1782778833668033800,5.08003369140625,-10.70010757446289,0.15143537521362305,-4.475015163421631
1782778833677982500,5.089982421875,-10.803518295288086,0.18007038533687592,-4.355644226074219
1782778833688010000,5.100010009765625,-10.904926300048828,0.28018319606781006,-4.179615020751953
1782778833697971500,5.109971435546875,-10.491453170776367,0.27436500787734985,-4.228876113891602
1782778833707921400,5.11992138671875,-9.543664932250977,0.20468902587890625,-4.011919975280762
1782778833718052000,5.130052001953125,-8.190784454345703,0.14310410618782043,-3.5138638019561768
1782778833727910700,5.13991064453125,-6.461175918579102,-0.11407679319381714,-2.751603603363037
1782778833738634800,5.150634765625,-3.410487651824951,-0.7811099290847778,-2.5220394134521484
1782778833757970400,5.169970458984375,7.83747673034668,-0.15593528747558594,-4.707204818725586
1782778833768040000,5.1800400390625,11.642046928405762,1.6584408283233643,-4.596098899841309
1782778833777958000,5.1899580078125,13.986844062805176,4.552229881286621,-2.9196882247924805
1782778833797977300,5.209977294921875,12.692914009094238,6.518658638000488,2.109769821166992
1782778833807987200,5.2199873046875,14.147448539733887,7.550168514251709,-0.3024415969848633
1782778833817966600,5.229966552734375,17.44388198852539,6.957761287689209,-2.5356645584106445
1782778833827976400,5.2399765625,20.40667724609375,5.185592174530029,-1.2452256679534912
1782778833837986000,5.249986083984375,20.837726593017578,5.059350967407227,1.1640868186950684
1782778833847965400,5.25996533203125,21.44334602355957,4.9600830078125,4.55007791519165
1782778833857975300,5.269975341796875,23.837181091308594,4.64683723449707,6.0429816246032715
1782778833867985000,5.27998486328125,25.987735748291016,4.807816028594971,7.24552583694458
1782778833877964000,5.289964111328125,26.94080352783203,4.295589923858643,5.909317493438721
1782778833887974000,5.299973876953125,25.769765853881836,3.5336384773254395,2.5203967094421387
1782778833897983500,5.3099833984375,22.592510223388672,3.406519651412964,0.4313998222351074
1782778833907963000,5.319962890625,18.43672752380371,3.3377251625061035,-1.4382529258728027
1782778833917972700,5.32997265625,13.536441802978516,3.5850958824157715,-2.5380029678344727
1782778833927982300,5.339982421875,8.749235153198242,3.766415596008301,-1.8241150379180908
1782778833937961700,5.349961669921875,5.320569038391113,3.387892246246338,-1.3130512237548828
1782778833947971600,5.3599716796875,4.129247665405273,2.626476287841797,-1.4031848907470703
1782778833957981200,5.369981201171875,4.852652549743652,1.6659075021743774,-1.1319549083709717
1782778833967960300,5.379960205078125,6.788606643676758,0.7993137836456299,-2.146873950958252
1782778833977970200,5.38997021484375,7.32960319519043,0.5598205327987671,-3.4901089668273926
1782778833987980000,5.39997998046875,6.0194196701049805,0.6144391298294067,-3.915400266647339
1782778833997959200,5.409959228515625,3.61989164352417,0.907457709312439,-4.41566276550293
1782778834007969000,5.419968994140625,1.0217080116271973,1.431434988975525,-4.6980791091918945
1782778834017978600,5.429978515625,-1.2277307510375977,1.9216055870056152,-5.045018196105957
1782778834027958000,5.4399580078125,-3.0999836921691895,2.2660176753997803,-5.619616508483887
1782778834037968000,5.4499677734375,-4.549635410308838,2.804931879043579,-6.190394878387451
1782778834047977500,5.4599775390625,-5.865734100341797,3.4434432983398438,-5.980762958526611
1782778834057987300,5.4699873046875,-7.213771343231201,3.998823881149292,-5.433078765869141
1782778834067966700,5.479966796875,-8.588216781616211,4.070497989654541,-5.8525800704956055
1782778834078085400,5.49008544921875,-9.674530982971191,3.9265940189361572,-6.114964962005615
1782778834087955700,5.499955810546875,-10.360767364501953,3.581131935119629,-6.1675519943237305
1782778834097965300,5.50996533203125,-11.052695274353027,3.3921077251434326,-6.723919868469238
1782778834107975200,5.51997509765625,-11.841615676879883,3.1243996620178223,-6.419065952301025
1782778834117984800,5.52998486328125,-12.08175277709961,2.810903787612915,-6.086585998535156
1782778834127964200,5.539964111328125,-11.5896577835083,2.2879934310913086,-6.464286804199219
1782778834137974000,5.54997412109375,-10.674002647399902,1.8357160091400146,-6.870401859283447
1782778834147983600,5.559983642578125,-10.015949249267578,1.8053793907165527,-6.607612609863281
1782778834157963000,5.569962890625,-9.379475593566895,1.9313639402389526,-5.993349075317383
1782778834167913000,5.579912841796875,-8.89501667022705,2.06390118598938,-5.334681510925293
1782778834179306800,5.591306640625,-8.997547149658203,2.128946542739868,-4.927681922912598
1782778834198111000,5.610111083984375,-9.02976131439209,2.176149368286133,-4.666511058807373
1782778834208042200,5.620042236328125,-9.313311576843262,2.263932943344116,-4.424246788024902
1782778834217978000,5.62997802734375,-9.765254974365234,2.356241226196289,-4.200750827789307
1782778834227970300,5.63997021484375,-9.950845718383789,2.4562361240386963,-4.127758502960205
1782778834237920300,5.649920166015625,-10.185306549072266,2.2622838020324707,-4.167454242706299
1782778834248050700,5.66005078125,-10.34848403930664,1.9527915716171265,-4.506919860839844
1782778834257969200,5.66996923828125,-10.154877662658691,1.9342039823532104,-4.611429691314697
1782778834267978800,5.679978759765625,-9.572225570678711,2.034323215484619,-4.195889472961426
1782778834278049500,5.690049560546875,-8.7167329788208,2.2328670024871826,-3.213817596435547
1782778834287967700,5.6999677734375,-7.081750392913818,2.2333083152770996,-2.745047092437744
1782778834297977300,5.709977294921875,-5.372492790222168,1.9249842166900635,-2.9318106174468994
1782778834307987200,5.7199873046875,-3.941254138946533,1.3857927322387695,-3.0367283821105957
1782778834317966600,5.729966552734375,-2.815117359161377,1.0710188150405884,-2.728104591369629
1782778834327976400,5.7399765625,-0.7608976364135742,0.8200703859329224,-1.9196407794952393
1782778834337986000,5.749986083984375,1.1294050216674805,0.615450382232666,-1.144300937652588
1782778834347965400,5.75996533203125,4.1027679443359375,0.9270209074020386,0.1734304428100586
1782778834357975300,5.769975341796875,8.70576000213623,1.1109545230865479,0.3647270202636719
1782778834367985000,5.77998486328125,14.943002700805664,1.0961930751800537,-0.9022784233093262
1782778834377964000,5.789964111328125,21.14209747314453,0.9349145889282227,-2.7854905128479004
1782778834387974000,5.799973876953125,21.44043731689453,1.5020382404327393,-3.697608232498169
1782778834397983500,5.8099833984375,16.263723373413086,2.5743632316589355,-2.3250937461853027
1782778834407963000,5.819962890625,11.398445129394531,5.064816951751709,-1.50235915184021
1782778834417972700,5.82997265625,9.778959274291992,7.338812351226807,-1.281806468963623
1782778834437902000,5.849902099609375,16.08571434020996,9.431144714355469,0.37023115158081055
1782778834448032500,5.860032470703125,19.157005310058594,10.09703254699707,0.21206307411193848
1782778834457981200,5.869981201171875,20.33404541015625,10.248984336853027,1.0199358463287354
1782778834467960300,5.879960205078125,18.73296546936035,10.060847282409668,2.966362237930298
1782778834477970200,5.88997021484375,16.443798065185547,9.461202621459961,4.886660099029541
1782778834487980000,5.89997998046875,16.084293365478516,8.656135559082031,6.799302577972412
1782778834497959200,5.909959228515625,18.53192138671875,7.225215911865234,6.765010833740234
1782778834507969000,5.919968994140625,22.17412567138672,5.381906986236572,4.185541152954102
1782778834517978600,5.929978515625,24.369998931884766,4.109618186950684,0.8670029640197754
1782778834527958000,5.9399580078125,22.83795928955078,3.7734909057617188,-1.2492990493774414
1782778834537967900,5.9499677734375,17.514039993286133,4.096050262451172,-1.9835546016693115
1782778834547977500,5.9599775390625,10.903904914855957,4.6459784507751465,-1.529423475265503
1782778834557987300,5.9699873046875,4.932279586791992,4.67580509185791,-1.544593095779419
1782778834567966700,5.979966796875,-0.24763870239257812,4.530082702636719,-1.4273817539215088
1782778834577976300,5.989976318359375,-3.8571133613586426,3.9874892234802246,-1.9547045230865479
1782778834587986200,5.999986083984375,-5.518572807312012,2.8703439235687256,-3.411390781402588
1782778834597965300,6.00996533203125,-5.2638444900512695,1.8425925970077515,-5.031005859375
1782778834607975000,6.019974853515625,-3.610586166381836,0.8029034733772278,-6.441225528717041
1782778834617984800,6.02998486328125,-1.5378837585449219,0.09651529788970947,-7.78416109085083
1782778834627964200,6.039964111328125,-1.206434726715088,0.1818966269493103,-8.055127143859863
1782778834637973800,6.049973876953125,-2.920548439025879,0.6409800052642822,-7.353703498840332
1782778834647983600,6.059983642578125,-5.5268402099609375,0.8900162577629089,-7.074514389038086
1782778834657963000,6.069962890625,-7.991330146789551,1.0428653955459595,-7.169304847717285
1782778834667972600,6.07997265625,-10.421361923217773,1.3936481475830078,-7.066555023193359
1782778834677982500,6.089982421875,-12.750314712524414,1.6969413757324219,-5.999914169311523
1782778834687961900,6.0999619140625,-14.6412935256958,1.8901281356811523,-6.722325325012207
1782778834697971500,6.109971435546875,-16.24415397644043,1.8835365772247314,-7.172408103942871
1782778834707981000,6.11998095703125,-16.70868682861328,1.7727268934249878,-6.767724990844727
1782778834717960400,6.12996044921875,-16.596332550048828,1.8126585483551025,-6.822708606719971
1782778834727910700,6.13991064453125,-15.885494232177734,1.352628469467163,-6.94871711730957
1782778834738750200,6.150750244140625,-13.945000648498535,1.152060627937317,-7.0330915451049805
1782778834758030000,6.170030029296875,-11.442062377929688,0.7853689193725586,-6.663313865661621
1782778834767978800,6.179978759765625,-10.669001579284668,0.8252637386322021,-6.41378116607666
1782778834777958000,6.1899580078125,-10.436697959899902,0.9297566413879395,-5.572237014770508
1782778834787967700,6.1999677734375,-10.576600074768066,0.9600039720535278,-4.764248847961426
1782778834798130200,6.210130126953125,-10.821257591247559,0.7413417100906372,-4.5742082595825195
1782778834808096800,6.2200966796875,-10.572835922241211,0.6111941337585449,-4.634256362915039
1782778834817966600,6.229966552734375,-10.145818710327148,0.48594552278518677,-4.4568257331848145
1782778834827976400,6.2399765625,-9.599944114685059,0.4104483723640442,-4.147922515869141
1782778834838048500,6.250048583984375,-8.882043838500977,0.3773213326931,-4.158633708953857
1782778834848056800,6.260056884765625,-8.189813613891602,0.2397075891494751,-4.124923229217529
1782778834857915600,6.26991552734375,-7.84058952331543,0.18135792016983032,-3.8482024669647217
1782778834868046000,6.280046142578125,-7.89642858505249,0.3216975927352905,-3.252213478088379
1782778834877964000,6.289964111328125,-8.191611289978027,0.028406918048858643,-3.1439528465270996
1782778834887563300,6.299563232421875,-8.743841171264648,-0.09082639217376709,-3.297039270401001
1782778834897983500,6.3099833984375,-9.056657791137695,-0.18904483318328857,-3.4717555046081543
1782778834907963000,6.319962890625,-8.286169052124023,-0.3316030502319336,-3.7568886280059814
1782778834917972700,6.32997265625,-6.668512344360352,-0.27149128913879395,-4.001115798950195
1782778834927982300,6.339982421875,-4.652053356170654,0.21376186609268188,-3.9186792373657227
1782778834937961700,6.349961669921875,-2.2680892944335938,0.8215261697769165,-3.7960762977600098
1782778834947971600,6.3599716796875,0.6194009780883789,1.1414601802825928,-4.563694477081299
1782778834957981200,6.369981201171875,3.8184614181518555,1.3802945613861084,-6.843741416931152
1782778834967960300,6.379960205078125,6.338212013244629,1.576556921005249,-8.01858139038086
1782778834977970200,6.38997021484375,8.904172897338867,2.1725337505340576,-8.186956405639648
1782778834997959200,6.409959228515625,11.859025001525879,4.3492841720581055,-3.230400800704956
1782778835007969000,6.419968994140625,13.80388069152832,4.785654067993164,-0.7341680526733398
1782778835017978600,6.429978515625,17.095754623413086,4.890871047973633,1.7392127513885498
1782778835027958000,6.4399580078125,21.1934757232666,4.517865180969238,3.3177006244659424
1782778835037968000,6.4499677734375,26.21633529663086,4.644097328186035,3.60252046585083
1782778835047917800,6.459917724609375,30.23943328857422,4.46677827835083,2.921379804611206
1782778835058694400,6.4706943359375,32.11355972290039,4.366039752960205,2.1919913291931152
1782778835077916400,6.48991650390625,26.870742797851562,4.572548866271973,3.1471285820007324
1782778835088047000,6.500047119140625,23.293643951416016,4.858254909515381,3.7793540954589844
1782778835097965300,6.50996533203125,21.36161994934082,4.997483253479004,2.7285680770874023
1782778835107975200,6.51997509765625,20.10634994506836,5.196356296539307,0.6670212745666504
1782778835117984800,6.52998486328125,17.543542861938477,5.811040878295898,-0.822066068649292
1782778835127964200,6.539964111328125,13.4307279586792,6.8624491691589355,-1.360473871231079
1782778835137974000,6.54997412109375,8.774626731872559,7.867868423461914,-1.5321171283721924
1782778835147983600,6.559983642578125,4.141843795776367,8.484583854675293,-0.9825079441070557
1782778835157903000,6.569903076171875,0.2740478515625,8.021045684814453,-0.6753015518188477
1782778835168033800,6.58003369140625,-1.4915037155151367,6.569684028625488,-1.303189754486084
1782778835177982500,6.589982421875,-0.8487987518310547,4.647796154022217,-1.756824016571045
1782778835187961600,6.599961669921875,0.46214866638183594,2.951148509979248,-2.4706759452819824
1782778835197971500,6.609971435546875,1.2323036193847656,1.564202070236206,-3.485311508178711
1782778835207981000,6.61998095703125,1.0327930450439453,0.6419453620910645,-4.207724094390869
1782778835217960400,6.62996044921875,-0.4033384323120117,0.09414154291152954,-4.250832557678223
1782778835227970300,6.63997021484375,-1.8041644096374512,-0.3550604581832886,-4.879317760467529
1782778835237980000,6.64997998046875,-2.672016143798828,-0.15170609951019287,-4.829311847686768
1782778835247959300,6.659959228515625,-3.4474587440490723,0.30152302980422974,-4.899620056152344
1782778835257969200,6.66996923828125,-4.725485801696777,0.7097468972206116,-5.456618785858154
1782778835267978800,6.679978759765625,-6.354246139526367,1.0855555534362793,-5.893548965454102
1782778835277958000,6.6899580078125,-7.772893905639648,1.4064568281173706,-6.758726119995117
1782778835287967700,6.6999677734375,-9.25290584564209,1.5448119640350342,-6.100624084472656
1782778835297977300,6.709977294921875,-10.3285551071167,2.1932260990142822,-6.107973575592041
1782778835307987200,6.7199873046875,-11.120867729187012,2.3486099243164062,-6.312527179718018
1782778835317966600,6.729966552734375,-11.465703010559082,2.402411699295044,-6.359273433685303
1782778835327976400,6.7399765625,-11.450430870056152,2.2114741802215576,-6.5156474113464355
1782778835337986000,6.749986083984375,-11.580497741699219,2.0487656593322754,-6.69843053817749
1782778835347965400,6.75996533203125,-11.410537719726562,1.8821288347244263,-6.628893852233887
1782778835357975000,6.76997509765625,-10.676605224609375,1.7935006618499756,-6.381723403930664
1782778835367985000,6.77998486328125,-9.909504890441895,1.7811903953552246,-5.8507585525512695
1782778835378022400,6.7900224609375,-9.35346508026123,1.6992123126983643,-5.511460781097412
1782778835387973600,6.7999736328125,-8.821271896362305,1.46980881690979,-5.413912773132324
1782778835397983500,6.8099833984375,-8.261066436767578,1.1689177751541138,-5.557084083557129
1782778835407675400,6.81967529296875,-7.774515151977539,0.9294303059577942,-5.670816421508789
1782778835417972500,6.829972412109375,-7.342385292053223,0.8224220275878906,-5.558868408203125
1782778835427982300,6.839982421875,-6.940518379211426,0.989115834236145,-5.110668659210205
1782778835437961700,6.849961669921875,-6.521079063415527,1.158473253250122,-4.589714527130127
1782778835447971600,6.8599716796875,-6.46705436706543,1.2264440059661865,-4.571420669555664
1782778835457981200,6.869981201171875,-6.821375846862793,1.3020294904708862,-4.503857135772705
1782778835467960300,6.879960205078125,-6.937065601348877,1.3374770879745483,-4.424112319946289
1782778835477910500,6.88991064453125,-7.081410884857178,1.5366489887237549,-4.053267478942871
1782778835488041000,6.900041015625,-6.431154251098633,1.69270658493042,-3.742262601852417
1782778835497959200,6.909959228515625,-5.426182746887207,1.7498676776885986,-3.7143375873565674
1782778835507969000,6.919968994140625,-5.150372505187988,1.5938692092895508,-3.9361257553100586
1782778835517978600,6.929978515625,-5.084321975708008,1.2418991327285767,-4.184229850769043
1782778835527958000,6.9399580078125,-5.670351505279541,1.0177674293518066,-4.418571472167969
1782778835537967900,6.9499677734375,-6.842474460601807,1.2085933685302734,-3.915540933609009
1782778835547977500,6.9599775390625,-8.770231246948242,1.5106264352798462,-3.1932764053344727
1782778835557987300,6.9699873046875,-10.591363906860352,0.5792965888977051,-3.367117166519165
1782778835567966700,6.979966796875,-9.14643383026123,-0.39016348123550415,-3.944500684738159
1782778835577976300,6.989976318359375,-3.171950340270996,-1.1992366313934326,-4.074560165405273
1782778835587986200,6.999986083984375,2.1033382415771484,-1.4988305568695068,-5.15410041809082
1782778835597965300,7.00996533203125,4.848038673400879,-0.7418057918548584,-5.08466911315918
1782778835607975200,7.01997509765625,8.157923698425293,-0.03983736038208008,-3.8427236080169678
1782778835617984800,7.02998486328125,9.309194564819336,2.7056446075439453,-4.444868564605713
1782778835627964200,7.039964111328125,6.968103408813477,4.883441925048828,-2.242199182510376
