time,seconds_elapsed,z,y,x
1782778901015011000,0.222010986328125,0.06658431142568588,-0.02932153269648552,0.5467243790626526
1782778901025586700,0.232586669921875,0.06658431142568588,-0.02932153269648552,0.5467243790626526
1782778901035580700,0.24258056640625,0.06658431142568588,-0.02932153269648552,0.5467243790626526
1782778901045606100,0.252606201171875,0.06658431142568588,-0.02932153269648552,0.5467243790626526
1782778901055569700,0.262569580078125,-0.08491026610136032,0.06230825558304787,-0.14538592100143433
1782778901065431600,0.272431640625,-0.03176499158143997,-0.0757472887635231,-0.37140607833862305
1782778901075558700,0.28255859375,0.04214970022439957,-0.20097467303276062,-0.6004805564880371
1782778901085585000,0.2925849609375,0.1411098688840866,-0.2431243658065796,-0.7562511563301086
1782778901095578000,0.302578125,0.23396138846874237,-0.21319197118282318,-0.7867944240570068
1782778901105609200,0.312609130859375,0.31031954288482666,-0.2217440903186798,-0.5589417219161987
1782778901115567400,0.3225673828125,0.3604104816913605,-0.2376265823841095,-0.24617868661880493
1782778901125598500,0.332598388671875,0.4337143301963806,-0.26145032048225403,0.0806342139840126
1782778901135586800,0.3425869140625,0.5051855444908142,-0.31459560990333557,0.32986724376678467
1782778901145587000,0.3525869140625,0.5296201705932617,-0.375071257352829,0.48747047781944275
1782778901155575600,0.362575439453125,0.5192354321479797,-0.4190535545349121,0.5693264007568359
1782778901165608200,0.372608154296875,0.4813618063926697,-0.5119050741195679,0.6010913848876953
1782778901175564500,0.382564453125,0.4245513379573822,-0.5406157374382019,0.6236934065818787
1782778901185595400,0.392595458984375,0.24923302233219147,-0.5870414972305298,0.5876523852348328
1782778901195584300,0.402584228515625,0.12522737681865692,-0.6731734871864319,0.5681046843528748
1782778901205584600,0.412584716796875,0.10873401165008545,-0.6304129362106323,0.616973876953125
1782778901215573500,0.422573486328125,0.08552113175392151,-0.6438519954681396,0.7446447610855103
1782778901225603600,0.432603515625,0.004886921960860491,-0.759916365146637,0.9236282706260681
1782778901235562500,0.4425625,-0.09285151958465576,-0.8613200187683105,1.1355985403060913
1782778901245592800,0.4525927734375,-0.18997909128665924,-0.8387179970741272,1.3823879957199097
1782778901255582000,0.46258203125,-0.24862214922904968,-0.6786713004112244,1.6218472719192505
1782778901265582000,0.47258203125,-0.22052235901355743,-0.4349360466003418,1.7996090650558472
1782778901275570700,0.48257080078125,-0.054367005825042725,-0.5363397002220154,1.8081611394882202
1782778901285601500,0.4926015625,0.06169738993048668,-0.9040805697441101,1.6578882932662964
1782778901295590400,0.50259033203125,0.10262536257505417,-1.2669345140457153,1.4477506875991821
1782778901305590300,0.51259033203125,0.11362093687057495,-1.6584991216659546,1.1618657112121582
1782778901315579400,0.522579345703125,0.394008070230484,-1.8270978927612305,0.7935139536857605
1782778901325612800,0.53261279296875,1.1582005023956299,-1.606575608253479,0.5192354321479797
1782778901335568600,0.542568603515625,1.7043139934539795,-1.1887437105178833,0.18936823308467865
1782778901345599000,0.552598876953125,1.8765780925750732,-0.8289441466331482,-0.009773843921720982
1782778901355588000,0.562588134765625,1.7971655130386353,0.04459316283464432,0.10445795953273773
1782778901365589500,0.572589599609375,1.5289957523345947,1.8460347652435303,0.5302310585975647
1782778901375536000,0.5825361328125,1.3952162265777588,3.5808920860290527,0.9743300676345825
1782778901385567200,0.592567138671875,1.6022995710372925,3.9321396350860596,0.979216992855072
1782778901395525000,0.602525146484375,1.8796323537826538,3.536909818649292,0.5913175344467163
1782778901405555700,0.6125556640625,1.9407188892364502,2.7702739238739014,0.12828169763088226
1782778901415544600,0.622544677734375,1.8252654075622559,1.540602207183838,-0.14416420459747314
1782778901425545000,0.632544921875,1.7214182615280151,0.3194825351238251,-0.14782938361167908
1782778901435533600,0.642533447265625,1.5241087675094604,-0.5943718552589417,-0.0024434609804302454
1782778901445564400,0.652564453125,1.2052371501922607,-1.06657075881958,0.19058994948863983
1782778901455522800,0.662522705078125,0.8619308471679688,-1.254717230796814,0.27122417092323303
1782778901465553200,0.67255322265625,0.7874053120613098,-1.3164145946502686,0.12461651116609573
1782778901475542300,0.682542236328125,0.921795666217804,-1.5070046186447144,-0.3500257730484009
1782778901485542100,0.692542236328125,0.9175195693969727,-1.797776460647583,-0.9779952764511108
1782778901495531000,0.702531005859375,0.646906316280365,-1.794722080230713,-1.3799445629119873
1782778901505561900,0.712561767578125,0.29626965522766113,-1.2968668937683105,-1.320690631866455
1782778901515520300,0.722520263671875,0.08735372871160507,-0.6640105247497559,-0.9566149711608887
1782778901525550800,0.73255078125,0.09529497474431992,-0.304210901260376,-0.4508185386657715
1782778901535539700,0.742539794921875,0.12278391420841217,-0.5558874011039734,-0.3805690407752991
1782778901545572400,0.752572265625,0.0354301854968071,-0.7544185519218445,-0.5119050741195679
1782778901555529000,0.762529052734375,-0.18631389737129211,-0.8436049222946167,-0.9077457785606384
1782778901565559300,0.772559326171875,-0.47280970215797424,-0.7128797173500061,-1.50211763381958
1782778901575548400,0.78254833984375,-0.6805039048194885,-0.4282165467739105,-2.1056525707244873
1782778901585550300,0.79255029296875,-0.6395758986473083,-0.11362093687057495,-2.5613579750061035
1782778901595537200,0.802537109375,-0.39156460762023926,0.192422553896904,-2.7757716178894043
1782778901605567700,0.812567626953125,-0.17043140530586243,0.4245513379573822,-2.7598891258239746
1782778901615526400,0.8225263671875,-0.06291911751031876,0.6792821288108826,-2.4159719944000244
1782778901625557000,0.832556884765625,-0.13072516024112701,0.9462302923202515,-1.7660114765167236
1782778901635546000,0.842546142578125,-0.34025195240974426,1.2101240158081055,-0.8387179970741272
1782778901645547000,0.852547119140625,-0.5522221922874451,1.2986994981765747,0.22479841113090515
1782778901655534800,0.862534912109375,-0.6682865619659424,0.9615018963813782,1.0922271013259888
1782778901665565200,0.872565185546875,-0.6933320760726929,0.4086688458919525,1.6169602870941162
1782778901675523800,0.88252392578125,-0.5595525503158569,-0.009773843921720982,1.8014415502548218
1782778901685554400,0.892554443359375,-0.45631635189056396,-0.2822197377681732,1.4104878902435303
1782778901695543600,0.90254345703125,-0.26939156651496887,-0.34697145223617554,0.5839871764183044
1782778901705543400,0.91254345703125,-0.2021963894367218,-0.10995574295520782,-0.37201693654060364
1782778901715532500,0.922532470703125,-0.24190263450145721,0.21563543379306793,-1.2315043210983276
1782778901725563100,0.932563232421875,-0.33719760179519653,0.6420193910598755,-1.7757853269577026
1782778901735521500,0.942521484375,-0.41599923372268677,0.9816604256629944,-1.9162843227386475
1782778901745552100,0.95255224609375,-0.3988949954509735,1.0280861854553223,-1.7470746040344238
1782778901755541000,0.962541015625,-0.29565876722335815,0.79840087890625,-1.368949055671692
1782778901765540900,0.972540771484375,-0.1459967941045761,0.4789183437824249,-0.9101892113685608
1782778901775530200,0.9825302734375,0.03420845419168472,0.2730567753314972,-0.48747047781944275
1782778901785560600,0.992560546875,0.2174680233001709,0.1820378452539444,-0.12339477986097336
1782778901795549700,1.0025498046875,0.31031954288482666,0.15943582355976105,0.1563815027475357
1782778901805550300,1.01255029296875,0.3084869384765625,0.16310101747512817,0.3072652220726013
1782778901815535600,1.02253564453125,0.2620611786842346,0.17470745742321014,0.35185837745666504
1782778901825568500,1.032568603515625,0.21563543379306793,0.20525072515010834,0.3488040566444397
1782778901835527200,1.042527099609375,0.13316862285137177,0.1618792861700058,0.3280346393585205
1782778901845559800,1.052559814453125,-0.024434609338641167,0.1765400618314743,0.31031954288482666
1782778901855546600,1.062546630859375,-0.20586158335208893,0.06291911751031876,0.41172316670417786
1782778901865548800,1.072548828125,-0.4282165467739105,-0.09468411654233932,0.5687155723571777
1782778901875535600,1.08253564453125,-0.5491678714752197,-0.01466076634824276,0.5204572081565857
1782778901885566200,1.092566162109375,-0.5754350423812866,-0.01710422709584236,0.5216789245605469
1782778901895524600,1.102524658203125,-0.608421802520752,-0.0959058403968811,0.646906316280365
1782778901905556500,1.112556396484375,-0.5962044596672058,-0.16859880089759827,0.7397578358650208
1782778901915544600,1.122544677734375,-0.5424483418464661,-0.08674286305904388,0.7684684991836548
1782778901925544400,1.13254443359375,-0.4129449129104614,-0.11972958594560623,0.7275404930114746
1782778901935533600,1.142533447265625,-0.27488934993743896,-0.15393804013729095,0.7751879692077637
1782778901945564200,1.152564208984375,-0.4813618063926697,-0.08307767659425735,0.9279043078422546
1782778901955522800,1.162522705078125,-0.7660250067710876,-0.02076941914856434,0.9902125597000122
1782778901965554200,1.17255419921875,-0.817337691783905,-0.02871066704392433,1.1691961288452148
1782778901975542300,1.182542236328125,-0.4202753007411957,0.25473082065582275,1.4795156717300415
1782778901985543400,1.19254345703125,0.40072759985923767,0.7171558141708374,1.7941112518310547
1782778901995531300,1.20253125,0.6682865619659424,1.0586295127868652,1.9559905529022217
1782778902005563000,1.21256298828125,0.7476990818977356,1.0958921909332275,2.0311269760131836
1782778902015520300,1.222520263671875,0.9944885969161987,1.320690631866455,2.0867156982421875
1782778902025550800,1.23255078125,1.131933331489563,1.7061465978622437,2.1227567195892334
1782778902035540000,1.2425400390625,1.0152580738067627,1.8167132139205933,1.9633208513259888
1782778902045570300,1.2525703125,0.8747590184211731,1.5925257205963135,1.595579981803894
1782778902055529000,1.262529052734375,0.7116580009460449,1.1887437105178833,1.1020009517669678
1782778902065559300,1.272559326171875,0.504574716091156,0.5674937963485718,0.618195652961731
1782778902075548400,1.28254833984375,0.2565633952617645,-0.1472185254096985,0.33108896017074585
1782778902085549000,1.292549072265625,0.04886921867728233,-0.8503243923187256,0.24678955972194672
1782778902095537200,1.302537109375,-0.16310101747512817,-1.4978415966033936,0.22602014243602753
1782778902105568000,1.312568115234375,-0.42760565876960754,-2.1123719215393066,0.07880161702632904
1782778902115526400,1.3225263671875,-0.740368664264679,-2.4801127910614014,-0.21502456068992615
1782778902125557000,1.332556884765625,-0.930347740650177,-2.339613914489746,-0.4245513379573822
1782778902135545900,1.3425458984375,-0.8863654732704163,-1.855197787284851,-0.34086281061172485
1782778902145547000,1.352547119140625,-0.7373143434524536,-1.4190399646759033,-0.06719517707824707
1782778902155534800,1.362534912109375,-0.6053674817085266,-1.1288789510726929,0.18570303916931152
1782778902165565200,1.372565185546875,-0.46731191873550415,-1.0555751323699951,0.2871066629886627
1782778902175523800,1.38252392578125,-0.45142942667007446,-1.3182471990585327,0.1612684279680252
1782778902185554200,1.39255419921875,-0.5742133259773254,-1.758681058883667,-0.1814269721508026
1782778902195543600,1.40254345703125,-0.7312057018280029,-2.277916431427002,-0.6120869517326355
1782778902205545500,1.41254541015625,-0.7666358947753906,-2.5925121307373047,-0.9358455538749695
1782778902215532300,1.4225322265625,-0.7250970602035522,-2.5674667358398438,-1.1313223838806152
1782778902225563600,1.432563720703125,-0.48380526900291443,-2.1594085693359375,-1.2583824396133423
1782778902235521500,1.442521484375,-0.303600013256073,-1.531439185142517,-1.2754865884780884
1782778902245552600,1.452552734375,-0.1612684279680252,-0.9950994849205017,-1.0983357429504395
1782778902255541000,1.462541015625,-0.006719517521560192,-0.5821545720100403,-0.7073819637298584
1782778902265540900,1.472540771484375,0.11056660860776901,-0.26145032048225403,-0.21135938167572021
1782778902275530200,1.4825302734375,0.23457226157188416,0.039095375686883926,0.304210901260376
1782778902285563000,1.49256298828125,0.3433062732219696,0.23884831368923187,0.7544185519218445
1782778902295549400,1.502549560546875,0.44165557622909546,0.251676470041275,1.076344609260559
1782778902305551600,1.512551513671875,0.5351179838180542,0.1258382350206375,1.2651019096374512
1782778902315538400,1.522538330078125,0.43737950921058655,0.25045475363731384,1.2608258724212646
1782778902325569500,1.532569580078125,0.3433062732219696,0.06536258012056351,0.8594874143600464
1782778902335527400,1.54252734375,0.28038713335990906,0.00366519158706069,0.43127086758613586
1782778902345558000,1.55255810546875,0.17837265133857727,0.16554448008537292,0.10262536257505417
1782778902355547100,1.562547119140625,0.18814650177955627,0.4202753007411957,-0.11178833991289139
1782778902365762800,1.5727626953125,0.34513887763023376,0.7440338730812073,-0.413555771112442
1782778902375536400,1.582536376953125,0.35552358627319336,0.8747590184211731,-0.6010913848876953
1782778902385567200,1.592567138671875,0.2675589919090271,0.9914342761039734,-0.7000515460968018
1782778902395524900,1.60252490234375,0.1771509200334549,1.141707181930542,-0.7269296646118164
1782778902405557000,1.612556884765625,0.13927727937698364,1.4208725690841675,-0.7086036801338196
1782778902415544600,1.622544677734375,0.1814269721508026,1.72935950756073,-0.6236934065818787
1782778902425545700,1.632545654296875,0.2528982162475586,1.8955148458480835,-0.4990769028663635
1782778902435533800,1.642533935546875,0.2981022298336029,1.882686734199524,-0.3481931984424591
1782778902445565400,1.6525654296875,0.30054569244384766,1.7696765661239624,-0.17348572611808777
1782778902455522800,1.662522705078125,0.2816088795661926,1.5564846992492676,0.018936822190880775
1782778902465554700,1.6725546875,0.24984388053417206,1.3066407442092896,0.21013765037059784
1782778902475542300,1.682542236328125,0.2021963894367218,1.160033106803894,0.33475416898727417
1782778902485542100,1.692542236328125,0.1514945775270462,1.1197160482406616,0.42149701714515686
1782778902495531000,1.702531005859375,0.1014036312699318,1.122159481048584,0.5112941861152649
1782778902505563600,1.712563720703125,0.04703662544488907,1.1429288387298584,0.5613851547241211
1782778902515639800,1.722639892578125,0.001832595793530345,1.2040153741836548,0.5552765130996704
1782778902525553000,1.732552978515625,-0.014049900695681572,1.3536773920059204,0.5076290369033813
1782778902535539700,1.742539794921875,0.028099801391363144,1.6682729721069336,0.3897320330142975
1782778902545570300,1.7525703125,0.10262536257505417,2.043955087661743,0.2064724564552307
1782778902555241200,1.7622412109375,0.10445795953273773,2.3664920330047607,-0.019547687843441963
1782778902565559000,1.77255908203125,0.04886921867728233,2.5674667358398438,-0.26511552929878235
1782778902575548200,1.782548095703125,0.004886921960860491,2.504547595977783,-0.47280970215797424
1782778902585549300,1.79254931640625,0.012217304669320583,2.13008713722229,-0.6444628238677979
1782778902595537400,1.802537353515625,0.06414084881544113,1.4795156717300415,-0.7299839854240417
1782778902605569000,1.812569091796875,0.152105450630188,0.7538077235221863,-0.6188064813613892
1782778902615526400,1.8225263671875,0.2669481039047241,0.23579397797584534,-0.3182607889175415
1782778902625558000,1.83255810546875,0.42638394236564636,0.18997909128665924,0.19303341209888458
1782778902635545900,1.8425458984375,0.6053674817085266,0.29993483424186707,0.788627028465271
1782778902645547000,1.852547119140625,0.7299839854240417,0.37629300355911255,1.310916781425476
1782778902655534800,1.862534912109375,0.7257078886032104,0.4605923891067505,1.5204435586929321
1782778902675524000,1.882524169921875,0.7776314616203308,1.2009611129760742,0.7165449261665344
1782778902685555700,1.8925556640625,0.8778133392333984,1.4031574726104736,0.09407325088977814
1782778902695543600,1.90254345703125,0.9633345007896423,1.350012183189392,-0.3744603991508484
1782778902705544000,1.9125439453125,1.0140362977981567,0.8985827565193176,-0.6328563690185547
1782778902715532300,1.9225322265625,0.9480628371238708,0.05497787147760391,-0.6255260109901428
1782778902725563600,1.932563720703125,0.8875871896743774,-0.7831292152404785,-0.32559117674827576
1782778902735521500,1.942521484375,0.7733554244041443,-1.5522085428237915,0.056810468435287476
1782778902745552600,1.952552734375,0.5400048494338989,-2.3518311977386475,0.29504790902137756
1782778902755541200,1.962541259765625,0.22602014243602753,-3.073262929916382,0.2730567753314972
1782778902765540900,1.972540771484375,-0.09162978827953339,-3.3628132343292236,0.12339477986097336
1782778902775530000,1.982530029296875,-0.34208452701568604,-3.0378329753875732,0.04092797264456749
1782778902785560300,1.992560302734375,-0.5876523852348328,-1.8539760112762451,-0.04764748737215996
1782778902795549700,2.0025498046875,-0.7195992469787598,-1.0824532508850098,-0.23029619455337524
1782778902805549600,2.012549560546875,-0.8570439219474792,-0.7024950385093689,-0.48869219422340393
1782778902815535600,2.02253564453125,-0.9938777685165405,-0.7617489695549011,-0.7489207983016968
1782778902825570800,2.03257080078125,-1.1062769889831543,-1.1166616678237915,-0.9761626720428467
1782778902835527200,2.042527099609375,-1.197906732559204,-1.7482963800430298,-1.1954632997512817
1782778902845557500,2.0525576171875,-1.2498302459716797,-2.260812282562256,-1.3939944505691528
1782778902855546600,2.062546630859375,-1.189354658126831,-2.3970351219177246,-1.5271631479263306
1782778902865546800,2.072546630859375,-0.988379955291748,-2.191173553466797,-1.6169602870941162
1782778902875535600,2.08253564453125,-0.7226535677909851,-1.7092009782791138,-1.5894713401794434
1782778902885566200,2.092566162109375,-0.45692721009254456,-1.1050552129745483,-1.370781660079956
1782778902895524600,2.102524658203125,-0.19425514340400696,-0.5461135506629944,-0.8961393237113953
1782778902905585000,2.1125849609375,0,-0.1472185254096985,-0.242513507604599
1782778902915544600,2.122544677734375,0.08857546001672745,0.0708603709936142,0.42577308416366577
1782778902925545200,2.132545166015625,0.10018189996480942,0.1569923609495163,1.027475357055664
1782778902935533600,2.142533447265625,0.03726277872920036,-0.00366519158706069,1.3622294664382935
1782778902945564200,2.152564208984375,-0.04153883829712868,-0.2828305959701538,1.368949055671692
1782778902955522800,2.162522705078125,-0.06352998316287994,-0.4398229718208313,1.1301007270812988
1782778902965553200,2.17255322265625,-0.06658431142568588,-0.4605923891067505,0.7678576111793518
1782778902975542300,2.182542236328125,-0.13011430203914642,-0.49296826124191284,0.3995058834552765
1782778902985543000,2.19254296875,-0.2376265823841095,-0.5546656250953674,0.13072516024112701
1782778902995531300,2.20253125,-0.37201693654060364,-0.5797111392021179,-0.04092797264456749
1782778903005561900,2.212561767578125,-0.4789183437824249,-0.5051855444908142,-0.1472185254096985
1782778903015629600,2.222629638671875,-0.494189977645874,-0.42577308416366577,-0.23273965716362
1782778903025553000,2.232552978515625,-0.46303585171699524,-0.32559117674827576,-0.28466320037841797
1782778903035539700,2.242539794921875,-0.4098905920982361,-0.24068090319633484,-0.26939156651496887
1782778903045570600,2.252570556640625,-0.34513887763023376,-0.18570303916931152,-0.1765400618314743
1782778903055528700,2.26252880859375,-0.3017674386501312,-0.08674286305904388,-0.021380282938480377
1782778903065559600,2.2725595703125,-0.2938261926174164,0.018325956538319588,0.152105450630188
1782778903075548700,2.282548583984375,-0.1771509200334549,-0.02687807008624077,0.384845107793808
1782778903085548300,2.29254833984375,-0.10567969083786011,0.036041051149368286,0.5638286471366882
1782778903095537400,2.302537353515625,-0.1514945775270462,-0.001832595793530345,0.7165449261665344
1782778903105567700,2.312567626953125,-0.1966986060142517,0.06169738993048668,0.9230173826217651
1782778903115526400,2.3225263671875,-0.384845107793808,0.4031710624694824,1.1233811378479004
1782778903125556700,2.332556640625,-0.42699480056762695,0.8802568316459656,1.3084733486175537
1782778903135545900,2.3425458984375,-0.19058994948863983,1.0989465713500977,1.3341296911239624
1782778903145545700,2.352545654296875,0.23945917189121246,1.1178834438323975,1.3426817655563354
1782778903155534800,2.362534912109375,0.4905247986316681,1.081842303276062,1.2626584768295288
1782778903165567500,2.3725673828125,0.46853363513946533,0.99876469373703,1.1832460165023804
1782778903175523800,2.38252392578125,0.34636059403419495,1.0500773191452026,1.0671815872192383
1782778903185556500,2.392556396484375,0.2015855312347412,1.2785409688949585,0.959669291973114
1782778903195543600,2.40254345703125,0.018936822190880775,1.4330898523330688,0.8973610401153564
1782778903205544000,2.4125439453125,-0.11301007121801376,1.3897184133529663,0.8717046976089478
1782778903215532300,2.4225322265625,-0.06108652427792549,1.0311405658721924,0.9101892113685608
1782778903225564200,2.432564208984375,0.12034045159816742,0.7947356700897217,0.9004153609275818
1782778903235521500,2.442521484375,0.38728857040405273,0.7202101349830627,0.7440338730812073
1782778903245552600,2.452552734375,0.6988298296928406,0.797789990901947,0.475253164768219
1782778903255541200,2.462541259765625,0.7562511563301086,0.9773843884468079,0.3591887652873993
1782778903265540900,2.472540771484375,0.6511823534965515,1.5143349170684814,0.403781920671463
1782778903275530200,2.4825302734375,0.4349360466003418,2.0170769691467285,0.3023782968521118
1782778903285560600,2.492560546875,0.08735372871160507,2.41719388961792,-0.10995574295520782
1782778903295549400,2.502549560546875,-0.036041051149368286,2.3579399585723877,-0.6420193910598755
1782778903305550000,2.512550048828125,0.2076941877603531,2.5130996704101562,-0.8979719281196594
1782778903315538400,2.522538330078125,0.6243042945861816,2.6175575256347656,-0.9010262489318848
1782778903325569500,2.532569580078125,0.9877691268920898,2.3414463996887207,-0.7342600226402283
1782778903335527700,2.542527587890625,1.1007791757583618,1.7006487846374512,-0.48258355259895325
1782778903345558800,2.552558837890625,0.9352346658706665,0.827111542224884,-0.2076941877603531
1782778903355547100,2.562547119140625,0.7287622094154358,-0.20891591906547546,-0.15577064454555511
1782778903365548000,2.572548095703125,0.6047565937042236,-1.0836749076843262,-0.4355469346046448
1782778903375536000,2.5825361328125,0.3170390725135803,-1.6450600624084473,-0.9236282706260681
1782778903385566500,2.59256640625,-0.17837265133857727,-1.703092336654663,-1.425148606300354
1782778903395525000,2.602525146484375,-0.5943718552589417,-1.3365731239318848,-1.7800613641738892
1782778903405556700,2.612556640625,-0.6982190012931824,-0.846659243106842,-1.9352210760116577
1782778903415544600,2.622544677734375,-0.5962044596672058,-0.34513887763023376,-1.8399261236190796
1782778903425546000,2.6325458984375,-0.4392121136188507,-0.17837265133857727,-1.5986343622207642
1782778903435533600,2.642533447265625,-0.2834414839744568,-0.3243694305419922,-1.338405728340149
1782778903445564200,2.652564208984375,-0.1007927656173706,-0.4764748811721802,-1.1337659358978271
1782778903455522800,2.662522705078125,-0.18631389737129211,-0.9517280459403992,-1.19912850856781
1782778903465555500,2.672555419921875,-0.49296826124191284,-1.380555510520935,-1.4025466442108154
1782778903475542300,2.682542236328125,-0.7947356700897217,-1.4899003505706787,-1.7617353200912476
1782778903485544400,2.69254443359375,-1.0329731702804565,-1.2559388875961304,-2.216219186782837
1782778903495531000,2.702531005859375,-1.197295904159546,-0.8283332586288452,-2.6481008529663086
1782778903505563000,2.71256298828125,-1.281595230102539,-0.42699480056762695,-2.908940315246582
1782778903515520300,2.722520263671875,-1.2040153741836548,-0.2828305959701538,-2.858849287033081
1782778903525550800,2.73255078125,-0.9340129494667053,-0.25045475363731384,-2.439795732498169
1782778903535539700,2.742539794921875,-0.5400048494338989,-0.1765400618314743,-1.7250834703445435
1782778903545539300,2.752539306640625,-0.1466076523065567,-0.14416420459747314,-0.8594874143600464
1782778903555579600,2.76257958984375,0.17470745742321014,-0.07513642311096191,0.006108652334660292
1782778903565620500,2.772620361328125,0.4715879559516907,0.021380282938480377,0.7739662528038025
1782778903575548400,2.78254833984375,0.6829473376274109,0.01710422709584236,1.2834278345108032
1782778903585550300,2.79255029296875,0.7257078886032104,-0.09224065393209457,1.5460999011993408
1782778903595496700,2.80249658203125,0.5656611919403076,-0.05864306539297104,1.6853772401809692
1782778903605629000,2.81262890625,0.22602014243602753,0.04214970022439957,1.6493362188339233
1782778903615526400,2.8225263671875,-0.2076941877603531,0.13805554807186127,1.4282029867172241
1782778903625559000,2.83255908203125,-0.6261368989944458,0.22479841113090515,1.0696250200271606
1782778903635546000,2.842546142578125,-1.037249207496643,0.34758231043815613,0.5265658497810364
1782778903645546000,2.8525458984375,-1.176526427268982,0.294437050819397,0.18814650177955627
1782778903655494100,2.862494140625,-1.2113457918167114,0.1765400618314743,-0.12950342893600464
1782778903665626600,2.872626708984375,-1.1447614431381226,0.02015855349600315,-0.42088615894317627
1782778903675524000,2.882524169921875,-1.0207557678222656,-0.1612684279680252,-0.6682865619659424
1782778903685554700,2.8925546875,-0.8600982427597046,-0.384845107793808,-0.8533787727355957
1782778903695543600,2.90254345703125,-0.6719517707824707,-0.5668829679489136,-0.9633345007896423
1782778903705545500,2.91254541015625,-0.5436700582504272,-0.5681046843528748,-1.086118459701538
1782778903715532500,2.922532470703125,-0.38728857040405273,-0.5345070958137512,-1.151481032371521
1782778903725565000,2.93256494140625,-0.21441370248794556,-0.47219884395599365,-1.1246029138565063
1782778903736623400,2.943623291015625,-0.07024950534105301,-0.34574973583221436,-1.015868902206421
1782778903755500300,2.962500244140625,0.08124507963657379,0.12278391420841217,-0.25961771607398987
1782778903765632500,2.972632568359375,0.10873401165008545,0.4306600093841553,0.19853121042251587
1782778903775530200,2.9825302734375,0.2028072625398636,0.6065891981124878,0.656680166721344
1782778903785529900,2.99252978515625,0.41233405470848083,0.8607091307640076,1.1410962343215942
1782778903795610600,3.002610595703125,0.6646214127540588,1.169806957244873,1.5717562437057495
1782778903805549600,3.012549560546875,0.8943067193031311,1.4422528743743896,1.853365182876587
1782778903815535600,3.02253564453125,1.0739010572433472,1.6578882932662964,1.958433985710144
1782778903825507800,3.0325078125,1.2113457918167114,1.8099937438964844,1.9449949264526367
1782778903835618800,3.042618896484375,1.2699888944625854,1.8839083909988403,1.8185458183288574
1782778903845559800,3.052559814453125,1.2247848510742188,1.7043139934539795,1.5173892974853516
1782778903855506400,3.06250634765625,1.1429288387298584,1.1215485334396362,1.1044443845748901
1782778903865638400,3.072638427734375,1.056796908378601,0.6762278079986572,0.7098253965377808
1782778903875536000,3.082535888671875,0.8961393237113953,0.5925393104553223,0.47219884395599365
1782778903885567000,3.09256689453125,0.7446447610855103,0.6994407176971436,0.4178318381309509
1782778903895524600,3.102524658203125,0.8558222055435181,1.1105530261993408,0.4758640229701996
1782778903905555500,3.112555419921875,1.186300277709961,1.46424400806427,0.35674530267715454
1782778903915544600,3.122544677734375,1.4086552858352661,1.3347405195236206,-0.06169738993048668
1782778903925545500,3.13254541015625,1.3866641521453857,0.9743300676345825,-0.5845980644226074
1782778903935533600,3.142533447265625,1.3451253175735474,0.5723807215690613,-1.0030407905578613
1782778903955522800,3.162522705078125,1.0977247953414917,-0.10995574295520782,-1.2034045457839966
1782778903965554000,3.172553955078125,0.7770205736160278,-0.2791654169559479,-1.140485405921936
1782778903975542300,3.182542236328125,0.4282165467739105,-0.3494149148464203,-1.1362093687057495
1782778903985543000,3.19254296875,0.1869247704744339,-0.43188172578811646,-1.197295904159546
1782778903995531000,3.202531005859375,-0.003054326167330146,-0.6719517707824707,-1.2864822149276733
1782778904005561600,3.2125615234375,-0.251676470041275,-1.3164145946502686,-1.5057828426361084
1782778904015520300,3.222520263671875,-0.5864306092262268,-1.9828685522079468,-1.8680258989334106
1782778904025550800,3.23255078125,-0.9376781582832336,-2.266309976577759,-2.266921043395996
1782778904035540000,3.2425400390625,-1.171028733253479,-2.121535062789917,-2.593733787536621
1782778904045571300,3.2525712890625,-1.207069754600525,-1.6682729721069336,-2.718961238861084
1782778904055529000,3.262529052734375,-1.045190453529358,-0.7385360598564148,-2.2003366947174072
1782778904065560600,3.272560546875,-0.9914342761039734,-0.44654250144958496,-1.511891484260559
1782778904075548200,3.282548095703125,-1.0005972385406494,-0.5436700582504272,-0.7611380815505981
1782778904085548500,3.292548583984375,-1.0775662660598755,-0.8790351152420044,-0.1765400618314743
1782778904095537400,3.302537353515625,-1.218676209449768,-1.3292428255081177,0.1563815027475357
1782778904105568000,3.312568115234375,-1.4013248682022095,-1.76723313331604,0.31520646810531616
1782778904115526400,3.3225263671875,-1.5931365489959717,-2.1563544273376465,0.39217549562454224
1782778904125557000,3.332556884765625,-1.778228759765625,-2.4239132404327393,0.4489859640598297
1782778904135545900,3.3425458984375,-1.927890658378601,-2.378098487854004,0.47769662737846375
1782778904145545700,3.352545654296875,-1.9834794998168945,-1.9804251194000244,0.45142942667007446
1782778904155534800,3.362534912109375,-1.9327776432037354,-1.3640620708465576,0.3995058834552765
1782778904165565400,3.3725654296875,-1.874745488166809,-0.7922922372817993,0.3433062732219696
1782778904175524000,3.382524169921875,-1.8411478996276855,-0.4202753007411957,0.3286454975605011
1782778904185554400,3.392554443359375,-1.6389514207839966,-0.18448130786418915,0.3842342495918274
1782778904195543600,3.40254345703125,-1.2675453424453735,-0.05192354694008827,0.4758640229701996
1782778904205543700,3.412543701171875,-0.8662069439888,-0.06230825558304787,0.5705481171607971
1782778904215532500,3.422532470703125,-0.5546656250953674,-0.15454891324043274,0.645684540271759
1782778904225565200,3.432565185546875,-0.3579670190811157,-0.21868975460529327,0.6633996367454529
1782778904235521500,3.442521484375,-0.24678955972194672,-0.19608774781227112,0.6163630485534668
1782778904245554200,3.45255419921875,-0.17776179313659668,-0.07513642311096191,0.4996877610683441
1782778904255541000,3.462541015625,-0.11423180252313614,0.09224065393209457,0.32681289315223694
1782778904265540900,3.472540771484375,-0.05192354694008827,0.2431243658065796,0.14844025671482086
1782778904275530200,3.4825302734375,-0.009162978269159794,0.3677408695220947,0.021380282938480377
1782778904285561900,3.492561767578125,0.01710422709584236,0.4538728892803192,-0.01038470957428217
1782778904295549400,3.502549560546875,0.05009094998240471,0.5198463201522827,0.05253441259264946
1782778904305550800,3.51255078125,0.07391469180583954,0.5222898125648499,0.18020524084568024
1782778904315538400,3.522538330078125,0.10873401165008545,0.5002986192703247,0.33475416898727417
1782778904325570600,3.532570556640625,0.13805554807186127,0.4807509481906891,0.49357911944389343
1782778904335527400,3.54252734375,0.1563815027475357,0.4697553813457489,0.6407976150512695
1782778904345558000,3.55255810546875,0.21930062770843506,0.4948008358478546,0.7666358947753906
1782778904355547100,3.562547119140625,0.32681289315223694,0.5699372887611389,0.8723155856132507
1782778904365547000,3.572547119140625,0.42210787534713745,0.627358615398407,0.9669997096061707
1782778904375536000,3.5825361328125,0.46364670991897583,0.6713408827781677,1.0280861854553223
1782778904385566700,3.592566650390625,0.4495968222618103,0.6969972252845764,1.0286970138549805
1782778904395634200,3.60263427734375,0.42760565876960754,0.7171558141708374,1.0030407905578613
1782778904405525000,3.61252490234375,0.44776421785354614,0.7733554244041443,0.9865473508834839
1782778904415687700,3.622687744140625,0.5192354321479797,0.8723155856132507,0.9633345007896423
1782778904425575200,3.6325751953125,0.5778785347938538,0.950506329536438,0.9108000993728638
1782778904435533800,3.642533935546875,0.5833762884140015,0.9621127843856812,0.769079327583313
1782778904445564200,3.652564208984375,0.49296826124191284,0.9144652485847473,0.4801400899887085
1782778904455522800,3.662522705078125,0.2938261926174164,0.7806857824325562,0.08002334833145142
1782778904465553200,3.67255322265625,0.15271630883216858,0.8014551997184753,-0.13439035415649414
1782778904475542300,3.682542236328125,0.033597588539123535,1.4654656648635864,-0.24434609711170197
1782778904485543400,3.69254345703125,0.10018189996480942,1.5729780197143555,-0.19425514340400696
1782778904495531300,3.70253125,0.5442809462547302,1.4984524250030518,0.14782938361167908
1782778904515520300,3.722520263671875,2.1618521213531494,1.1148290634155273,1.3249666690826416
1782778904525552000,3.73255224609375,2.648711681365967,0.8961393237113953,1.660942554473877
1782778904535539700,3.742539794921875,2.5466971397399902,0.7550294399261475,1.72935950756073
1782778904545570600,3.752570556640625,2.023796558380127,0.7147123217582703,1.605353832244873
1782778904555528700,3.76252880859375,1.4135421514511108,0.5143485069274902,1.1740829944610596
1782778904565559600,3.7725595703125,0.9028588533401489,-0.0024434609804302454,0.40744712948799133
1782778904575548400,3.78254833984375,0.494189977645874,-0.4660901725292206,-0.41111230850219727
1782778904585548300,3.79254833984375,0.12889257073402405,-0.8393288254737854,-1.1197160482406616
1782778904595537400,3.802537353515625,-0.18325957655906677,-1.1172724962234497,-1.6694947481155396
1782778904605537000,3.812537109375,-0.44104471802711487,-1.368949055671692,-2.0115792751312256
1782778904615297000,3.822297119140625,-0.6725626587867737,-1.3249666690826416,-1.9168951511383057
1782778904625495600,3.83249560546875,-0.8576548099517822,-0.8674286603927612,-1.4782938957214355
1782778904635607000,3.84260693359375,-0.9053022861480713,-0.3585779070854187,-0.9932668805122375
1782778904645546000,3.8525458984375,-0.940121591091156,0.018325956538319588,-0.5638286471366882
1782778904655534800,3.862534912109375,-1.0690141916275024,0.09896016865968704,-0.22052235901355743
1782778904665565700,3.872565673828125,-1.2333369255065918,-0.22296582162380219,-0.03481931984424591
1782778904675524000,3.882524169921875,-1.4172073602676392,-0.8643743395805359,-0.04764748737215996
1782778904685559000,3.89255908203125,-1.6120734214782715,-1.5711454153060913,-0.27122417092323303
1782778904695543600,3.90254345703125,-1.7519614696502686,-2.1759018898010254,-0.6481280326843262
1782778904705545500,3.91254541015625,-1.7525724172592163,-2.660928964614868,-1.1068878173828125
1782778904715532500,3.922532470703125,-1.5827518701553345,-2.9938504695892334,-1.5522085428237915
1782778904725563000,3.93256298828125,-1.4404202699661255,-3.263853073120117,-1.881464958190918
1782778904735521500,3.942521484375,-1.3475687503814697,-3.2821788787841797,-1.8509217500686646
1782778904745553400,3.952553466796875,-1.243721604347229,-3.0714304447174072,-1.4886785745620728
1782778904755541200,3.962541259765625,-1.1429288387298584,-2.6566529273986816,-0.921795666217804
1782778904765542100,3.972542236328125,-1.0574077367782593,-2.045787811279297,-0.28038713335990906
1782778904775530200,3.9825302734375,-0.979216992855072,-1.3182471990585327,0.2565633952617645
1782778904785537500,3.99253759765625,-0.8827002644538879,-0.5455026626586914,0.5937610268592834
1782778904795549700,4.0025498046875,-0.7861835956573486,0.09957103431224823,0.7935139536857605
1782778904805518800,4.012518798828125,-0.7098253965377808,0.47342056035995483,0.9395107626914978
1782778904815871500,4.02287158203125,-0.7073819637298584,0.4789183437824249,1.0806206464767456
1782778904825686800,4.032686767578125,-0.7617489695549011,0.1765400618314743,1.160033106803894
1782778904835527200,4.042527099609375,-0.8014551997184753,-0.25961771607398987,1.1239920854568481
1782778904845559600,4.0525595703125,-0.7727445363998413,-0.6114761233329773,0.9529497623443604
1782778904855546600,4.062546630859375,-0.6505714654922485,-0.7574729323387146,0.655458390712738
1782778904865546800,4.072546630859375,-0.4715879559516907,-0.6511823534965515,0.3170390725135803
1782778904875535600,4.08253564453125,-0.29138273000717163,-0.375071257352829,0.005497787147760391
1782778904885566200,4.092566162109375,-0.16004669666290283,0.01038470957428217,-0.24923302233219147
1782778904895524600,4.102524658203125,-0.08429940044879913,0.46547931432724,-0.413555771112442
1782778904905581800,4.112581787109375,-0.018936822190880775,1.0195341110229492,-0.4746423065662384
1782778904915544600,4.122544677734375,0.014049900695681572,1.156978726387024,-0.37568211555480957
1782778904925544700,4.132544677734375,0.05375614017248154,1.1068878173828125,-0.1820378452539444
1782778904935533600,4.142533447265625,0.11789698898792267,0.9828822016716003,0.039095375686883926
1782778904945564200,4.152564208984375,0.2070833146572113,0.8527678847312927,0.2382374405860901
1782778904955522800,4.162522705078125,0.26511552929878235,0.6866125464439392,0.3988949954509735
1782778904965554000,4.172553955078125,0.2877175211906433,0.4893030524253845,0.5448917746543884
1782778904975542300,4.182542236328125,0.28649580478668213,0.34147366881370544,0.6957755088806152
1782778904985543400,4.19254345703125,0.2822197377681732,0.2590068578720093,0.8429940342903137
1782778904995531300,4.20253125,0.28099802136421204,0.2028072625398636,0.9871582388877869
1782778905005561600,4.2125615234375,0.2638937830924988,0.18997909128665924,1.1704177856445312
1782778905015520300,4.222520263671875,0.1814269721508026,0.23945917189121246,1.3640620708465576
1782778905025552600,4.232552734375,0.031154127791523933,0.35674530267715454,1.4776830673217773
1782778905035539700,4.242539794921875,-0.0861319974064827,0.5522221922874451,1.4654656648635864
1782778905045570600,4.252570556640625,-0.1313360333442688,0.7745771408081055,1.3426817655563354
1782778905055529000,4.262529052734375,-0.14844025671482086,0.9181304574012756,1.1343767642974854
1782778905065563400,4.2725634765625,-0.13805554807186127,0.988990843296051,0.8619308471679688
1782778905075382800,4.2823828125,-0.09773843735456467,1.0329731702804565,0.5510004758834839
1782778905085550300,4.29255029296875,-0.07452555745840073,1.0708467960357666,0.19792033731937408
1782778905095537400,4.302537353515625,-0.1264491081237793,1.0592403411865234,-0.20036379992961884
1782778905105568000,4.312568115234375,-0.22479841113090515,1.0445796251296997,-0.6053674817085266
1782778905115526400,4.3225263671875,-0.2571742534637451,1.0555751323699951,-0.9126327037811279
1782778905125558000,4.33255810546875,-0.22357667982578278,1.1374311447143555,-0.9608910083770752
1782778905135545900,4.3425458984375,-0.1313360333442688,1.6267341375350952,-0.6194173693656921
1782778905155535000,4.36253515625,0.9437867999076843,2.4630086421966553,0.5338962078094482
1782778905165566200,4.372566162109375,1.3634512424468994,2.266921043395996,0.5400048494338989
1782778905175524000,4.382524169921875,1.2302825450897217,1.7788395881652832,0.060475658625364304
1782778905185554400,4.392554443359375,0.9492846131324768,1.3408491611480713,-0.5797111392021179
1782778905195543600,4.40254345703125,0.7342600226402283,1.018923282623291,-1.1508700847625732
1782778905205543400,4.41254345703125,0.33047810196876526,0.6249151229858398,-1.528384804725647
1782778905215532300,4.4225322265625,-0.31642818450927734,0.2223549485206604,-1.7629570960998535
1782778905225564200,4.432564208984375,-0.7617489695549011,-0.09529497474431992,-1.9113973379135132
1782778905235521500,4.442521484375,-0.7079927921295166,-0.15760323405265808,-1.8851301670074463
1782778905245553200,4.45255322265625,-0.36590829491615295,-0.00855211354792118,-1.6658295392990112
1782778905255541000,4.462541015625,-0.10873401165008545,0.04459316283464432,-1.4495831727981567
1782778905265540900,4.472540771484375,-0.10018189996480942,0.03726277872920036,-1.3628404140472412
1782778905275530000,4.482530029296875,-0.2278527319431305,0.10751228034496307,-1.2907582521438599
1782778905285560600,4.492560546875,-0.3170390725135803,0.1966986060142517,-1.1362093687057495
1782778905295549400,4.502549560546875,-0.342695415019989,0.12950342893600464,-0.8924741148948669
1782778905305549600,4.512549560546875,-0.4453207552433014,-0.20891591906547546,-0.6255260109901428
1782778905315538400,4.522538330078125,-0.6640105247497559,-0.7214318513870239,-0.4715879559516907
1782778905325573400,4.532573486328125,-1.0922271013259888,-1.2528846263885498,-0.6640105247497559
1782778905336669000,4.5436689453125,-1.3213015794754028,-1.2565498352050781,-0.9523389339447021
1782778905355547100,4.562547119140625,-1.4465289115905762,-0.6621779203414917,-1.0586295127868652
1782778905365548300,4.57254833984375,-1.338405728340149,-0.3982841372489929,-0.788016140460968
1782778905375536000,4.5825361328125,-1.187522053718567,-0.24007004499435425,-0.38728857040405273
1782778905385566700,4.592566650390625,-1.0231993198394775,-0.10751228034496307,0.12095131725072861
1782778905395484700,4.602484619140625,-0.8301658630371094,0.04214970022439957,0.6615670323371887
1782778905405619000,4.612618896484375,-0.5998696684837341,0.15454891324043274,1.1264355182647705
1782778905415544600,4.622544677734375,-0.3677408695220947,0.28649580478668213,1.4819591045379639
1782778905425513700,4.632513671875,-0.24495697021484375,0.3744603991508484,1.7043139934539795
1782778905435594800,4.6425947265625,-0.24007004499435425,0.37751471996307373,1.8014415502548218
1782778905445564200,4.652564208984375,-0.3127630054950714,0.35063666105270386,1.7800613641738892
1782778905455522800,4.662522705078125,-0.3927863538265228,0.37690386176109314,1.63467538356781
1782778905465553400,4.672553466796875,-0.4392121136188507,0.41661009192466736,1.3939944505691528
1782778905475542300,4.682542236328125,-0.4605923891067505,0.3927863538265228,1.129489779472351
1782778905485542400,4.69254248046875,-0.47280970215797424,0.35246923565864563,0.9034696817398071
1782778905495531300,4.70253125,-0.44226643443107605,0.3127630054950714,0.7141014933586121
1782778905505563600,4.712563720703125,-0.37690386176109314,0.28649580478668213,0.5412266254425049
1782778905515520300,4.722520263671875,-0.29077184200286865,0.29504790902137756,0.3689626157283783
1782778905525550800,4.73255078125,-0.1966986060142517,0.28588494658470154,0.20341812074184418
1782778905535539700,4.742539794921875,-0.09040805697441101,0.24984388053417206,0.08918632566928864
1782778905545570000,4.752570068359375,0.021380282938480377,0.21074850857257843,0.02382374368607998
1782778905555529000,4.762529052734375,0.11545353382825851,0.19425514340400696,-0.018936822190880775
1782778905565528600,4.772528564453125,0.16493362188339233,0.18936823308467865,-0.059864792972803116
1782778905575213300,4.78221337890625,0.18509216606616974,0.19058994948863983,-0.0861319974064827
1782778905585550300,4.79255029296875,0.21013765037059784,0.20586158335208893,-0.06902777403593063
1782778905595537400,4.802537353515625,0.24373523890972137,0.20036379992961884,-0.02382374368607998
1782778905605537000,4.812537109375,0.29016098380088806,0.17592918872833252,0.045204028487205505
1782778905615801000,4.822801025390625,0.384845107793808,0.23151792585849762,0.15760323405265808
1782778905625526000,4.832526123046875,0.5064072608947754,0.2742784917354584,0.3084869384765625
1782778905635607000,4.84260693359375,0.6145304441452026,0.294437050819397,0.5088507533073425
1782778905645546200,4.852546142578125,0.675006091594696,0.3170390725135803,0.7507534027099609
1782778905655535000,4.86253515625,0.6969972252845764,0.30543261766433716,0.9773843884468079
1782778905665566200,4.872566162109375,0.6914994716644287,0.3084869384765625,1.168585181236267
1782778905675524000,4.882524169921875,0.6139195561408997,0.2987131178379059,1.2877039909362793
1782778905685554400,4.892554443359375,0.5057964324951172,0.23151792585849762,1.3066407442092896
1782778905697168400,4.90416845703125,0.35246923565864563,0.09957103431224823,1.0903944969177246
1782778905715306200,4.92230615234375,0.19058994948863983,-0.13072516024112701,0.5668829679489136
1782778905725533200,4.932533203125,0.09346238523721695,-0.4709770977497101,-0.09712757170200348
1782778905735521500,4.942521484375,0.10506882518529892,-0.8723155856132507,-1.026253581047058
1782778905745553200,4.95255322265625,0.31520646810531616,-1.4049900770187378,-2.3273966312408447
1782778905755541000,4.962541015625,0.43188172578811646,-0.5180137157440186,-2.22782564163208
1782778905765542400,4.97254248046875,0.43615779280662537,0.9144652485847473,-1.5369369983673096
1782778905775530200,4.9825302734375,0.4288274049758911,1.6762142181396484,-0.6780604124069214
1782778905795549700,5.0025498046875,0.8521569967269897,1.406822681427002,0.4813618063926697
1782778905805550800,5.01255078125,1.218676209449768,0.8344419002532959,0.645684540271759
1782778905815535600,5.02253564453125,1.38849675655365,0.3634648323059082,0.6163630485534668
1782778905825569500,5.032569580078125,1.3298536539077759,0.0354301854968071,0.4105014503002167
1782778905835527200,5.042527099609375,1.1575896739959717,-0.26939156651496887,0.1258382350206375
1782778905845558500,5.05255859375,0.9871582388877869,-0.4789183437824249,-0.12461651116609573
1782778905857118500,5.064118408203125,0.7849618196487427,-0.7183775305747986,-0.5155702829360962
1782778905875535600,5.08253564453125,0.05925392732024193,-1.1233811378479004,-2.194227933883667
1782778905885566200,5.092566162109375,-0.18387043476104736,-0.9468411207199097,-2.7965409755706787
1782778905895524600,5.102524658203125,-0.19792033731937408,-0.6340781450271606,-2.81181263923645
1782778905905555000,5.112554931640625,-0.14233160018920898,-0.3634648323059082,-2.3652701377868652
1782778905915504000,5.122504150390625,-0.16982053220272064,-0.3494149148464203,-1.8564194440841675
1782778905925636000,5.132635986328125,-0.23273965716362,-0.47280970215797424,-1.4391984939575195
1782778905935533600,5.142533447265625,-0.3121521472930908,-0.6633996367454529,-1.0922271013259888
1782778905945564200,5.152564208984375,-0.46731191873550415,-0.9932668805122375,-0.8387179970741272
1782778905955522800,5.162522705078125,-0.6591235995292664,-1.4172073602676392,-0.7360926270484924
1782778905965553000,5.172552978515625,-0.8326093554496765,-1.7373007535934448,-0.779464066028595
1782778905975542300,5.182542236328125,-0.9248499870300293,-1.8057177066802979,-0.8600982427597046
1782778905985543400,5.19254345703125,-0.9224064946174622,-1.6181820631027222,-0.9260717034339905
1782778905995531000,5.202531005859375,-0.7806857824325562,-1.2015719413757324,-0.9162978529930115
1782778906005561900,5.212561767578125,-0.49724429845809937,-0.7098253965377808,-0.8216137290000916
1782778906015520300,5.222520263671875,-0.19792033731937408,-0.35124751925468445,-0.6420193910598755
1782778906025550800,5.23255078125,0.009773843921720982,-0.12217304855585098,-0.39156460762023926
1782778906035539700,5.242539794921875,0.1466076523065567,0.05864306539297104,-0.1215621829032898
1782778906045570300,5.2525703125,0.26145032048225403,0.18081611394882202,0.1313360333442688
1782778906055528700,5.26252880859375,0.33719760179519653,0.2632829248905182,0.36529740691185
1782778906065562600,5.272562744140625,0.31581732630729675,0.21868975460529327,0.5375614166259766
1782778906075548200,5.282548095703125,0.21563543379306793,0.1459967941045761,0.6395758986473083
1782778906085658000,5.292658203125,0.09896016865968704,0.06780604273080826,0.6310238242149353
1782778906095537400,5.302537353515625,0.018936822190880775,0.010995574295520782,0.4990769028663635
1782778906105569800,5.31256982421875,-0.009773843921720982,-0.0012217304902151227,0.28099802136421204
1782778906115544000,5.3225439453125,-0.007941247895359993,0.03298672288656235,0.02687807008624077
1782778906125559000,5.33255908203125,-0.0006108652451075613,0.07147123664617538,-0.21807889640331268
1782778906135319300,5.3423193359375,0.014049900695681572,0.11728613078594208,-0.394008070230484
1782778906145548000,5.352548095703125,0.0659734457731247,0.23151792585849762,-0.48380526900291443
1782778906155534800,5.362534912109375,0.13255776464939117,0.3390302062034607,-0.5253441333770752
1782778906165565200,5.372565185546875,0.19364428520202637,0.3646865487098694,-0.5149593949317932
1782778906175524000,5.382524169921875,0.20402899384498596,0.29993483424186707,-0.40744712948799133
1782778906185554200,5.39255419921875,0.21807889640331268,0.23579397797584534,-0.1563815027475357
1782778906195543600,5.40254345703125,0.24923302233219147,0.17348572611808777,0.15454891324043274
1782778906205544700,5.412544677734375,0.28038713335990906,0.05619960278272629,0.4184426963329315
1782778906215532300,5.4225322265625,0.28955012559890747,0.05314527451992035,0.5943718552589417
1782778906225564200,5.432564208984375,0.2828305959701538,0.18448130786418915,0.6737843751907349
1782778906235521500,5.442521484375,0.2779437005519867,0.37568211555480957,0.7134906053543091
1782778906245490700,5.45249072265625,0.28955012559890747,0.5528330206871033,0.7422012686729431
1782778906256272400,5.4632724609375,0.3139847218990326,0.6872233748435974,0.7721336483955383
1782778906275530000,5.482530029296875,0.33597588539123535,0.6640105247497559,0.8497135639190674
1782778906285529900,5.49252978515625,0.3219259977340698,0.48258355259895325,0.846659243106842
1782778906295458000,5.5024580078125,0.31093040108680725,0.2840523421764374,0.7611380815505981
1782778906305550800,5.51255078125,0.3396410644054413,0.2480112910270691,0.675006091594696
1782778906315538400,5.522538330078125,0.35674530267715454,0.4031710624694824,0.6224716901779175
1782778906325569000,5.532569091796875,0.3439171314239502,0.7141014933586121,0.5283984541893005
1782778906335527700,5.542527587890625,0.252287358045578,0.912021815776825,0.3090978264808655
1782778906355547100,5.562547119140625,0.10201449692249298,0.5589417219161987,0.04153883829712868
1782778906365548300,5.57254833984375,0.23884831368923187,0.6359107494354248,0.05375614017248154
1782778906375536000,5.5825361328125,0.5149593949317932,1.06657075881958,0.2382374405860901
1782778906385567700,5.592567626953125,0.7464773058891296,1.4624114036560059,0.5198463201522827
1782778906395525000,5.602525146484375,0.8203920125961304,1.3878858089447021,0.6481280326843262
1782778906405556000,5.612555908203125,0.8161159753799438,1.1136072874069214,0.6884451508522034
1782778906415544600,5.622544677734375,0.8197811841964722,0.7929030656814575,0.7464773058891296
1782778906425545500,5.63254541015625,0.8100073337554932,0.4300491213798523,0.7299839854240417
1782778906435533800,5.642533935546875,0.6517932415008545,0.18570303916931152,0.5711590051651001
1782778906445564400,5.652564453125,0.32681289315223694,-0.07330382615327835,0.2382374405860901
1782778906455522800,5.662522705078125,-0.009162978269159794,-0.31459560990333557,-0.11362093687057495
1782778906465554200,5.67255419921875,-0.19792033731937408,-0.5186246037483215,-0.34513887763023376
1782778906475542300,5.682542236328125,-0.2926044464111328,-0.7843509912490845,-0.504574716091156
1782778906485543700,5.692543701171875,-0.32009339332580566,-1.0855075120925903,-0.6951646208763123
1782778906495531300,5.70253125,-0.30482175946235657,-1.301142930984497,-0.9834930300712585
1782778906505563100,5.712563232421875,-0.3194825351238251,-1.226617455482483,-1.1917980909347534
1782778906515479600,5.7224794921875,-0.3176499307155609,-0.979827880859375,-1.1478158235549927
1782778906525643300,5.732643310546875,-0.3017674386501312,-0.7874053120613098,-0.8570439219474792
1782778906535539700,5.742539794921875,-0.34025195240974426,-0.7562511563301086,-0.4251621961593628
1782778906545570600,5.752570556640625,-0.43188172578811646,-0.8319984674453735,0.01771509274840355
1782778906555528700,5.76252880859375,-0.5216789245605469,-0.9480628371238708,0.3738495409488678
1782778906565559300,5.772559326171875,-0.6291912198066711,-1.0525208711624146,0.5601634383201599
1782778906575548400,5.78254833984375,-0.7202101349830627,-1.0897835493087769,0.6053674817085266
1782778906585551000,5.792551025390625,-0.7550294399261475,-0.7916813492774963,0.4098905920982361
1782778906595466200,5.80246630859375,-0.7012733221054077,-0.3579670190811157,0.1362229436635971
1782778906605598200,5.81259814453125,-0.656069278717041,-0.03726277872920036,-0.13927727937698364
1782778906616535000,5.82353515625,-0.5442809462547302,0.09162978827953339,-0.2987131178379059
1782778906635545900,5.8425458984375,-0.19914206862449646,0.06108652427792549,-0.19364428520202637
1782778906645545700,5.852545654296875,-0.1411098688840866,0.048258353024721146,0.048258353024721146
1782778906655534800,5.862534912109375,-0.13927727937698364,0.11423180252313614,0.3689626157283783
1782778906665566200,5.872566162109375,-0.15271630883216858,0.18448130786418915,0.7031059265136719
1782778906675524000,5.882524169921875,-0.18325957655906677,0.3323107063770294,0.9902125597000122
1782778906685555200,5.89255517578125,-0.22907446324825287,0.513737678527832,1.179580807685852
1782778906695543600,5.90254345703125,-0.2840523421764374,0.6682865619659424,1.2479976415634155
1782778906705654800,5.91265478515625,-0.3396410644054413,0.7422012686729431,1.214400053024292
1782778906715532500,5.922532470703125,-0.3634648323059082,0.6988298296928406,1.1264355182647705
1782778906725565200,5.932565185546875,-0.33658674359321594,0.5510004758834839,1.0134254693984985
1782778906735480800,5.942480712890625,-0.25045475363731384,0.3677408695220947,0.8778133392333984
1782778906745615000,5.952614990234375,-0.14355333149433136,0.21135938167572021,0.6914994716644287
1782778906755541200,5.962541259765625,-0.06658431142568588,0.10567969083786011,0.4440990388393402
1782778906765510100,5.97251025390625,-0.027488935738801956,0.08124507963657379,0.16310101747512817
1782778906775865600,5.982865478515625,-0.012828170321881771,0.09529497474431992,-0.08429940044879913
1782778906785560300,5.992560302734375,0.012828170321881771,0.12339477986097336,-0.2125810980796814
1782778906795549700,6.0025498046875,0.07024950534105301,0.15271630883216858,-0.21013765037059784
1782778906805549600,6.012549560546875,0.11239920556545258,0.11850785464048386,-0.14416420459747314
1782778906815535600,6.02253564453125,0.16798794269561768,0.10934487730264664,-0.06414084881544113
1782778906825568800,6.03256884765625,0.24373523890972137,0.15332718193531036,0.024434609338641167
1782778906835527200,6.042527099609375,0.2987131178379059,0.19364428520202637,0.1215621829032898
1782778906845666000,6.052666015625,0.30604347586631775,0.24678955972194672,0.1667662113904953
1782778906855516400,6.062516357421875,0.25473082065582275,0.3787364661693573,0.10262536257505417
1782778906865546500,6.07254638671875,0.13439035415649414,0.5552765130996704,-0.03420845419168472
1782778906875308000,6.08230810546875,-0.04642575979232788,0.5913175344467163,-0.13255776464939117
1782778906885538600,6.09253857421875,-0.14355333149433136,0.5357288122177124,-0.16371189057826996
1782778906895524600,6.102524658203125,-0.13561208546161652,0.5106833577156067,-0.1722639948129654
1782778906905582600,6.11258251953125,-0.10445795953273773,0.4331034719944,-0.2767219543457031
1782778906915544600,6.122544677734375,-0.03176499158143997,0.4648684561252594,-0.598647952079773
1782778906925545700,6.132545654296875,-0.02321287989616394,0.5546656250953674,-1.1136072874069214
1782778906935533600,6.142533447265625,-0.05192354694008827,0.16859880089759827,-1.4929546117782593
1782778906945565200,6.152565185546875,-0.005497787147760391,0.3323107063770294,-1.0739010572433472
1782778906955522600,6.1625224609375,0.17592918872833252,0.5937610268592834,-0.14233160018920898
1782778906965554400,6.172554443359375,0.37262779474258423,0.9260717034339905,1.083064079284668
1782778906975542300,6.182542236328125,0.5418374538421631,1.4080443382263184,2.155743360519409
1782778906995531300,6.20253125,0.5167919993400574,0.8808676600456238,1.9449949264526367
1782778907005562400,6.212562255859375,0.5412266254425049,0.048258353024721146,0.6163630485534668
1782778907015520300,6.222520263671875,0.5497786998748779,-0.2174680233001709,0.006719517521560192
1782778907025551400,6.23255126953125,0.5216789245605469,-0.3787364661693573,-0.12522737681865692
1782778907035539700,6.242539794921875,0.6572909951210022,-0.5442809462547302,0.0861319974064827
1782778907045571000,6.252571044921875,0.7195992469787598,-0.9205739498138428,0.24373523890972137
1782778907055528700,6.26252880859375,0.5357288122177124,-1.3640620708465576,0.033597588539123535
1782778907065559600,6.2725595703125,0.17348572611808777,-1.4569135904312134,-0.5650503635406494
1782778907075548400,6.28254833984375,-0.22663100063800812,-1.168585181236267,-1.1679743528366089
1782778907085549800,6.2925498046875,-0.48319441080093384,-0.9101892113685608,-1.416596531867981
1782778907095537400,6.302537353515625,-0.4697553813457489,-0.7385360598564148,-1.3145819902420044
1782778907105569000,6.312569091796875,-0.2681698501110077,-0.685390830039978,-1.004873275756836
1782778907115526400,6.3225263671875,-0.09162978827953339,-0.7611380815505981,-0.6139195561408997
1782778907125557500,6.3325576171875,-0.03787364438176155,-0.8759807348251343,-0.2877175211906433
1782778907135545900,6.3425458984375,-0.07452555745840073,-0.9468411207199097,-0.0861319974064827
1782778907145546200,6.352546142578125,-0.19608774781227112,-0.8881980776786804,0.004886921960860491
1782778907155535000,6.36253515625,-0.4031710624694824,-0.7513642311096191,-0.012217304669320583
1782778907165565200,6.372565185546875,-0.616973876953125,-0.5845980644226074,-0.14416420459747314
1782778907175524000,6.382524169921875,-0.7379252314567566,-0.4178318381309509,-0.28955012559890747
1782778907185555700,6.3925556640625,-0.6951646208763123,-0.24129177629947662,-0.3237585723400116
1782778907195543600,6.40254345703125,-0.5589417219161987,-0.10506882518529892,-0.18570303916931152
1782778907205543700,6.412543701171875,-0.40133845806121826,-0.028099801391363144,0.048258353024721146
1782778907215532300,6.4225322265625,-0.22296582162380219,0.11667526513338089,0.26572638750076294
1782778907225563100,6.432563232421875,-0.07452555745840073,0.2669481039047241,0.43127086758613586
1782778907235521500,6.442521484375,0.001832595793530345,0.4392121136188507,0.5552765130996704
1782778907245554200,6.45255419921875,-0.07208210229873657,0.5167919993400574,0.6304129362106323
1782778907255541000,6.462541015625,-0.19853121042251587,0.5699372887611389,0.6896668672561646
1782778907265540900,6.472540771484375,-0.2785545587539673,0.6102544069290161,0.7293730974197388
1782778907275530000,6.482530029296875,-0.34147366881370544,0.5461135506629944,0.7483099102973938
1782778907285560300,6.492560302734375,-0.3536909818649292,0.49724429845809937,0.7422012686729431
1782778907295549700,6.5025498046875,-0.31093040108680725,0.5204572081565857,0.6963863968849182
1782778907305551600,6.512551513671875,-0.22968533635139465,0.5534439086914062,0.5913175344467163
1782778907315538700,6.52253857421875,-0.10567969083786011,0.5583308339118958,0.46853363513946533
1782778907325571300,6.5325712890625,0.02626720629632473,0.5094616413116455,0.35124751925468445
1782778907335527700,6.542527587890625,0.08918632566928864,0.4105014503002167,0.2321287989616394
1782778907345560300,6.552560302734375,0.12217304855585098,0.2834414839744568,0.10934487730264664
1782778907355547100,6.562547119140625,0.1569923609495163,0.16249015927314758,-0.007941247895359993
1782778907365551400,6.57255126953125,0.17531833052635193,0.05314527451992035,-0.1062905490398407
1782778907375536400,6.582536376953125,0.1875356286764145,0.007941247895359993,-0.17348572611808777
1782778907385569000,6.592569091796875,0.17348572611808777,0.02321287989616394,-0.22052235901355743
1782778907395390200,6.60239013671875,0.14294247329235077,0.06902777403593063,-0.24862214922904968
1782778907405557500,6.6125576171875,0.13866640627384186,0.16798794269561768,-0.23457226157188416
1782778907415544600,6.622544677734375,0.17409659922122955,0.2577851414680481,-0.17348572611808777
1782778907425546000,6.6325458984375,0.21868975460529327,0.4031710624694824,-0.05619960278272629
1782778907435686100,6.64268603515625,0.2278527319431305,0.6401867866516113,0.031154127791523933
1782778907445674500,6.652674560546875,0.21319197118282318,0.6969972252845764,0.07696902006864548
1782778907455522800,6.662522705078125,0.2217440903186798,0.6505714654922485,0.1472185254096985
1782778907465553200,6.67255322265625,0.23945917189121246,0.636521577835083,0.313373863697052
1782778907475542500,6.68254248046875,0.19058994948863983,0.37568211555480957,0.36102136969566345
1782778907485544400,6.69254443359375,0.10812314599752426,0.12767083942890167,0.0555887371301651
1782778907495531300,6.70253125,0.001832595793530345,0.5589417219161987,-0.13377949595451355
1782778907505563100,6.712563232421875,-0.11239920556545258,0.7617489695549011,-0.08368854224681854
1782778907515520300,6.722520263671875,-0.15760323405265808,0.5619960427284241,0.18509216606616974
1782778907525551400,6.73255126953125,-0.192422553896904,0.3494149148464203,0.2993239760398865
1782778907535539700,6.742539794921875,-0.07819075137376785,-0.07024950534105301,-0.012828170321881771
1782778907545570600,6.752570556640625,0.2669481039047241,-0.43676865100860596,-0.3878994286060333
1782778907555529000,6.762529052734375,0.5913175344467163,-0.6664539575576782,-0.8234463334083557
1782778907565559600,6.7725595703125,0.5736024379730225,-0.8619308471679688,-1.3225232362747192
1782778907575548400,6.78254833984375,0.3170390725135803,-0.15027284622192383,-1.356731653213501
1782778907585548800,6.792548828125,0.09712757170200348,0.4764748811721802,-0.8210029006004333
1782778907595537400,6.802537353515625,0.04337143152952194,0.694553792476654,0.06108652427792549
1782778907605568300,6.812568359375,0.08552113175392151,0.6059783101081848,0.8203920125961304
1782778907615526400,6.8225263671875,0.17409659922122955,0.3335324227809906,1.2596040964126587
1782778907625557500,6.8325576171875,0.2590068578720093,-0.16859880089759827,1.33168625831604
1782778907635545900,6.8425458984375,0.1258382350206375,-0.8148942589759827,1.0366383790969849
1782778907645546000,6.8525458984375,-0.1820378452539444,-1.5790866613388062,0.3182607889175415
1782778907655535000,6.86253515625,-0.48319441080093384,-2.0757200717926025,-0.5308418869972229
1782778907665565400,6.8725654296875,-0.8136724829673767,-1.9333884716033936,-1.2687671184539795
1782778907675524000,6.882524169921875,-1.06351637840271,-1.2999212741851807,-1.7244726419448853
1782778907685555700,6.8925556640625,-1.0677924156188965,-0.6389650702476501,-1.8185458183288574
1782778907695543600,6.90254345703125,-0.837496280670166,-0.2217440903186798,-1.5638149976730347
1782778907705512700,6.9125126953125,-0.5858197808265686,-0.13988813757896423,-1.0629055500030518
1782778907715593700,6.92259375,-0.4129449129104614,-0.3604104816913605,-0.4544837474822998
1782778907725564400,6.932564453125,-0.4404338300228119,-0.8100073337554932,0.0757472887635231
1782778907735521500,6.942521484375,-0.6444628238677979,-1.235169529914856,0.3530801236629486
1782778907745552000,6.9525517578125,-0.8723155856132507,-1.4605787992477417,0.31459560990333557
1782778907755541000,6.962541015625,-0.9779952764511108,-1.3976596593856812,0.03237585723400116
1782778907765542100,6.972542236328125,-1.014647126197815,-1.0629055500030518,-0.4141666293144226
1782778907775530200,6.9825302734375,-0.9474520087242126,-0.5283984541893005,-0.7757988572120667
1782778907785560600,6.992560546875,-0.7611380815505981,-0.04886921867728233,-0.8326093554496765
1782778907795550000,7.002550048828125,-0.5662720799446106,0.1716531366109848,-0.5583308339118958
1782778907805549800,7.0125498046875,-0.3182607889175415,0.2724458873271942,-0.06108652427792549
1782778907815535600,7.02253564453125,-0.08796459436416626,0.33658674359321594,0.45692721009254456
1782778907825568500,7.032568603515625,0.05619960278272629,0.4178318381309509,0.8881980776786804
1782778907835527200,7.042527099609375,0.1472185254096985,0.5711590051651001,1.2217304706573486
1782778907845559600,7.0525595703125,0.1258382350206375,0.7250970602035522,1.4538593292236328
1782778907855546600,7.062546630859375,-0.14966198801994324,0.8576548099517822,1.6242907047271729
1782778907865549600,7.072549560546875,-0.28466320037841797,0.8747590184211731,1.5809192657470703
1782778907875535600,7.08253564453125,-0.36163222789764404,0.8613200187683105,1.4355332851409912
1782778907885568300,7.092568359375,-0.41233405470848083,0.7929030656814575,1.263269305229187
1782778907895484700,7.102484619140625,-0.4404338300228119,0.5650503635406494,1.0946705341339111
1782778907905586000,7.1125859375,-0.4489859640598297,0.31642818450927734,0.9468411207199097
1782778907915605500,7.12260546875,-0.3988949954509735,0.17348572611808777,0.8197811841964722
1782778907925544700,7.132544677734375,-0.29077184200286865,0.17837265133857727,0.6768386960029602
1782778907935533600,7.142533447265625,-0.18448130786418915,0.2669481039047241,0.5082398653030396
1782778907945568300,7.152568359375,-0.11362093687057495,0.384845107793808,0.3445279896259308
1782778907955522800,7.162522705078125,-0.10262536257505417,0.5082398653030396,0.17531833052635193
1782778907965554000,7.172553955078125,-0.12950342893600464,0.6230825781822205,0.01710422709584236
1782778907975651300,7.1826513671875,-0.16065755486488342,0.6817256212234497,-0.0555887371301651
1782778907985542100,7.192542236328125,-0.17104226350784302,0.6627888083457947,-0.004886921960860491
1782778907995531300,7.20253125,-0.13988813757896423,0.5772676467895508,0.09773843735456467
1782778908005531100,7.21253125,-0.07757988572120667,0.5577199459075928,0.24190263450145721
1782778908015611600,7.222611572265625,0.006108652334660292,0.6615670323371887,0.3927863538265228
1782778908025446100,7.232446044921875,0.08918632566928864,0.8808676600456238,0.4612032473087311
1782778908035540000,7.2425400390625,0.14294247329235077,1.0433578491210938,0.5583308339118958
1782778908045572400,7.252572265625,0.10690141469240189,1.386053204536438,1.0708467960357666
1782778908055528700,7.26252880859375,0.0012217304902151227,0.7159340381622314,1.1545352935791016
1782778908065569300,7.2725693359375,0.045204028487205505,0.44287729263305664,0.9175195693969727
1782778908075548400,7.28254833984375,0.06352998316287994,0.636521577835083,0.598647952079773
1782778908085550600,7.292550537109375,-0.009773843921720982,0.9193521738052368,0.34636059403419495
1782778908095537400,7.302537353515625,-0.06780604273080826,0.921795666217804,0.15882496535778046
1782778908105568500,7.312568603515625,-0.1014036312699318,0.7428121566772461,-0.12095131725072861
1782778908115526400,7.3225263671875,-0.14477506279945374,0.5955936312675476,-0.3139847218990326
1782778908125558800,7.332558837890625,-0.06230825558304787,0.19120082259178162,-0.22602014243602753
1782778908135545900,7.3425458984375,0.2583959996700287,-0.6163630485534668,-0.29077184200286865
