time,seconds_elapsed,z,y,x
1782778837159204900,0.194204833984375,6.254903316497803,-0.4502488970756531,-0.9374641180038452
1782778837169214500,0.20421435546875,5.016793727874756,-0.34599941968917847,-1.6003479957580566
1782778837179224300,0.214224365234375,3.884136199951172,-0.37213441729545593,-1.837233304977417
1782778837189203700,0.22420361328125,3.4905738830566406,-0.37901341915130615,-1.5619122982025146
1782778837199213300,0.23421337890625,3.776121139526367,-0.023898422718048096,-2.0366103649139404
1782778837209223200,0.24422314453125,4.47498893737793,0.18905240297317505,-1.7471967935562134
1782778837219202300,0.254202392578125,4.833433151245117,0.0058893561363220215,0.5349092483520508
1782778837229212000,0.2642119140625,5.707248687744141,0.26602089405059814,0.9878624677658081
1782778837239221800,0.2742216796875,6.373620986938477,0.39150214195251465,1.551788330078125
1782778837249201200,0.284201171875,7.210965156555176,0.23643118143081665,1.7154541015625
1782778837259210800,0.294210693359375,7.826218605041504,0.025753140449523926,1.3194178342819214
1782778837269220600,0.304220703125,8.195381164550781,-0.2295593023300171,1.12205970287323
1782778837279200000,0.314199951171875,8.338607788085938,-0.5185413360595703,1.2303781509399414
1782778837289270800,0.324270751953125,7.7411088943481445,-1.869707703590393,2.911311149597168
1782778837299328500,0.33432861328125,8.06303596496582,-1.9310282468795776,3.674598455429077
1782778837309198600,0.344198486328125,8.482353210449219,-1.730950117111206,4.766951560974121
1782778837319208200,0.354208251953125,9.026912689208984,-1.6425001621246338,5.271564483642578
1782778837329297000,0.364296875,9.545854568481445,-1.7513693571090698,5.153912544250488
1782778837339197400,0.374197509765625,8.409867286682129,-5.493091106414795,-0.10047107934951782
1782778837349207300,0.384207275390625,7.598010063171387,-6.311270713806152,-1.3034145832061768
1782778837358959900,0.3939599609375,6.777738094329834,-7.2220377922058105,-2.0968923568725586
1782778837369196300,0.4041962890625,4.983133792877197,-8.106072425842285,-3.2312421798706055
1782778837379206100,0.4142060546875,3.4181482791900635,-8.324624061584473,-4.414725303649902
1782778837389215700,0.4242158203125,4.537138938903809,-6.934474945068359,-4.9880146980285645
1782778837399225600,0.4342255859375,3.8060755729675293,-6.940469741821289,-4.561250686645508
1782778837409313800,0.444313720703125,3.4406144618988037,-6.857035160064697,-4.146051406860352
1782778837419214300,0.45421435546875,3.9235546588897705,-6.631324291229248,-3.852729558944702
1782778837429224200,0.46422412109375,5.598387718200684,-6.691471576690674,-3.8565475940704346
1782778837439203600,0.47420361328125,8.01812744140625,-7.037450790405273,-4.515233516693115
1782778837449213200,0.484213134765625,10.467290878295898,-7.463611125946045,-4.759571552276611
1782778837459223000,0.49422314453125,12.302709579467773,-7.547717094421387,-4.385433197021484
1782778837469202400,0.504202392578125,13.67793083190918,-7.09935188293457,-4.541274547576904
1782778837479212000,0.5142119140625,15.725706100463867,-5.790123462677002,-4.702277660369873
1782778837489222000,0.524221923828125,18.732437133789062,-3.9715802669525146,-4.8770551681518555
1782778837499201000,0.534200927734375,22.703577041625977,-2.831723213195801,-7.288390159606934
1782778837509210600,0.544210693359375,25.450172424316406,-3.0086004734039307,-8.047754287719727
1782778837519220500,0.554220458984375,28.2429256439209,-3.1345016956329346,-7.280134201049805
1782778837529199900,0.564199951171875,31.373106002807617,-2.257246971130371,-5.837294578552246
1782778837539209700,0.574209716796875,33.48175811767578,-1.910050392150879,-3.3413376808166504
1782778837559198700,0.59419873046875,36.063751220703125,-0.8832635879516602,0.9224376678466797
1782778837569208300,0.604208251953125,38.22793197631836,-1.7069296836853027,1.2399492263793945
1782778837579218200,0.61421826171875,41.21467590332031,-2.949902057647705,1.8625683784484863
1782778837589197300,0.624197265625,44.61598587036133,-3.555562734603882,2.5428266525268555
1782778837599207200,0.634207275390625,45.82248306274414,-3.773324728012085,2.1219005584716797
1782778837609216800,0.644216796875,42.96028137207031,-3.507296085357666,1.456995964050293
1782778837619196200,0.654196044921875,38.02309036254883,-3.033475399017334,0.4300975799560547
1782778837629206000,0.6642060546875,32.77928924560547,-2.267704486846924,-0.47463369369506836
1782778837639215600,0.674215576171875,27.43988609313965,-1.3024625778198242,-0.061631202697753906
1782778837649195000,0.684195068359375,22.06927490234375,-0.8477401733398438,-0.17472600936889648
1782778837659204900,0.694204833984375,17.50737190246582,-1.1196208000183105,-1.0721306800842285
1782778837669214500,0.70421435546875,14.145496368408203,-2.001893997192383,-2.061863660812378
1782778837679224300,0.714224365234375,11.862832069396973,-3.1852455139160156,-2.4183104038238525
1782778837689203700,0.72420361328125,10.816619873046875,-4.702030181884766,-2.644587278366089
1782778837699213300,0.73421337890625,10.569388389587402,-6.313057899475098,-3.9007468223571777
1782778837709223200,0.74422314453125,11.426712036132812,-7.858575820922852,-5.074129581451416
1782778837719202300,0.754202392578125,12.552413940429688,-8.597346305847168,-5.096034526824951
1782778837729212000,0.7642119140625,13.274011611938477,-8.746708869934082,-4.384245872497559
1782778837739221800,0.7742216796875,13.861976623535156,-8.493307113647461,-3.742567300796509
1782778837749201200,0.784201171875,13.377313613891602,-7.819309711456299,-3.163546562194824
1782778837759210800,0.794210693359375,11.907135009765625,-7.317171573638916,-2.8660683631896973
1782778837769220600,0.804220703125,9.966821670532227,-7.005374908447266,-3.527437210083008
1782778837779200000,0.814199951171875,7.706932067871094,-6.788348197937012,-4.1678667068481445
1782778837789209900,0.8242099609375,5.784742832183838,-6.905420780181885,-5.079508304595947
1782778837799219500,0.834219482421875,4.462896823883057,-6.990602970123291,-6.3361663818359375
1782778837809198600,0.844198486328125,2.85135555267334,-7.248789310455322,-6.802422523498535
1782778837819208200,0.854208251953125,1.8307726383209229,-7.422359943389893,-7.908535957336426
1782778837829218000,0.864218017578125,1.4127552509307861,-7.550985813140869,-8.511167526245117
1782778837839197400,0.874197509765625,1.6043763160705566,-7.444905757904053,-8.276835441589355
1782778837849207300,0.884207275390625,1.901585340499878,-7.192883491516113,-7.723760604858398
1782778837859217000,0.894216796875,1.9931795597076416,-7.159811496734619,-7.370140075683594
1782778837869196300,0.9041962890625,2.082193613052368,-7.24172830581665,-7.113887786865234
1782778837879206100,0.9142060546875,2.6959080696105957,-7.249194145202637,-6.596814155578613
1782778837889215700,0.9242158203125,3.735959053039551,-7.25927209854126,-5.8420586585998535
1782778837899195000,0.93419482421875,4.818172931671143,-7.20886754989624,-5.268252372741699
1782778837909449000,0.944448974609375,5.593494415283203,-7.244752407073975,-4.882038593292236
1782778837919222500,0.954222412109375,5.8444905281066895,-7.421553134918213,-5.015559196472168
1782778837929224200,0.96422412109375,5.884287357330322,-7.5541887283325195,-5.153775215148926
1782778837939203600,0.97420361328125,5.7534918785095215,-7.618773460388184,-5.123818397521973
1782778837949213200,0.984213134765625,5.5583696365356445,-7.7786431312561035,-5.469461441040039
1782778837959332000,0.99433203125,5.47169303894043,-7.905030727386475,-6.003252983093262
1782778837969202400,1.004202392578125,5.641337871551514,-7.927997589111328,-6.216506004333496
1782778837979212000,1.0142119140625,5.916321277618408,-7.676063060760498,-5.868600845336914
1782778837989222000,1.024221923828125,5.689671516418457,-7.330850124359131,-5.248090744018555
1782778837998883000,1.033883056640625,5.380308151245117,-7.0707106590271,-4.758882522583008
1782778838009210600,1.044210693359375,4.94696569442749,-6.944572448730469,-4.682769775390625
1782778838019220500,1.054220458984375,4.329748630523682,-6.690780162811279,-4.381689071655273
1782778838029309200,1.06430908203125,4.089685916900635,-6.699045658111572,-4.137663841247559
1782778838039209700,1.074209716796875,5.675736427307129,-6.951013088226318,-4.844144344329834
1782778838049219300,1.08421923828125,8.419849395751953,-7.408190727233887,-5.327619552612305
1782778838059198700,1.09419873046875,10.121541023254395,-7.827205657958984,-5.2459917068481445
1782778838069208300,1.104208251953125,12.533485412597656,-7.928056716918945,-4.1734299659729
1782778838079218200,1.11421826171875,15.805547714233398,-7.344707012176514,-3.4440557956695557
1782778838089197300,1.124197265625,18.772165298461914,-6.585355758666992,-3.2790613174438477
1782778838099207200,1.134207275390625,22.62961196899414,-5.4708333015441895,-2.939275026321411
1782778838119196200,1.154196044921875,27.11324691772461,-1.4213142395019531,-2.8485522270202637
1782778838129206000,1.1642060546875,25.005760192871094,-0.2846522331237793,-2.2753541469573975
1782778838139215600,1.174215576171875,24.146739959716797,1.4493069648742676,-2.681408405303955
1782778838149195000,1.184195068359375,25.23076820373535,1.3584160804748535,-2.958544969558716
1782778838159204900,1.194204833984375,27.35822868347168,1.1765847206115723,-2.646366834640503
1782778838169214500,1.20421435546875,30.441028594970703,1.693603515625,-1.980832576751709
1782778838179224300,1.214224365234375,33.3348388671875,1.5437288284301758,-1.002915859222412
1782778838189203700,1.22420361328125,35.62057876586914,0.7572946548461914,-1.023756504058838
1782778838199213300,1.23421337890625,36.34253692626953,0.08548164367675781,-0.6218371391296387
1782778838209223000,1.244222900390625,34.87520980834961,-0.35195207595825195,0.5163979530334473
1782778838219202300,1.254202392578125,33.599857330322266,-0.5737152099609375,1.3131613731384277
1782778838229212000,1.2642119140625,33.67561721801758,-1.359372615814209,1.3521485328674316
1782778838239221800,1.2742216796875,33.611122131347656,-2.502011299133301,0.35631847381591797
1782778838249201200,1.284201171875,31.761463165283203,-3.346632719039917,-0.6714358329772949
1782778838259210800,1.294210693359375,27.452224731445312,-3.264326333999634,-0.3773174285888672
1782778838269220600,1.304220703125,23.3586368560791,-2.9050052165985107,-0.2211141586303711
1782778838279200000,1.314199951171875,19.382421493530273,-2.874077081680298,-0.742159366607666
1782778838289209600,1.324209716796875,15.91474723815918,-3.0219521522521973,-0.8848605155944824
1782778838299219500,1.334219482421875,13.621766090393066,-3.212831974029541,-1.2045183181762695
1782778838309198600,1.344198486328125,12.746313095092773,-3.8116490840911865,-2.230557680130005
1782778838319208400,1.35420849609375,12.275623321533203,-4.554384231567383,-3.3118207454681396
1782778838329218000,1.364218017578125,11.501899719238281,-5.208678245544434,-4.10235595703125
1782778838339197400,1.374197509765625,10.345548629760742,-5.867715358734131,-5.137088298797607
1782778838349207000,1.38420703125,9.617758750915527,-6.319896697998047,-5.948061466217041
1782778838359217000,1.394216796875,8.887716293334961,-6.598903656005859,-6.444133758544922
1782778838369196300,1.4041962890625,7.780742645263672,-6.803035259246826,-7.062358379364014
1782778838379206100,1.4142060546875,6.214412689208984,-6.886845588684082,-7.769649505615234
1782778838389215700,1.4242158203125,4.619246959686279,-6.9472198486328125,-8.224434852600098
1782778838399195100,1.434195068359375,3.2999043464660645,-6.781078338623047,-8.291112899780273
1782778838409204700,1.444204833984375,2.645901918411255,-6.457488536834717,-8.241388320922852
1782778838419214300,1.45421435546875,2.320281982421875,-6.126882553100586,-7.866374969482422
1782778838429224200,1.46422412109375,2.6049416065216064,-5.650337219238281,-7.118388652801514
1782778838439203600,1.47420361328125,3.4480087757110596,-5.194132328033447,-6.39037561416626
1782778838449213200,1.484213134765625,4.0095744132995605,-5.029817581176758,-6.084243297576904
1782778838459332600,1.49433251953125,4.190229892730713,-5.236941814422607,-6.546347618103027
1782778838469202400,1.504202392578125,3.9925150871276855,-5.439197063446045,-6.886872291564941
1782778838479212000,1.5142119140625,3.8206515312194824,-5.731070041656494,-7.16919469833374
1782778838489222000,1.524221923828125,3.7850632667541504,-6.161843776702881,-7.793997764587402
1782778838499201000,1.534200927734375,3.8908443450927734,-6.396866321563721,-8.086193084716797
1782778838509210600,1.544210693359375,4.302829742431641,-6.4285969734191895,-7.762236595153809
1782778838519220500,1.554220458984375,4.747472286224365,-6.284648895263672,-7.02050256729126
1782778838529199900,1.564199951171875,5.057832717895508,-6.282570838928223,-6.6749420166015625
1782778838539209500,1.57420947265625,5.4750165939331055,-6.24248743057251,-6.326022148132324
1782778838549219300,1.58421923828125,6.177954196929932,-5.905089855194092,-5.42612886428833
1782778838559259600,1.594259765625,6.362494468688965,-5.720366477966309,-4.867327690124512
1782778838569317600,1.604317626953125,5.8222761154174805,-5.713563442230225,-4.81119966506958
1782778838579187700,1.614187744140625,5.136948108673096,-5.9673542976379395,-5.254422664642334
1782778838589197300,1.624197265625,4.938313961029053,-6.031777858734131,-5.439461708068848
1782778838599285800,1.63428564453125,5.055521488189697,-6.167193412780762,-5.77532434463501
1782778838609186300,1.644186279296875,5.653475761413574,-6.253829479217529,-5.944011211395264
1782778838619196200,1.654196044921875,6.1205363273620605,-6.424442768096924,-6.2400689125061035
1782778838629206000,1.6642060546875,6.002290725708008,-6.29742956161499,-6.068414211273193
1782778838638806300,1.67380615234375,6.190755844116211,-6.104947566986084,-5.420201301574707
1782778838649165800,1.684165771484375,6.629690170288086,-6.177525043487549,-5.0970072746276855
1782778838659112400,1.694112548828125,6.954375743865967,-6.187459468841553,-5.040228843688965
1782778838669214700,1.704214599609375,8.476316452026367,-6.401119232177734,-4.670577526092529
1782778838679224300,1.714224365234375,9.872178077697754,-6.544398307800293,-4.721197128295898
1782778838689203700,1.72420361328125,12.970538139343262,-6.565263271331787,-5.076757431030273
1782778838699213300,1.73421337890625,16.838855743408203,-6.364161014556885,-5.095696449279785
1782778838709223000,1.744222900390625,20.236106872558594,-5.51676082611084,-5.1514129638671875
1782778838719202300,1.754202392578125,22.582286834716797,-3.84782075881958,-5.995460510253906
1782778838729212000,1.7642119140625,22.214502334594727,-2.4661598205566406,-6.822376728057861
1782778838739221800,1.7742216796875,21.236297607421875,-2.199498176574707,-5.785538673400879
1782778838759210800,1.794210693359375,27.21441650390625,-2.97743821144104,-1.201551914215088
1782778838769161000,1.804160888671875,31.449844360351562,-4.804408073425293,1.5219764709472656
1782778838779383000,1.814383056640625,36.70374298095703,-5.922276496887207,3.6798086166381836
1782778838789209600,1.824209716796875,43.40114974975586,-7.547420501708984,5.139490127563477
1782778838799219500,1.834219482421875,51.36983871459961,-9.234227180480957,5.0578203201293945
1782778838809198600,1.844198486328125,56.19309997558594,-10.529935836791992,3.377682685852051
1782778838819208200,1.854208251953125,55.235755920410156,-10.65884780883789,1.44171142578125
1782778838829218000,1.864218017578125,48.33751678466797,-9.033367156982422,1.2900137901306152
1782778838839197400,1.874197509765625,39.809505462646484,-6.4412150382995605,2.8619279861450195
1782778838849207000,1.88420703125,32.45488357543945,-4.431143760681152,3.016658306121826
1782778838859217000,1.894216796875,25.628881454467773,-2.694298267364502,2.6847691535949707
1782778838869196300,1.9041962890625,20.239824295043945,-1.4766645431518555,1.156745433807373
1782778838879206000,1.914205810546875,17.2774658203125,-1.4090557098388672,-1.1136221885681152
1782778838889215700,1.9242158203125,15.756275177001953,-2.1667275428771973,-2.9862921237945557
1782778838899195100,1.934195068359375,15.292634963989258,-3.1498494148254395,-3.9697301387786865
1782778838909204700,1.944204833984375,15.451055526733398,-4.083929538726807,-4.336723804473877
1782778838919214300,1.95421435546875,16.364730834960938,-5.194154262542725,-5.276952743530273
1782778838929224200,1.96422412109375,16.287567138671875,-6.19412899017334,-6.241634368896484
1782778838939203600,1.97420361328125,14.906185150146484,-6.695565223693848,-6.543329238891602
1782778838949213200,1.984213134765625,12.484708786010742,-6.833161354064941,-6.045300006866455
1782778838959223000,1.99422314453125,9.42153549194336,-6.93126916885376,-5.603551864624023
1782778838969202400,2.004202392578125,6.081699848175049,-6.920279502868652,-5.509748458862305
1782778838979212000,2.0142119140625,2.778052568435669,-6.933767318725586,-6.080278396606445
1782778838989222000,2.024221923828125,0.3483610153198242,-6.804105758666992,-6.720809459686279
1782778838999201000,2.034200927734375,-1.3869366645812988,-6.664641380310059,-7.1388139724731445
1782778839009210600,2.044210693359375,-2.2277488708496094,-6.642148494720459,-7.953030586242676
1782778839019220500,2.054220458984375,-2.0747523307800293,-6.488534927368164,-8.49592399597168
1782778839029200000,2.064199951171875,-1.256319522857666,-6.2416534423828125,-8.348278045654297
1782778839039209700,2.074209716796875,-0.18271636962890625,-6.040550708770752,-8.015045166015625
1782778839049219300,2.08421923828125,0.7694950103759766,-5.622288227081299,-7.532879829406738
1782778839059198700,2.09419873046875,1.2909023761749268,-5.521938800811768,-7.291326999664307
1782778839069208300,2.104208251953125,1.4358153343200684,-5.670815467834473,-7.4025678634643555
1782778839079218200,2.11421826171875,1.8194055557250977,-5.946793079376221,-7.895262241363525
1782778839089197300,2.124197265625,2.730203866958618,-6.130089282989502,-8.128247261047363
1782778839099207200,2.134207275390625,4.014228820800781,-6.455522537231445,-8.409261703491211
1782778839109217000,2.144217041015625,5.034415245056152,-6.601811408996582,-8.586836814880371
1782778839119196200,2.154196044921875,5.458847999572754,-6.465638160705566,-8.107481002807617
1782778839129206000,2.1642060546875,5.6427836418151855,-6.3109636306762695,-7.534442901611328
1782778839139215600,2.174215576171875,5.4322357177734375,-6.197953224182129,-7.162687301635742
1782778839149195000,2.184195068359375,4.492378234863281,-6.032207012176514,-6.690615653991699
1782778839159204900,2.194204833984375,3.809448003768921,-5.798737525939941,-6.334006309509277
1782778839168777700,2.20377783203125,2.9849820137023926,-5.519087314605713,-6.059218406677246
1782778839179224300,2.214224365234375,2.1211371421813965,-5.224865913391113,-5.781275749206543
1782778839189203700,2.22420361328125,1.358116865158081,-5.020155906677246,-5.5906171798706055
1782778839199213300,2.23421337890625,1.2896349430084229,-5.140735149383545,-5.814962387084961
1782778839209223200,2.24422314453125,2.000844717025757,-5.253439903259277,-5.928744792938232
1782778839219202300,2.254202392578125,2.8926403522491455,-5.5226945877075195,-6.455350399017334
1782778839229212000,2.2642119140625,3.8236148357391357,-5.755765914916992,-6.578249454498291
1782778839239221800,2.2742216796875,4.790465831756592,-5.879838943481445,-6.269702911376953
1782778839249096700,2.2840966796875,5.546747207641602,-5.630613803863525,-5.460592269897461
1782778839259210800,2.294210693359375,5.224705219268799,-5.326418399810791,-4.26914119720459
1782778839269220600,2.304220703125,5.25881290435791,-5.259552001953125,-3.6885125637054443
1782778839279200000,2.314199951171875,7.065000057220459,-5.647521018981934,-4.501345634460449
1782778839289209900,2.3242099609375,10.065572738647461,-6.436069488525391,-5.74548864364624
1782778839299219500,2.334219482421875,13.77261734008789,-6.754856109619141,-6.7729716300964355
1782778839309198600,2.344198486328125,17.712995529174805,-6.271509647369385,-6.636129379272461
1782778839319208200,2.354208251953125,20.722900390625,-4.977128505706787,-6.189253330230713
1782778839329218000,2.364218017578125,22.373693466186523,-3.1433141231536865,-6.028338432312012
1782778839339197400,2.374197509765625,21.66391944885254,-2.6675617694854736,-4.962008476257324
1782778839349207300,2.384207275390625,21.677810668945312,-2.8549890518188477,-3.0795705318450928
1782778839359217000,2.394216796875,25.840282440185547,-2.8823585510253906,-2.8071115016937256
1782778839369196300,2.4041962890625,31.869470596313477,-4.8387932777404785,-3.1178717613220215
1782778839379206100,2.4142060546875,37.937068939208984,-6.717600345611572,-2.808136224746704
1782778839399195000,2.43419482421875,47.48686599731445,-8.355555534362793,-1.4223761558532715
1782778839409204700,2.444204833984375,50.251182556152344,-9.361924171447754,-0.5743961334228516
1782778839419214300,2.45421435546875,51.26247787475586,-9.489355087280273,-0.25680971145629883
1782778839429224200,2.46422412109375,48.778541564941406,-8.257990837097168,0.48149633407592773
1782778839439203600,2.47420361328125,42.76231002807617,-6.259385108947754,1.531193733215332
1782778839449213200,2.484213134765625,36.10322189331055,-4.0236005783081055,1.9514145851135254
1782778839459223000,2.49422314453125,30.791696548461914,-1.8959112167358398,2.0552845001220703
1782778839469202400,2.504202392578125,26.64759635925293,-0.14284420013427734,2.0852580070495605
1782778839479212000,2.5142119140625,23.20975112915039,1.1335558891296387,1.3865361213684082
1782778839489222000,2.524221923828125,20.460220336914062,1.4679417610168457,-0.41086721420288086
1782778839499201000,2.534200927734375,17.830236434936523,1.2027578353881836,-2.228667736053467
1782778839509210600,2.544210693359375,15.73863410949707,0.5622024536132812,-3.2552599906921387
1782778839519220500,2.554220458984375,13.86402702331543,-0.07359933853149414,-3.4532127380371094
1782778839529199900,2.564199951171875,12.798059463500977,-0.9418754577636719,-3.497710943222046
1782778839539209500,2.57420947265625,12.851371765136719,-2.0926623344421387,-4.191282272338867
1782778839549219300,2.58421923828125,13.746604919433594,-3.4353315830230713,-5.049188137054443
1782778839559198700,2.59419873046875,14.374921798706055,-4.407845497131348,-5.781160354614258
1782778839569208300,2.604208251953125,14.341005325317383,-5.032703399658203,-6.037944793701172
1782778839579218200,2.61421826171875,13.054941177368164,-5.502876281738281,-6.326602935791016
1782778839589197300,2.624197265625,10.312108993530273,-6.131620407104492,-6.737425804138184
1782778839599207200,2.634207275390625,7.494155406951904,-6.4304680824279785,-7.178040504455566
1782778839609217000,2.644217041015625,4.7084126472473145,-6.528090476989746,-7.213367462158203
1782778839619196200,2.654196044921875,2.8129308223724365,-6.300250053405762,-7.104241847991943
1782778839629205800,2.664205810546875,1.4441683292388916,-5.998037338256836,-6.986036777496338
1782778839639215600,2.674215576171875,0.9283812046051025,-5.850429058074951,-7.147915363311768
1782778839649195000,2.684195068359375,0.7288384437561035,-5.763035297393799,-6.815439701080322
1782778839659204900,2.694204833984375,0.7378220558166504,-5.825821399688721,-6.957625865936279
1782778839669214500,2.70421435546875,1.2057275772094727,-5.756307601928711,-7.372434616088867
1782778839679224300,2.714224365234375,2.0154569149017334,-5.748995780944824,-7.389537811279297
1782778839689203700,2.72420361328125,2.5988082885742188,-5.547959804534912,-7.136120319366455
1782778839699274200,2.734274169921875,2.5562233924865723,-5.258869171142578,-6.602011203765869
1782778839709223000,2.744222900390625,2.131129264831543,-5.104578018188477,-6.447450160980225
1782778839719202300,2.754202392578125,1.4964780807495117,-5.149922847747803,-6.629011154174805
1782778839729212000,2.7642119140625,1.3665893077850342,-5.158227920532227,-6.710699558258057
1782778839739221800,2.7742216796875,1.9506111145019531,-5.309485912322998,-6.867809295654297
1782778839749201200,2.784201171875,2.571241855621338,-5.487807750701904,-7.105073928833008
1782778839759211000,2.7942109375,3.067331314086914,-5.66005277633667,-7.099102973937988
1782778839769220600,2.804220703125,3.387441635131836,-5.748725891113281,-6.952735900878906
1782778839779065000,2.814065185546875,3.6743462085723877,-5.602602481842041,-6.5217695236206055
1782778839789209600,2.824209716796875,3.797213315963745,-5.578474521636963,-6.0714640617370605
1782778839799219500,2.834219482421875,3.7238199710845947,-5.688443660736084,-6.091007709503174
1782778839809473300,2.844473388671875,3.8094027042388916,-5.616120338439941,-6.052083969116211
1782778839819208200,2.854208251953125,4.276331901550293,-5.695162773132324,-6.1251139640808105
1782778839829218000,2.864218017578125,4.700311660766602,-5.637914657592773,-5.925345420837402
1782778839839305700,2.8743056640625,5.03380012512207,-5.456628799438477,-5.66594123840332
1782778839849207000,2.88420703125,5.012380123138428,-5.454821586608887,-5.540395736694336
1782778839859217000,2.894216796875,4.948156356811523,-5.5090508460998535,-5.6213226318359375
1782778839869196300,2.9041962890625,4.943062782287598,-5.636960029602051,-5.652425289154053
1782778839879131100,2.914131103515625,5.114012241363525,-5.776423454284668,-5.9307403564453125
1782778839889185300,2.924185302734375,5.67099666595459,-6.108281135559082,-6.485651969909668
1782778839899195000,2.93419482421875,5.945892333984375,-6.696088790893555,-7.1712327003479
1782778839909204700,2.944204833984375,6.851132392883301,-7.0038161277771,-7.440941333770752
1782778839919214300,2.95421435546875,8.821723937988281,-7.00066614151001,-6.995621681213379
1782778839929224200,2.96422412109375,11.985960006713867,-6.806490898132324,-5.837562084197998
1782778839939203600,2.97420361328125,14.849517822265625,-5.897224426269531,-4.583791732788086
1782778839949213200,2.984213134765625,18.71274185180664,-4.423396110534668,-4.402099609375
1782778839959223000,2.99422314453125,21.77921485900879,-3.0612258911132812,-5.1652092933654785
1782778839969202400,3.004202392578125,24.084190368652344,-2.7480404376983643,-6.2938313484191895
1782778839979212000,3.0142119140625,26.247371673583984,-3.1914238929748535,-6.788344383239746
1782778839989222000,3.024221923828125,28.816207885742188,-3.1844098567962646,-6.721208572387695
1782778839999201000,3.034200927734375,31.568355560302734,-3.4548306465148926,-5.957460880279541
1782778840009210600,3.044210693359375,33.24357604980469,-3.331620931625366,-5.70400857925415
1782778840019220500,3.054220458984375,33.76506042480469,-3.036872386932373,-3.7574164867401123
1782778840039209700,3.074209716796875,36.814701080322266,-2.214190721511841,2.222334384918213
1782778840049219300,3.08421923828125,40.997867584228516,-2.9769091606140137,2.956709861755371
1782778840059198700,3.09419873046875,45.222808837890625,-3.7492282390594482,2.247161865234375
1782778840069208300,3.104208251953125,46.546504974365234,-4.7242584228515625,0.3475031852722168
1782778840079218200,3.11421826171875,44.12850570678711,-5.180213451385498,-1.1034636497497559
1782778840089197300,3.124197265625,40.14885330200195,-4.881263732910156,-0.6705517768859863
1782778840099207200,3.134207275390625,35.910099029541016,-3.961993455886841,0.3419461250305176
1782778840109217000,3.144217041015625,31.988178253173828,-2.9396464824676514,0.7019462585449219
1782778840119196200,3.154196044921875,28.303245544433594,-2.1577062606811523,0.15338659286499023
1782778840129206000,3.1642060546875,24.598196029663086,-1.6911005973815918,-0.5695071220397949
1782778840139215600,3.174215576171875,20.50222396850586,-1.485166072845459,-1.3188910484313965
1782778840149195000,3.184195068359375,17.015342712402344,-1.5611763000488281,-1.746467113494873
1782778840159204900,3.194204833984375,14.094891548156738,-2.135934829711914,-2.0423660278320312
1782778840169214500,3.20421435546875,11.988280296325684,-2.9242870807647705,-2.9085323810577393
1782778840179224300,3.214224365234375,10.762809753417969,-3.5350422859191895,-3.288831949234009
1782778840189203700,3.22420361328125,11.529501914978027,-4.531816482543945,-4.441256523132324
1782778840199213300,3.23421337890625,12.563769340515137,-5.428647041320801,-5.483493328094482
1782778840209223200,3.24422314453125,11.99052619934082,-5.879308223724365,-6.455312252044678
1782778840219202300,3.254202392578125,10.427653312683105,-6.204565525054932,-7.017549514770508
1782778840229212000,3.2642119140625,8.26821517944336,-6.2204108238220215,-7.341102600097656
1782778840239221800,3.2742216796875,5.9874653816223145,-6.1736226081848145,-7.938375473022461
1782778840249201200,3.284201171875,4.599897861480713,-5.855968952178955,-8.004801750183105
1782778840259210800,3.294210693359375,3.275151252746582,-5.308639049530029,-7.453108787536621
1782778840269220600,3.304220703125,2.11965012550354,-4.875149726867676,-6.992660045623779
1782778840279200000,3.314199951171875,0.960235595703125,-4.454051494598389,-6.419483661651611
1782778840289209900,3.3242099609375,0.27786684036254883,-4.144484996795654,-6.472135543823242
1782778840299219500,3.334219482421875,-0.11646890640258789,-4.320456504821777,-6.778718948364258
1782778840309198600,3.344198486328125,-0.4464144706726074,-4.55652379989624,-7.499228477478027
1782778840319208200,3.354208251953125,-0.40833234786987305,-4.9909892082214355,-8.157569885253906
1782778840329218000,3.364218017578125,-0.13159990310668945,-5.180044174194336,-8.532124519348145
1782778840339197400,3.374197509765625,0.2698636054992676,-5.211050510406494,-8.220641136169434
1782778840349207300,3.384207275390625,1.1391997337341309,-5.259853839874268,-7.846315383911133
1782778840359217000,3.394216796875,1.8998024463653564,-5.467337131500244,-7.845407962799072
1782778840369196300,3.4041962890625,2.564079761505127,-5.691738128662109,-7.730019569396973
1782778840379206100,3.4142060546875,3.1104636192321777,-5.834356784820557,-7.431179046630859
1782778840389215700,3.4242158203125,3.5261545181274414,-5.96064567565918,-6.870105743408203
1782778840399195000,3.43419482421875,3.8518869876861572,-5.971622467041016,-6.5551371574401855
1782778840409100300,3.444100341796875,4.026089668273926,-6.179779529571533,-6.556308746337891
1782778840419214300,3.45421435546875,4.332873344421387,-6.411443710327148,-6.544793605804443
1782778840429224200,3.46422412109375,4.633944511413574,-6.503902435302734,-6.562719345092773
1782778840438767000,3.47376708984375,4.755483627319336,-6.624048709869385,-6.471092224121094
1782778840449213200,3.484213134765625,4.982907772064209,-6.703252792358398,-6.221189498901367
1782778840459332000,3.49433203125,5.140021800994873,-6.836272239685059,-6.289669036865234
1782778840469202400,3.504202392578125,5.206564903259277,-6.883661270141602,-6.165687084197998
1782778840479212000,3.5142119140625,5.083436012268066,-7.026142120361328,-6.0332536697387695
1782778840489331000,3.5243310546875,4.996735095977783,-6.980745315551758,-5.757491111755371
1782778840499201000,3.534200927734375,5.100612640380859,-6.966641426086426,-5.190258026123047
1782778840509210600,3.544210693359375,5.338339328765869,-7.019233703613281,-5.209723472595215
1782778840519055400,3.554055419921875,5.623264312744141,-7.256644248962402,-5.61830997467041
1782778840529199900,3.564199951171875,6.792868614196777,-7.526576995849609,-6.308084964752197
1782778840539209500,3.57420947265625,8.581521987915039,-7.576472282409668,-6.188265800476074
1782778840549219300,3.58421923828125,9.709936141967773,-7.162315368652344,-5.827920913696289
1782778840559198700,3.59419873046875,11.251686096191406,-6.198188781738281,-4.994143486022949
1782778840569208300,3.604208251953125,13.032021522521973,-5.097995758056641,-4.098898410797119
1782778840579218200,3.61421826171875,16.34576988220215,-3.986893653869629,-4.998034954071045
1782778840589197300,3.624197265625,19.977108001708984,-2.5362720489501953,-5.747544765472412
1782778840599207200,3.634207275390625,21.841476440429688,-1.936556339263916,-4.267741680145264
1782778840609217000,3.644217041015625,23.26744270324707,-0.796628475189209,-3.353879928588867
1782778840619196200,3.654196044921875,24.506582260131836,-1.056492805480957,-2.1434249877929688
1782778840629205800,3.664205810546875,27.27791976928711,-3.4290432929992676,-0.733980655670166
1782778840639215600,3.674215576171875,32.733184814453125,-4.433387279510498,0.9992432594299316
1782778840649195000,3.684195068359375,39.61476135253906,-4.9773383140563965,4.765367031097412
1782778840659204900,3.694204833984375,47.78031539916992,-6.316651344299316,6.477479934692383
1782778840679224300,3.714224365234375,57.48270034790039,-9.092811584472656,-0.4144611358642578
1782778840689203700,3.72420361328125,50.8616828918457,-7.8905816078186035,-0.816187858581543
1782778840699213300,3.73421337890625,41.38125991821289,-5.349985122680664,1.38527250289917
1782778840709223000,3.744222900390625,33.505123138427734,-3.0997560024261475,2.7039852142333984
1782778840719202300,3.754202392578125,28.31501579284668,-1.2898030281066895,3.6279354095458984
1782778840729212000,3.7642119140625,25.880210876464844,-0.30654430389404297,3.1085362434387207
1782778840739221800,3.7742216796875,24.041751861572266,-0.20261764526367188,1.4882869720458984
1782778840749201200,3.784201171875,21.81617546081543,-0.633753776550293,-0.48171472549438477
1782778840759210800,3.794210693359375,19.360549926757812,-1.4267783164978027,-2.1834635734558105
1782778840769220600,3.804220703125,16.320964813232422,-2.2856383323669434,-3.4052793979644775
1782778840779200000,3.814199951171875,14.432008743286133,-3.02065372467041,-4.058375835418701
1782778840789209600,3.824209716796875,13.677180290222168,-4.081839084625244,-4.9846086502075195
1782778840799219500,3.834219482421875,13.401105880737305,-5.021669864654541,-5.724604606628418
1782778840809198600,3.844198486328125,12.791773796081543,-5.543336868286133,-6.130065441131592
1782778840819208200,3.854208251953125,11.685514450073242,-6.12268590927124,-6.3043084144592285
1782778840829218000,3.864218017578125,10.585091590881348,-6.337597846984863,-6.147227764129639
1782778840839197400,3.874197509765625,9.006887435913086,-6.563365459442139,-6.114321231842041
1782778840849207000,3.88420703125,7.700005531311035,-6.36318302154541,-5.76304817199707
1782778840859217000,3.894216796875,6.5413360595703125,-6.454489231109619,-6.0053863525390625
1782778840869196300,3.9041962890625,5.807037353515625,-6.496089935302734,-6.586209774017334
1782778840879324200,3.91432421875,5.406125068664551,-6.442411422729492,-6.906052589416504
1782778840889215700,3.9242158203125,4.652753829956055,-6.516122817993164,-7.333733081817627
1782778840899195000,3.93419482421875,3.5865845680236816,-6.2279205322265625,-7.434850692749023
1782778840909204700,3.944204833984375,2.4014317989349365,-6.1591796875,-6.6871747970581055
1782778840919214300,3.95421435546875,1.3190102577209473,-6.257258892059326,-6.834187984466553
1782778840929224200,3.96422412109375,0.5149650573730469,-6.330657958984375,-7.707190990447998
1782778840939203600,3.97420361328125,-0.09306859970092773,-6.3680925369262695,-7.494297027587891
1782778840949213200,3.984213134765625,-0.2925739288330078,-6.417460918426514,-6.997265815734863
1782778840959223000,3.99422314453125,0.13295745849609375,-6.599357604980469,-7.182132720947266
1782778840969202400,4.004202392578125,1.0323634147644043,-6.859946250915527,-7.558084487915039
1782778840979212000,4.0142119140625,2.289128541946411,-7.265458583831787,-7.692087173461914
1782778840989222000,4.024221923828125,3.4129858016967773,-7.631617546081543,-7.7851057052612305
1782778840999201000,4.034200927734375,4.364773750305176,-7.893683433532715,-7.729540824890137
1782778841009210600,4.044210693359375,5.382870674133301,-7.848353862762451,-7.238266944885254
1782778841019220500,4.054220458984375,6.28283166885376,-7.6408185958862305,-6.5289788246154785
1782778841029200000,4.064199951171875,6.881031036376953,-7.612429141998291,-6.07199239730835
1782778841039209700,4.074209716796875,6.985008239746094,-7.578432559967041,-5.976762294769287
1782778841049219300,4.08421923828125,6.428394794464111,-7.448812484741211,-5.61887788772583
1782778841059198700,4.09419873046875,5.702280521392822,-7.281745910644531,-5.24839973449707
1782778841069208300,4.104208251953125,5.27763557434082,-7.179330825805664,-5.085632801055908
1782778841079218200,4.11421826171875,4.818007946014404,-7.213761806488037,-5.251680850982666
1782778841089319700,4.124319580078125,4.789965629577637,-7.302306175231934,-5.579976558685303
1782778841099207200,4.134207275390625,5.126343250274658,-7.299198627471924,-5.770992755889893
1782778841109217000,4.144217041015625,5.629203796386719,-7.303428649902344,-5.8092474937438965
1782778841119196200,4.154196044921875,6.849961757659912,-7.2253499031066895,-6.025932788848877
1782778841129206000,4.1642060546875,8.420361518859863,-7.078855514526367,-6.002388000488281
1782778841139215600,4.174215576171875,9.024402618408203,-6.942843437194824,-5.325092792510986
1782778841149195000,4.184195068359375,9.652761459350586,-6.3761749267578125,-4.537073612213135
1782778841159204900,4.194204833984375,10.793779373168945,-5.772573471069336,-3.0032525062561035
1782778841169214500,4.20421435546875,13.552789688110352,-6.056622505187988,-2.39530611038208
1782778841179224300,4.214224365234375,18.79849624633789,-6.252434730529785,-2.303663492202759
1782778841189203700,4.22420361328125,26.186586380004883,-5.321706295013428,-1.5294570922851562
1782778841199213300,4.23421337890625,31.174449920654297,-4.058560848236084,0.13102436065673828
1782778841209241000,4.244240966796875,32.17396545410156,-2.928142786026001,1.4766426086425781
1782778841219655000,4.254655029296875,28.556276321411133,-2.2409892082214355,2.5412354469299316
1782778841229230000,4.26422998046875,25.735403060913086,-1.6626815795898438,1.1455259323120117
1782778841239240000,4.274239990234375,24.559795379638672,-1.7031126022338867,0.615450382232666
1782778841249219300,4.28421923828125,25.51941680908203,-1.88209867477417,1.0990257263183594
1782778841259229000,4.29422900390625,28.570087432861328,-1.928781509399414,0.721099853515625
1782778841269238800,4.30423876953125,31.857585906982422,-2.336026668548584,0.06955194473266602
1782778841279218000,4.314218017578125,34.62485122680664,-3.1004092693328857,-0.6809248924255371
1782778841289227800,4.324227783203125,35.58823776245117,-3.5912926197052,-1.7634592056274414
1782778841299237600,4.334237548828125,34.63103103637695,-2.976085662841797,-1.7116680145263672
1782778841309216800,4.344216796875,33.630157470703125,-1.6829829216003418,-0.28962182998657227
1782778841319226400,4.354226318359375,32.71860122680664,-0.2157735824584961,1.1100330352783203
1782778841329236200,4.364236328125,32.319984436035156,0.828404426574707,1.9876084327697754
1782778841339215600,4.374215576171875,31.582138061523438,1.236196517944336,1.5836529731750488
1782778841349225500,4.3842255859375,29.966941833496094,0.8408122062683105,0.34011220932006836
1782778841359235000,4.394235107421875,28.29521369934082,-0.19623136520385742,-1.6292614936828613
1782778841369214500,4.40421435546875,26.39973258972168,-1.4115228652954102,-3.5693795680999756
1782778841379224300,4.414224365234375,23.7229061126709,-2.186316967010498,-4.224091529846191
1782778841389234000,4.42423388671875,20.761735916137695,-2.95304799079895,-4.282011032104492
1782778841399213000,4.434213134765625,18.35862159729004,-3.757500648498535,-4.126980781555176
1782778841409223000,4.444222900390625,16.817214965820312,-4.568225860595703,-3.9918675422668457
1782778841419232500,4.454232421875,15.76534652709961,-5.292281627655029,-4.0778679847717285
1782778841429242400,4.464242431640625,14.150885581970215,-5.841176986694336,-4.138354301452637
1782778841439221800,4.4742216796875,11.679933547973633,-6.045982360839844,-4.03854513168335
1782778841449231400,4.4842314453125,9.152711868286133,-6.085243225097656,-4.042519569396973
1782778841459241200,4.4942412109375,7.018673419952393,-6.203554153442383,-4.2699995040893555
1782778841469160700,4.50416064453125,5.147520542144775,-6.293256759643555,-4.893867492675781
1782778841479291400,4.51429150390625,3.718860387802124,-6.200527191162109,-5.24095344543457
1782778841489180200,4.52418017578125,2.568185329437256,-6.2038116455078125,-6.30279541015625
1782778841499524600,4.534524658203125,1.0688281059265137,-6.852293491363525,-5.352484226226807
1782778841509228800,4.544228759765625,0.30892372131347656,-6.953317642211914,-6.735204696655273
1782778841519238700,4.55423876953125,-0.3144655227661133,-7.203124046325684,-7.755678176879883
1782778841529218000,4.564218017578125,-0.5248575210571289,-7.334911346435547,-7.9310197830200195
1782778841539227600,4.5742275390625,-0.4847712516784668,-7.06712532043457,-8.251189231872559
1782778841549237500,4.584237548828125,-0.7244234085083008,-6.889828681945801,-8.276571273803711
1782778841559217000,4.594216796875,-0.9668989181518555,-6.579897403717041,-7.824308395385742
1782778841569181700,4.604181640625,-0.9368700981140137,-6.550553321838379,-7.613861560821533
1782778841580061400,4.6150615234375,-0.359375,-6.472931385040283,-7.17210054397583
1782778841599165400,4.63416552734375,1.4376740455627441,-6.573154449462891,-6.761649131774902
1782778841609267000,4.644266845703125,2.6109445095062256,-6.779246807098389,-7.316239356994629
1782778841619999000,4.6549990234375,3.0605175495147705,-6.9112548828125,-7.53247594833374
1782778841639233800,4.67423388671875,3.4919979572296143,-6.997580528259277,-7.384441375732422
1782778841649153500,4.684153564453125,3.484773874282837,-6.883056640625,-6.955936431884766
1782778841659314400,4.694314453125,3.368102550506592,-6.72155237197876,-6.414395809173584
1782778841669173000,4.704173095703125,2.855405330657959,-6.611323356628418,-6.131352424621582
1782778841679303400,4.714303466796875,2.359297752380371,-6.414479732513428,-5.5335588455200195
1782778841689221600,4.7242216796875,2.4964139461517334,-6.335684299468994,-5.294889450073242
1782778841699231200,4.734231201171875,3.2428226470947266,-6.215716361999512,-5.007665634155273
1782778841709241000,4.744240966796875,4.484347343444824,-6.319435119628906,-4.747705459594727
1782778841719220500,4.754220458984375,6.43586540222168,-6.6594672203063965,-5.1492414474487305
1782778841729230000,4.76422998046875,7.831299304962158,-7.217450141906738,-5.613015651702881
1782778841739240000,4.774239990234375,9.070570945739746,-7.541413307189941,-5.290309906005859
1782778841749219300,4.78421923828125,10.328166961669922,-7.677623748779297,-4.71428918838501
1782778841759169300,4.794169189453125,11.337003707885742,-7.631610870361328,-3.3287901878356934
1782778841769240300,4.804240234375,12.436612129211426,-7.830945014953613,-2.5668728351593018
1782778841780158200,4.815158203125,17.558094024658203,-7.87595796585083,-1.5093214511871338
1782778841799237600,4.834237548828125,30.223491668701172,-6.9562482833862305,-2.777083396911621
1782778841809216800,4.844216796875,30.98673439025879,-5.763952255249023,-4.573482513427734
1782778841819226400,4.854226318359375,26.304691314697266,-4.363196849822998,-4.662962913513184
1782778841829236200,4.864236328125,21.9256591796875,-3.4411985874176025,-3.795889377593994
1782778841839215600,4.874215576171875,21.450164794921875,-2.1397881507873535,-3.9333701133728027
1782778841849225500,4.8842255859375,24.82717514038086,-1.410871982574463,-3.7521560192108154
1782778841859235000,4.894235107421875,27.944198608398438,-1.3221850395202637,-2.9258205890655518
1782778841879224300,4.914224365234375,32.55481719970703,-0.5812358856201172,2.1967310905456543
1782778841889174000,4.924174072265625,34.64158630371094,-1.054943561553955,3.052337169647217
1782778841899133700,4.9341337890625,37.02526092529297,-1.906571388244629,2.8187355995178223
1782778841909223000,4.944222900390625,36.86722946166992,-2.716036081314087,2.611527919769287
1782778841919232500,4.954232421875,34.90621566772461,-3.4884395599365234,2.804719924926758
1782778841929242400,4.964242431640625,33.053157806396484,-3.797905206680298,2.889860153198242
1782778841939221800,4.9742216796875,32.89271545410156,-3.804211378097534,2.55295991897583
1782778841949231400,4.9842314453125,33.645668029785156,-3.855781316757202,1.22322416305542
1782778841959241200,4.9942412109375,33.44939422607422,-3.705833911895752,-0.3866739273071289
1782778841969220600,5.004220703125,30.881855010986328,-3.1100423336029053,-0.9628958702087402
1782778841979230200,5.014230224609375,26.935287475585938,-2.5592904090881348,-1.636138677597046
1782778841989240000,5.024239990234375,21.963878631591797,-2.030158042907715,-1.8400654792785645
1782778841999219200,5.03421923828125,17.396760940551758,-1.8990960121154785,-1.9756455421447754
1782778842009228800,5.044228759765625,13.766172409057617,-2.25506591796875,-2.3653855323791504
1782778842019238700,5.05423876953125,11.372426986694336,-3.243525505065918,-3.1645352840423584
1782778842029218000,5.064218017578125,10.546936988830566,-4.580921173095703,-4.219476699829102
1782778842039228000,5.074227783203125,10.573017120361328,-5.99597692489624,-5.471686363220215
1782778842049237500,5.084237548828125,10.24161148071289,-6.845019817352295,-6.226930618286133
1782778842059217000,5.094216796875,9.939569473266602,-7.534689903259277,-6.4669880867004395
1782778842069226500,5.1042265625,10.120380401611328,-8.066862106323242,-7.0553107261657715
1782778842079236400,5.114236328125,9.491508483886719,-8.002856254577637,-7.035727500915527
1782778842089215500,5.124215576171875,7.782442092895508,-7.475806713104248,-6.310003280639648
1782778842099225000,5.13422509765625,6.0481696128845215,-6.687219619750977,-5.572291374206543
1782778842109235000,5.14423486328125,4.267495632171631,-5.952651023864746,-4.755223751068115
1782778842119214300,5.15421435546875,3.113955020904541,-5.405570983886719,-4.862105846405029
1782778842129224200,5.16422412109375,2.049337148666382,-5.164687633514404,-3.660949945449829
1782778842139233800,5.17423388671875,0.9433910846710205,-4.801560401916504,-4.104900360107422
1782778842149153500,5.184153564453125,0.17067909240722656,-5.041160583496094,-5.434703826904297
1782778842159314400,5.194314453125,0.08149433135986328,-5.613243103027344,-6.726022720336914
1782778842169232600,5.204232666015625,0.5397186279296875,-6.0701422691345215,-8.19879150390625
1782778842179242500,5.214242431640625,1.0122063159942627,-6.4359965324401855,-8.747941970825195
1782778842189221600,5.2242216796875,1.331315040588379,-6.203820705413818,-8.48843002319336
1782778842199171600,5.234171630859375,1.4305994510650635,-6.091015338897705,-7.793444633483887
1782778842209302000,5.244302001953125,1.7836599349975586,-5.717094421386719,-6.890573978424072
1782778842219220500,5.254220458984375,2.5178120136260986,-5.643789291381836,-6.1499128341674805
1782778842229230000,5.26422998046875,3.417850971221924,-5.7347612380981445,-6.014591693878174
1782778842239484200,5.274484130859375,4.241191864013672,-6.253239631652832,-6.628420829772949
1782778842249219300,5.28421923828125,4.192511558532715,-6.663864612579346,-6.969948768615723
1782778842259229000,5.29422900390625,3.7700917720794678,-7.0484795570373535,-7.194910049438477
1782778842269238800,5.30423876953125,3.8160505294799805,-7.060866832733154,-6.965487003326416
1782778842279327200,5.3143271484375,4.55246639251709,-7.090075492858887,-6.471416473388672
1782778842289227800,5.324227783203125,5.461470603942871,-7.04339075088501,-6.346799850463867
1782778842299237600,5.334237548828125,6.2806806564331055,-6.917504787445068,-6.303528308868408
1782778842309216800,5.344216796875,6.760348796844482,-6.882321357727051,-6.209105968475342
1782778842319226400,5.354226318359375,6.254592418670654,-6.696937561035156,-5.7629265785217285
1782778842329236200,5.364236328125,5.702341556549072,-6.6028265953063965,-5.597794055938721
1782778842339215600,5.374215576171875,5.752288341522217,-6.722905158996582,-5.909538269042969
1782778842349225200,5.38422509765625,6.102983474731445,-6.979188919067383,-6.012173652648926
1782778842359235000,5.394235107421875,7.085372447967529,-7.3110222816467285,-6.374067306518555
1782778842369214500,5.40421435546875,8.237700462341309,-7.584732532501221,-6.547258377075195
1782778842379224000,5.41422412109375,9.682700157165527,-8.060023307800293,-6.231695175170898
1782778842389234000,5.42423388671875,11.634663581848145,-8.224651336669922,-5.610976696014404
1782778842399213300,5.43421337890625,13.942498207092285,-7.786757946014404,-4.711122512817383
1782778842409223000,5.444222900390625,17.339136123657227,-6.817758083343506,-4.389650344848633
1782778842419640800,5.454640869140625,21.047468185424805,-5.245467662811279,-5.218287944793701
1782778842439221800,5.4742216796875,25.6496524810791,-2.1970973014831543,-8.246977806091309
1782778842449231400,5.4842314453125,23.893342971801758,-2.176060199737549,-5.883728504180908
1782778842459241200,5.4942412109375,22.845430374145508,-0.05223989486694336,-5.999721050262451
1782778842469220600,5.504220703125,23.666492462158203,-0.9060893058776855,-3.9235174655914307
1782778842479170300,5.51417041015625,25.250303268432617,-2.382493495941162,-2.4735934734344482
1782778842489210600,5.524210693359375,26.986316680908203,-2.631511926651001,-1.9643363952636719
1782778842501628000,5.5366279296875,31.881877899169922,-3.1473491191864014,-0.8097977638244629
1782778842519299600,5.554299560546875,37.72749710083008,-4.8370585441589355,-2.795116424560547
1782778842529218000,5.564218017578125,38.31187057495117,-5.605447292327881,-4.33712100982666
1782778842539228000,5.574227783203125,37.968528747558594,-5.7105302810668945,-4.648841857910156
1782778842549237500,5.584237548828125,37.14381790161133,-4.610357761383057,-3.962049722671509
1782778842559217000,5.594216796875,36.0107307434082,-3.2100987434387207,-3.6655240058898926
1782778842569226500,5.6042265625,33.676856994628906,-1.842543601989746,-3.4143316745758057
1782778842579236400,5.614236328125,31.40687370300293,-0.872276782989502,-3.188676357269287
1782778842589215500,5.624215576171875,28.828845977783203,-0.4307856559753418,-3.8765556812286377
1782778842599225300,5.634225341796875,25.39179801940918,-0.4201540946960449,-4.580530166625977
1782778842609235000,5.64423486328125,22.31562614440918,-1.0015411376953125,-5.354832649230957
1782778842619214300,5.65421435546875,19.667251586914062,-1.9188833236694336,-6.365694046020508
1782778842629224200,5.66422412109375,17.306411743164062,-2.9770190715789795,-6.848562240600586
1782778842639233800,5.67423388671875,15.220329284667969,-4.119269847869873,-7.43516206741333
1782778842649213200,5.684213134765625,13.01296615600586,-4.985128879547119,-7.281300067901611
1782778842659223000,5.69422314453125,11.805107116699219,-5.404721260070801,-6.526994705200195
1782778842669232600,5.704232666015625,11.387678146362305,-5.7316741943359375,-5.440715789794922
1782778842679242200,5.7142421875,11.041831970214844,-5.951539039611816,-5.0852837562561035
1782778842689221600,5.7242216796875,10.485367774963379,-6.097776889801025,-5.252989768981934
1782778842699231200,5.734231201171875,8.874574661254883,-6.267386436462402,-5.777172088623047
1782778842709241000,5.744240966796875,6.97749137878418,-6.052017688751221,-5.6946868896484375
1782778842719220500,5.754220458984375,5.387784957885742,-5.7703046798706055,-5.238137245178223
1782778842729230000,5.76422998046875,3.7972750663757324,-5.55792760848999,-5.24989128112793
1782778842739240000,5.774239990234375,2.3473572731018066,-5.524118900299072,-5.6104350090026855
1782778842749219300,5.78421923828125,1.0336358547210693,-5.464077472686768,-5.970420837402344
1782778842759169300,5.794169189453125,0.12334918975830078,-5.544023513793945,-6.758848667144775
1782778842769300000,5.804300048828125,-0.7303152084350586,-5.891032695770264,-7.6210126876831055
1782778842779218000,5.814218017578125,-1.552687644958496,-5.993432998657227,-8.288305282592773
1782778842789167900,5.82416796875,-2.125666618347168,-6.17728853225708,-8.773560523986816
1782778842799239000,5.834239013671875,-2.0556516647338867,-6.256442546844482,-8.61349105834961
1782778842809308200,5.84430810546875,-1.5024223327636719,-6.32523775100708,-8.187070846557617
1782778842819226400,5.854226318359375,-0.5894126892089844,-6.366835117340088,-7.71845817565918
1782778842829236200,5.864236328125,0.4456954002380371,-6.540019512176514,-7.3449554443359375
1782778842839215600,5.874215576171875,1.2241714000701904,-6.8242878913879395,-7.0287909507751465
1782778842849225500,5.8842255859375,2.455327033996582,-7.1592607498168945,-6.889989852905273
1782778842859175400,5.894175537109375,3.7404537200927734,-7.375565052032471,-6.622751712799072
1782778842869305900,5.904305908203125,4.385404109954834,-7.57131290435791,-6.520698547363281
1782778842879407400,5.914407470703125,4.1625494956970215,-7.596877098083496,-6.296346187591553
1782778842889342000,5.924342041015625,3.3579726219177246,-7.4257988929748535,-5.803121566772461
1782778842899213000,5.934213134765625,2.9326071739196777,-7.397116184234619,-5.640822887420654
1782778842909223000,5.944222900390625,3.3196239471435547,-7.481389045715332,-5.810300827026367
1782778842919341800,5.954341796875,3.9267020225524902,-7.201318264007568,-5.468778610229492
1782778842929212000,5.9642119140625,4.218844890594482,-7.052676677703857,-5.133439064025879
1782778842939221800,5.9742216796875,4.1067681312561035,-6.926374435424805,-5.222794055938721
1782778842949231400,5.9842314453125,3.810823440551758,-6.8711981773376465,-5.601714134216309
1782778842958953700,5.99395361328125,3.798236846923828,-7.008591651916504,-5.900163650512695
1782778842969220600,6.004220703125,4.386557102203369,-7.263491153717041,-6.203101634979248
1782778842979230500,6.01423046875,5.055306911468506,-7.427663326263428,-6.184564113616943
1782778842989240000,6.024239990234375,6.309326171875,-7.372922897338867,-5.852572441101074
1782778842999219200,6.03421923828125,8.242892265319824,-7.3198089599609375,-5.298183441162109
1782778843009228800,6.044228759765625,10.60629653930664,-7.440207481384277,-5.399493217468262
1782778843019238700,6.05423876953125,12.875898361206055,-7.152422904968262,-5.8542680740356445
1782778843029218000,6.064218017578125,14.843710899353027,-6.439878940582275,-6.15536642074585
1782778843039228000,6.074227783203125,16.29160499572754,-4.696375846862793,-6.364104270935059
1782778843049237500,6.084237548828125,17.559799194335938,-2.4622721672058105,-6.07630729675293
1782778843059217000,6.094216796875,17.590482711791992,-1.3715124130249023,-5.4539642333984375
1782778843079236400,6.114236328125,20.818662643432617,-0.23029470443725586,-5.677219390869141
1782778843089215500,6.124215576171875,27.814117431640625,-2.4748852252960205,-4.766303062438965
1782778843099225300,6.134225341796875,34.9777717590332,-3.2242462635040283,-3.658059597015381
1782778843109235000,6.14423486328125,40.32574462890625,-3.41459321975708,-2.1832804679870605
1782778843119214300,6.15421435546875,43.969810485839844,-3.8724870681762695,-0.6277356147766113
1782778843129224200,6.16422412109375,46.210601806640625,-4.098482131958008,1.7934260368347168
1782778843139233800,6.17423388671875,47.6964225769043,-3.9069643020629883,3.052049160003662
1782778843149213200,6.184213134765625,47.41243362426758,-4.091294765472412,2.5288023948669434
1782778843159223000,6.19422314453125,46.083831787109375,-4.011198997497559,1.0467791557312012
1782778843169232600,6.204232666015625,43.74898147583008,-3.441338300704956,-0.03590536117553711
1782778843179242500,6.214242431640625,39.95915603637695,-2.2487411499023438,-0.4507722854614258
1782778843189162000,6.224161865234375,35.057518005371094,-0.8218164443969727,-0.25840330123901367
1782778843199292400,6.23429248046875,28.923097610473633,0.5271720886230469,-0.4413108825683594
1782778843209241000,6.244240966796875,23.377151489257812,1.1457037925720215,-0.7181258201599121
1782778843219220500,6.254220458984375,18.620311737060547,0.9881739616394043,-1.603424072265625
1782778843229230000,6.26422998046875,15.290484428405762,0.1491103172302246,-2.9497673511505127
1782778843239240000,6.274239990234375,13.941448211669922,-1.249436855316162,-4.495450496673584
1782778843249219300,6.28421923828125,15.561887741088867,-3.2662084102630615,-6.2353010177612305
1782778843259229000,6.29422900390625,17.18119239807129,-4.849897384643555,-6.245067596435547
1782778843269238800,6.30423876953125,17.548809051513672,-5.625697135925293,-5.286608695983887
1782778843279218200,6.31421826171875,15.903478622436523,-6.509099006652832,-5.132215976715088
1782778843289227800,6.324227783203125,12.941258430480957,-6.8226494789123535,-5.094412326812744
1782778843299237600,6.334237548828125,9.518888473510742,-6.589828014373779,-4.51027250289917
1782778843309216800,6.344216796875,6.387833595275879,-6.3729634284973145,-4.353723526000977
1782778843319226400,6.354226318359375,4.063875198364258,-6.551697254180908,-5.312525749206543
1782778843329236200,6.364236328125,2.5560872554779053,-6.720821857452393,-6.228422164916992
1782778843339215600,6.374215576171875,1.9102001190185547,-6.8932905197143555,-7.4123215675354
1782778843349225500,6.3842255859375,1.363016128540039,-7.0058369636535645,-8.94612979888916
1782778843359235000,6.394235107421875,0.7671880722045898,-6.961850166320801,-8.984006881713867
1782778843369214500,6.40421435546875,0.36614370346069336,-6.545852184295654,-9.577856063842773
1782778843379224300,6.414224365234375,-0.033350467681884766,-6.066368103027344,-9.418126106262207
1782778843389234000,6.42423388671875,-0.33574485778808594,-5.556460380554199,-8.858890533447266
1782778843399213000,6.434213134765625,-0.7218637466430664,-5.111353874206543,-8.577747344970703
1782778843409223000,6.444222900390625,-1.04542875289917,-4.795833110809326,-8.279031753540039
1782778843419232500,6.454232421875,-0.7101330757141113,-4.618589401245117,-7.745200157165527
1782778843429242400,6.464242431640625,0.19951963424682617,-4.5394487380981445,-7.160024642944336
1782778843439221800,6.4742216796875,1.18082594871521,-4.808666229248047,-7.278477191925049
1782778843449231400,6.4842314453125,2.0439300537109375,-5.145084857940674,-7.677786350250244
1782778843459241200,6.4942412109375,2.762389659881592,-5.5763421058654785,-7.990435600280762
1782778843469220600,6.504220703125,3.2670154571533203,-5.9210686683654785,-7.857858657836914
1782778843479230200,6.514230224609375,3.6923651695251465,-6.245364665985107,-7.86348819732666
1782778843488921900,6.523921875,3.997035264968872,-6.304292678833008,-7.741934776306152
1782778843499219200,6.53421923828125,4.240170478820801,-6.169586181640625,-6.928287029266357
1782778843509228800,6.544228759765625,4.526225566864014,-5.949796676635742,-6.308385848999023
1782778843519330300,6.554330322265625,4.557893753051758,-5.765509128570557,-5.899813652038574
1782778843529327400,6.564327392578125,4.685297966003418,-5.60404634475708,-5.7783894538879395
1782778843539227600,6.5742275390625,4.788645267486572,-5.768838405609131,-5.955533504486084
1782778843549237500,6.584237548828125,5.021840572357178,-6.216743469238281,-6.6258544921875
1782778843559325700,6.59432568359375,5.682249546051025,-6.433061599731445,-6.803636074066162
1782778843569226500,6.6042265625,6.654314994812012,-6.547333240509033,-6.5644307136535645
1782778843579236400,6.614236328125,7.143863677978516,-6.432772636413574,-6.136460781097412
1782778843589215500,6.624215576171875,7.0556182861328125,-6.2265944480896,-5.01107931137085
1782778843599225000,6.63422509765625,7.577594757080078,-6.054894924163818,-3.8700060844421387
1782778843609235000,6.64423486328125,9.016640663146973,-6.162550449371338,-3.7557485103607178
1782778843619367000,6.654366943359375,11.440861701965332,-6.923722267150879,-4.252558708190918
1782778843629224000,6.664223876953125,15.02058219909668,-7.635226249694824,-5.8465495109558105
1782778843639233800,6.67423388671875,18.75692367553711,-7.540468692779541,-7.076455593109131
1782778843649213200,6.684213134765625,22.0157527923584,-6.360265731811523,-7.151974678039551
1782778843659223000,6.69422314453125,24.56871223449707,-4.305059909820557,-6.3743577003479
1782778843669232600,6.704232666015625,24.826562881469727,-2.258699655532837,-4.637511730194092
1782778843679242200,6.7142421875,24.55184555053711,-1.6718883514404297,-3.4109413623809814
1782778843689221600,6.7242216796875,25.939712524414062,-0.6185050010681152,-4.837503433227539
1782778843699231200,6.734231201171875,27.871768951416016,-0.2571077346801758,-5.179778099060059
1782778843719220500,6.754220458984375,29.33987045288086,-1.4371237754821777,-3.9358856678009033
1782778843729230000,6.76422998046875,30.693397521972656,-0.8194432258605957,-1.027493953704834
1782778843739240000,6.774239990234375,33.092063903808594,-1.2326922416687012,1.511566162109375
1782778843749219300,6.78421923828125,36.91558074951172,-2.373206377029419,3.20699405670166
1782778843759229000,6.79422900390625,41.59877395629883,-4.091963291168213,2.872236728668213
1782778843769238800,6.80423876953125,44.62116241455078,-5.486453056335449,0.5921754837036133
1782778843779218200,6.81421826171875,44.630653381347656,-6.069352626800537,-2.2270407676696777
1782778843789227800,6.824227783203125,40.985599517822266,-5.554041862487793,-3.0208489894866943
1782778843799237600,6.834237548828125,35.71232223510742,-4.0033769607543945,-2.822594165802002
1782778843809216800,6.844216796875,30.481945037841797,-2.222315549850464,-2.3242087364196777
1782778843819226400,6.854226318359375,24.692657470703125,-0.7245359420776367,-1.7118206024169922
1782778843829236200,6.864236328125,18.456850051879883,0.1768350601196289,-1.545877456665039
1782778843839215600,6.874215576171875,14.301904678344727,0.014333724975585938,-1.9882574081420898
1782778843849225200,6.88422509765625,12.671197891235352,-1.2442965507507324,-3.280238628387451
1782778843859235000,6.894235107421875,12.751749038696289,-2.8705801963806152,-4.974315643310547
1782778843869214500,6.90421435546875,13.501921653747559,-4.402651786804199,-6.125858306884766
1782778843879224000,6.91422412109375,14.502008438110352,-5.798909664154053,-7.451101303100586
1782778843889234000,6.92423388671875,14.122572898864746,-6.642011642456055,-8.153096199035645
1782778843899213300,6.93421337890625,12.429801940917969,-6.807476997375488,-7.959609031677246
1782778843909223000,6.944222900390625,9.80954360961914,-6.9314985275268555,-7.990561485290527
1782778843919232500,6.954232421875,6.899080276489258,-6.783830642700195,-7.971205711364746
1782778843929242400,6.964242431640625,4.408559322357178,-6.226468563079834,-7.109165191650391
1782778843939221800,6.9742216796875,2.835690975189209,-5.350484371185303,-5.973774433135986
1782778843949231400,6.9842314453125,2.099806070327759,-4.7678070068359375,-5.4301581382751465
1782778843959241200,6.9942412109375,1.6514904499053955,-4.624030590057373,-5.841834545135498
1782778843969220600,7.004220703125,1.508878469467163,-4.843489646911621,-6.827035903930664
1782778843979230200,7.014230224609375,1.766648769378662,-5.060390472412109,-7.532906532287598
1782778843989240000,7.024239990234375,1.6580045223236084,-5.2750043869018555,-7.954153060913086
1782778843999219200,7.03421923828125,0.9327292442321777,-5.419102668762207,-8.16884708404541
1782778844009228800,7.044228759765625,-0.12873172760009766,-5.442905426025391,-8.104506492614746
1782778844019238700,7.05423876953125,-0.7067875862121582,-5.534250736236572,-7.877584934234619
1782778844029218000,7.064218017578125,-0.5809535980224609,-5.669084548950195,-7.54138708114624
1782778844039228000,7.074227783203125,0.5171823501586914,-5.892746448516846,-7.580725193023682
1782778844049237500,7.084237548828125,2.410093069076538,-6.1474833488464355,-7.241782188415527
1782778844059217000,7.094216796875,3.9079864025115967,-6.418850421905518,-7.113963603973389
1782778844069226500,7.1042265625,5.375627517700195,-6.755437850952148,-7.1652727127075195
1782778844079236400,7.114236328125,6.330844879150391,-7.239114761352539,-7.426478385925293
1782778844089215500,7.124215576171875,6.6120076179504395,-7.237076282501221,-7.164445877075195
1782778844099225300,7.134225341796875,6.3689374923706055,-7.029902458190918,-6.170029640197754
1782778844109235000,7.14423486328125,6.128000736236572,-6.65410852432251,-5.479173183441162
1782778844119214300,7.15421435546875,6.014603137969971,-6.256688117980957,-4.7415876388549805
1782778844128845000,7.163844970703125,5.831631660461426,-5.885902404785156,-4.341657638549805
1782778844139233800,7.17423388671875,5.597105979919434,-5.684554576873779,-4.20660400390625
1782778844149365800,7.18436572265625,5.842061996459961,-5.624871730804443,-4.343531131744385
1782778844159223000,7.19422314453125,6.42719030380249,-5.778966426849365,-4.970232009887695
1782778844169232600,7.204232666015625,6.779117584228516,-5.757372856140137,-5.278225898742676
1782778844179242500,7.214242431640625,6.552291393280029,-5.78950309753418,-4.885719299316406
1782778844189221600,7.2242216796875,6.403671741485596,-5.8215413093566895,-4.395365238189697
1782778844199231200,7.234231201171875,7.10111141204834,-5.753070831298828,-3.856980562210083
1782778844209241000,7.244240966796875,8.50705337524414,-5.880556583404541,-3.682858943939209
1782778844219220500,7.254220458984375,10.468635559082031,-6.486238479614258,-4.531278133392334
1782778844229230000,7.26422998046875,12.528488159179688,-7.114086151123047,-5.548705577850342
1782778844239240000,7.274239990234375,14.019923210144043,-7.396556854248047,-5.661983013153076
1782778844249219300,7.28421923828125,15.899353981018066,-7.096526145935059,-5.965439319610596
1782778844259229000,7.29422900390625,18.42626190185547,-5.905582427978516,-6.698187828063965
1782778844279218200,7.31421826171875,20.884775161743164,-3.488818883895874,-7.437349796295166
1782778844289227800,7.324227783203125,21.005783081054688,-2.8149020671844482,-6.6546220779418945
1782778844299237600,7.334237548828125,22.699119567871094,-1.5827956199645996,-6.483893871307373
1782778844309216800,7.344216796875,25.422409057617188,-1.3845949172973633,-5.640865802764893
1782778844319226400,7.354226318359375,27.486722946166992,-1.6017851829528809,-3.451270818710327
1782778844329236200,7.364236328125,30.06650161743164,-1.8204803466796875,-0.5380034446716309
1782778844339215600,7.374215576171875,33.315738677978516,-2.268519163131714,1.0407476425170898
1782778844349225500,7.3842255859375,37.099937438964844,-3.28971791267395,1.2828073501586914
1782778844359235000,7.394235107421875,41.161128997802734,-4.4488630294799805,0.3255910873413086
1782778844369214500,7.40421435546875,43.15048599243164,-5.516631126403809,-0.6811466217041016
1782778844379224300,7.414224365234375,43.56504821777344,-5.441584587097168,-1.3000836372375488
1782778844389234000,7.42423388671875,42.479373931884766,-4.347567081451416,-1.1788921356201172
1782778844399213000,7.434213134765625,38.953758239746094,-1.9474034309387207,0.8190150260925293
1782778844409223000,7.444222900390625,34.39909362792969,-0.17217254638671875,1.9049968719482422
1782778844419232500,7.454232421875,29.8748836517334,1.3144822120666504,1.9872145652770996
1782778844429242400,7.464242431640625,25.44771385192871,1.831139087677002,1.6256389617919922
1782778844439221800,7.4742216796875,21.760875701904297,1.191575050354004,-0.2372584342956543
1782778844449231400,7.4842314453125,19.476531982421875,-0.29191064834594727,-2.8367228507995605
1782778844459241200,7.4942412109375,17.911663055419922,-2.0901241302490234,-4.22548770904541
1782778844469220600,7.504220703125,16.63413429260254,-3.874572515487671,-5.605074882507324
1782778844479230200,7.514230224609375,15.486391067504883,-5.236051082611084,-6.2104949951171875
1782778844489240000,7.524239990234375,14.15059757232666,-6.214656829833984,-6.097209453582764
1782778844499219200,7.53421923828125,12.380170822143555,-6.665010929107666,-5.700320243835449
1782778844509228800,7.544228759765625,10.410625457763672,-7.026427268981934,-5.441316604614258
1782778844519238700,7.55423876953125,8.368585586547852,-7.20125675201416,-5.2337541580200195
1782778844529218000,7.564218017578125,6.568021774291992,-6.9972944259643555,-4.802875995635986
1782778844539228000,7.574227783203125,5.7916178703308105,-6.635303020477295,-4.59549617767334
1782778844549237500,7.584237548828125,5.373432159423828,-6.220551013946533,-4.533119201660156
1782778844559217000,7.594216796875,5.33809232711792,-5.89560604095459,-4.804472923278809
1782778844569226500,7.6042265625,4.635702133178711,-5.557966232299805,-5.126288414001465
1782778844579236400,7.614236328125,2.980520725250244,-5.481004238128662,-5.753317832946777
1782778844589215500,7.624215576171875,0.8763017654418945,-5.559666633605957,-6.519643306732178
1782778844599225300,7.634225341796875,-0.9231815338134766,-5.642704963684082,-7.295378684997559
1782778844609235000,7.64423486328125,-2.2731003761291504,-5.997081279754639,-8.333498001098633
1782778844619214300,7.65421435546875,-2.7338919639587402,-6.158303737640381,-9.077764511108398
1782778844629224200,7.66422412109375,-2.534548759460449,-6.113008499145508,-9.091519355773926
1782778844639233800,7.67423388671875,-2.062994956970215,-6.258045673370361,-8.840932846069336
1782778844649213200,7.684213134765625,-1.4174633026123047,-6.234037399291992,-8.433452606201172
1782778844659223000,7.69422314453125,-0.09734869003295898,-6.308558940887451,-7.746102809906006
1782778844669232600,7.704232666015625,1.588968276977539,-6.434140682220459,-7.2789788246154785
1782778844679242200,7.7142421875,2.8816702365875244,-6.748327732086182,-6.833527088165283
1782778844689221600,7.7242216796875,3.6275596618652344,-6.97877836227417,-6.7020792961120605
1782778844699231200,7.734231201171875,4.045342922210693,-7.062246799468994,-6.397392272949219
1782778844709241000,7.744240966796875,4.144947052001953,-7.158818244934082,-6.2531657218933105
1782778844719329800,7.754329833984375,3.905876636505127,-7.21291446685791,-6.284099102020264
1782778844729170400,7.76417041015625,3.528258800506592,-7.013773441314697,-5.811615943908691
1782778844740360000,7.77535986328125,3.490816116333008,-6.994925498962402,-5.778350830078125
1782778844758911000,7.793910888671875,4.264739513397217,-6.926638126373291,-6.15842342376709
1782778844769208300,7.804208251953125,4.400672435760498,-6.7409749031066895,-6.036135673522949
1782778844779218200,7.81421826171875,4.377034664154053,-6.5241923332214355,-6.1957831382751465
1782778844789227800,7.824227783203125,4.244532585144043,-6.352747917175293,-6.043272495269775
1782778844799237600,7.834237548828125,3.8617188930511475,-6.1456146240234375,-5.663684844970703
1782778844809326000,7.844326171875,3.2666618824005127,-6.281561851501465,-5.35205602645874
1782778844819226600,7.8542265625,3.905731678009033,-6.593988418579102,-5.186962604522705
1782778844829236200,7.864236328125,6.706783294677734,-7.135543346405029,-5.645237922668457
1782778844839215600,7.874215576171875,10.349319458007812,-7.603533744812012,-5.630744457244873
1782778844849225200,7.88422509765625,13.217910766601562,-7.729972839355469,-5.50951623916626
1782778844859235000,7.894235107421875,15.690422058105469,-7.276978015899658,-5.3555145263671875
1782778844869214500,7.90421435546875,18.122037887573242,-5.8141679763793945,-5.488687038421631
1782778844879224000,7.91422412109375,20.2956485748291,-4.246160507202148,-5.296408176422119
1782778844889234000,7.92423388671875,21.32167625427246,-2.9306187629699707,-4.15871524810791
1782778844899213000,7.934213134765625,21.18268585205078,-2.008603572845459,-2.0851893424987793
1782778844919232500,7.954232421875,29.020118713378906,-1.2080445289611816,-3.597809314727783
1782778844929242400,7.964242431640625,33.6634521484375,-2.8610992431640625,-3.8879687786102295
1782778844939221800,7.9742216796875,37.21307373046875,-3.3158607482910156,-1.4364871978759766
1782778844949231400,7.9842314453125,40.719669342041016,-2.6550090312957764,2.6549315452575684
1782778844959241200,7.9942412109375,45.79762268066406,-2.667766809463501,5.734488487243652
1782778844969220600,8.004220703125,49.880157470703125,-3.1557629108428955,6.571788311004639
1782778844979230200,8.014230224609374,49.5589714050293,-4.026252746582031,5.653337001800537
1782778844989240000,8.024239990234374,45.93072509765625,-4.316354274749756,4.313827991485596
1782778844999219200,8.03421923828125,40.412715911865234,-4.066330909729004,2.7242255210876465
1782778845009169200,8.044169189453125,36.003562927246094,-3.489978790283203,2.29245662689209
1782778845019957800,8.054957763671876,31.35751724243164,-2.5522308349609375,1.9917163848876953
1782778845039228000,8.074227783203124,24.71412467956543,-1.499466896057129,-0.49159812927246094
1782778845049237500,8.084237548828124,21.794544219970703,-1.7769513130187988,-2.464244842529297
1782778845059217000,8.094216796875,19.33782958984375,-2.226515769958496,-3.865499496459961
1782778845069166800,8.104166748046875,16.930889129638672,-2.853761911392212,-4.70918083190918
1782778845079237600,8.114237548828125,15.025533676147461,-3.4134676456451416,-5.01617431640625
1782778845089247200,8.124247314453125,13.138428688049316,-4.492340087890625,-5.663271903991699
1782778845100172800,8.1351728515625,12.204740524291992,-5.386235237121582,-6.021402835845947
1782778845119214300,8.15421435546875,13.000131607055664,-6.333705425262451,-5.810340881347656
1782778845129224000,8.164223876953125,13.386016845703125,-6.530266761779785,-5.686944007873535
1782778845139233800,8.17423388671875,12.183682441711426,-6.63927698135376,-5.94636869430542
1782778845149213200,8.184213134765624,10.028706550598145,-6.154669284820557,-5.801771640777588
1782778845159223000,8.19422314453125,8.199170112609863,-5.285040855407715,-4.376862525939941
1782778845169232600,8.204232666015624,5.523672103881836,-4.527970314025879,-3.065639019012451
1782778845179242500,8.214242431640624,3.6087646484375,-4.83482027053833,-3.6256308555603027
1782778845189221600,8.2242216796875,3.0245771408081055,-5.34765100479126,-4.64776611328125
1782778845199231500,8.2342314453125,3.5931591987609863,-6.2713470458984375,-6.47266960144043
1782778845209241000,8.244240966796875,3.1775012016296387,-6.90221643447876,-8.086889266967773
1782778845219220500,8.254220458984374,3.2046337127685547,-7.227969169616699,-8.943275451660156
1782778845229230000,8.26422998046875,2.9431111812591553,-8.042518615722656,-10.676074981689453
