time,seconds_elapsed,z,y,x
1782778911375634700,0.191634765625,3.43503475189209,0.30347228050231934,0.8516876697540283
1782778911386194400,0.2021943359375,0.9912261962890625,-0.3838624060153961,-0.00870370864868164
1782778911396204300,0.212204345703125,-0.8160839080810547,-1.059117317199707,-1.2123303413391113
1782778911406214100,0.222214111328125,-1.6843690872192383,-1.2548234462738037,-1.4636571407318115
1782778911416193300,0.232193359375,-2.2439932823181152,-0.6280995607376099,-0.07945966720581055
1782778911426203100,0.242203125,-2.6081809997558594,-0.09714336693286896,0.6506054401397705
1782778911436213000,0.252212890625,-2.7529497146606445,-0.15284669399261475,-0.36052584648132324
1782778911446192000,0.262192138671875,-2.128704071044922,-0.3628845810890198,-2.006873607635498
1782778911456202000,0.272201904296875,-1.67112398147583,-0.1873960793018341,-2.686782121658325
1782778911466211600,0.282211669921875,-2.0984129905700684,0.1449311077594757,-3.3689329624176025
1782778911476190700,0.292190673828125,-3.484830856323242,0.6150383353233337,-3.4486026763916016
1782778911486200600,0.30220068359375,-5.698148727416992,1.0287184715270996,-3.1227362155914307
1782778911496210400,0.31221044921875,-8.156378746032715,1.2758868932724,-3.7748756408691406
1782778911506189600,0.322189453125,-10.091541290283203,1.3957204818725586,-3.7750325202941895
1782778911516199400,0.332199462890625,-11.136768341064453,1.8012855052947998,-2.597127914428711
1782778911526209300,0.342209228515625,-11.283039093017578,2.1899964809417725,-1.519719123840332
1782778911536188400,0.3521884765625,-11.063926696777344,2.1456665992736816,-1.8672536611557007
1782778911546198300,0.3621982421875,-10.414544105529785,1.6857852935791016,-2.7570056915283203
1782778911556207900,0.372207763671875,-9.66120433807373,1.1713087558746338,-3.826442241668701
1782778911566187300,0.382187255859375,-8.677764892578125,0.651199996471405,-4.363962173461914
1782778911576196900,0.39219677734375,-7.79232931137085,0.3120526671409607,-4.0738067626953125
1782778911586206700,0.402206787109375,-7.253338813781738,0.03799125552177429,-3.5610578060150146
1782778911596186000,0.41218603515625,-6.859871864318848,-0.183282732963562,-3.5319180488586426
1782778911606195700,0.42219580078125,-6.534528732299805,-0.2804516851902008,-3.459171772003174
1782778911616205600,0.43220556640625,-5.121232032775879,-1.6725592613220215,2.9466028213500977
1782778911626185000,0.44218505859375,-5.0570573806762695,-1.1122443675994873,2.7581992149353027
1782778911636194600,0.452194580078125,-5.359299182891846,-0.6355504989624023,2.8243374824523926
1782778911646204400,0.462204345703125,-6.0260910987854,-0.25879013538360596,2.9447038173675537
1782778911656214000,0.472214111328125,-6.565256118774414,-0.16293606162071228,3.184849977493286
1782778911666193400,0.482193359375,-6.828812599182129,-0.23220296204090118,3.1351213455200195
1782778911676203000,0.492203125,-7.088322639465332,-0.09482264518737793,3.3988683223724365
1782778911686212900,0.502212890625,-7.6596574783325195,-0.07694375514984131,3.8392913341522217
1782778911696405800,0.51240576171875,-8.540268898010254,-0.10104816406965256,3.852870225906372
1782778911706311200,0.522311279296875,-9.118739128112793,-0.3624422550201416,3.309399366378784
1782778911716181200,0.53218115234375,-9.668000221252441,-0.4676172733306885,3.1857776641845703
1782778911726190800,0.54219091796875,-10.481049537658691,-0.18901963531970978,3.90197491645813
1782778911736200700,0.55220068359375,-11.089025497436523,-0.3318191170692444,4.555089473724365
1782778911746210600,0.56221044921875,-10.955123901367188,-0.21705138683319092,4.673728942871094
1782778911756189700,0.572189697265625,-9.679262161254883,-0.15652471780776978,5.285183429718018
1782778911766199600,0.582199462890625,-6.926133632659912,-0.5769121050834656,5.593488693237305
1782778911776209200,0.592209228515625,0.42696380615234375,-0.7063999772071838,5.0064520835876465
1782778911786188300,0.602188232421875,4.596593856811523,-0.6698482632637024,5.33065938949585
1782778911796198100,0.6121982421875,8.483495712280273,-0.24986687302589417,3.7809031009674072
1782778911806208000,0.6222080078125,9.946464538574219,0.38688915967941284,1.496589183807373
1782778911816187400,0.6321875,8.391473770141602,1.6957077980041504,0.3673262596130371
1782778911826197000,0.642197021484375,6.16302490234375,2.7345423698425293,1.1539702415466309
1782778911836206800,0.652206787109375,5.244484901428223,3.446746826171875,3.8658998012542725
1782778911846186200,0.662186279296875,8.550710678100586,3.201525926589966,6.238915920257568
1782778911856195800,0.67219580078125,14.802027702331543,1.8173224925994873,8.134797096252441
1782778911876184800,0.692184814453125,26.030529022216797,0.002583742141723633,10.616835594177246
1782778911886194400,0.7021943359375,30.121070861816406,-1.9623340368270874,10.459362983703613
1782778911896204300,0.712204345703125,35.315364837646484,-3.7602896690368652,9.405813217163086
1782778911906214100,0.722214111328125,39.4622688293457,-4.628743648529053,6.851881980895996
1782778911916193300,0.732193359375,37.711219787597656,-3.42024302482605,6.704408168792725
1782778911926203100,0.742203125,29.66845703125,-1.2177283763885498,9.070204734802246
1782778911936213000,0.752212890625,19.694459915161133,1.166471004486084,11.831340789794922
1782778911946192100,0.762192138671875,10.820051193237305,3.4780192375183105,14.285537719726562
1782778911956202000,0.772201904296875,3.936258316040039,4.707431793212891,14.777312278747559
1782778911966211600,0.782211669921875,-0.3540010452270508,4.73143196105957,12.801623344421387
1782778911976190700,0.792190673828125,-2.067626476287842,4.114475727081299,9.951804161071777
1782778911986200600,0.80220068359375,-2.475447654724121,3.065964698791504,7.281800746917725
1782778911996210400,0.81221044921875,-2.5348358154296875,2.2569539546966553,5.576266765594482
1782778912006189600,0.822189453125,-0.023572921752929688,0.6834671497344971,2.736379861831665
1782778912016199400,0.832199462890625,4.385225296020508,-1.0521464347839355,0.5338714122772217
1782778912026209300,0.842209228515625,5.826881408691406,-0.9727357625961304,0.9603536128997803
1782778912036188400,0.8521884765625,4.3502912521362305,-0.683497428894043,2.189948558807373
1782778912046198300,0.8621982421875,0.651127815246582,-0.29174691438674927,3.238551139831543
1782778912056208000,0.872207763671875,-2.846421241760254,-0.07570350170135498,4.413008213043213
1782778912066187300,0.882187255859375,-5.347867012023926,-0.032683372497558594,4.989132404327393
1782778912076196900,0.89219677734375,-7.175164222717285,-0.43396803736686707,4.034517288208008
1782778912086206700,0.902206787109375,-8.529613494873047,-1.0642974376678467,2.1478774547576904
1782778912096186000,0.91218603515625,-8.887534141540527,-1.4247108697891235,0.31325817108154297
1782778912106195700,0.92219580078125,-8.58957576751709,-1.4660413265228271,-0.5962402820587158
1782778912116205600,0.93220556640625,-7.631007671356201,-1.0970295667648315,-0.2708592414855957
1782778912126185000,0.94218505859375,-7.28648567199707,-0.6025845408439636,0.7751421928405762
1782778912136194600,0.952194580078125,-7.190587997436523,-0.07130074501037598,1.9244627952575684
1782778912146204400,0.962204345703125,-7.5865654945373535,0.3955029249191284,2.957918167114258
1782778912156214000,0.972214111328125,-9.05759334564209,0.5410367250442505,3.454343795776367
1782778912166193400,0.982193359375,-10.968992233276367,0.5508332252502441,3.6989927291870117
1782778912176203000,0.992203125,-12.526583671569824,0.40944409370422363,3.6957738399505615
1782778912186212900,1.002212890625,-13.299013137817383,-0.08323216438293457,2.980067491531372
1782778912196192000,1.01219189453125,-13.182229995727539,-0.29729366302490234,3.0255911350250244
1782778912206201900,1.022201904296875,-12.499760627746582,-1.0877524614334106,2.294895648956299
1782778912216211700,1.032211669921875,-11.373821258544922,-1.4364063739776611,1.1959242820739746
1782778912226190800,1.04219091796875,-9.767058372497559,-1.9935240745544434,1.4934542179107666
1782778912236200700,1.05220068359375,-8.31521224975586,-2.122084617614746,1.6624174118041992
1782778912246210600,1.06221044921875,-7.412363529205322,-2.3896496295928955,2.0099399089813232
1782778912256189700,1.072189697265625,-6.994200229644775,-2.376142740249634,2.376241683959961
1782778912266199600,1.082199462890625,-6.608407974243164,-2.3025290966033936,2.8665735721588135
1782778912276209200,1.092209228515625,-6.792945861816406,-2.2285654544830322,3.225815534591675
1782778912286188300,1.102188232421875,-7.634248733520508,-2.0527501106262207,3.445807933807373
1782778912296198100,1.1121982421875,-8.256824493408203,-1.9006128311157227,3.851184606552124
1782778912305920500,1.12192041015625,-8.494349479675293,-1.85857355594635,4.130124092102051
1782778912316187400,1.1321875,-8.9246826171875,-1.9536150693893433,3.7322893142700195
1782778912326197000,1.142197021484375,-9.354711532592773,-2.0976905822753906,3.5920424461364746
1782778912336214800,1.15221484375,-9.074712753295898,-2.144407272338867,3.7329869270324707
1782778912346186200,1.162186279296875,-8.537313461303711,-2.016056537628174,4.453292369842529
1782778912356195800,1.17219580078125,-7.030316352844238,-1.8821061849594116,5.1245880126953125
1782778912366205400,1.182205322265625,-4.399684429168701,-1.7695682048797607,5.7190446853637695
1782778912376184800,1.192184814453125,-1.1206517219543457,-1.7785472869873047,5.929594039916992
1782778912386194400,1.2021943359375,2.540440559387207,-1.7421947717666626,5.913242340087891
1782778912396204300,1.212204345703125,5.9931135177612305,-1.2367279529571533,5.066933631896973
1782778912406214100,1.222214111328125,8.920050621032715,-0.8548945188522339,4.063238143920898
1782778912416193300,1.232193359375,10.636573791503906,0.4493025541305542,2.4217019081115723
1782778912436213000,1.252212890625,6.633384704589844,2.9951705932617188,2.752385139465332
1782778912446192000,1.262192138671875,5.9398393630981445,3.7504615783691406,4.837517261505127
1782778912456202000,1.272201904296875,9.452702522277832,3.4607982635498047,7.368925094604492
1782778912466211600,1.282211669921875,14.902091026306152,1.6151809692382812,9.017648696899414
1782778912476190700,1.292190673828125,22.04571533203125,0.47409677505493164,8.881750106811523
1782778912486200600,1.30220068359375,28.43903350830078,-0.48194384574890137,7.225276470184326
1782778912496210400,1.31221044921875,31.302932739257812,-1.331321120262146,4.875606060028076
1782778912506189600,1.322189453125,29.395305633544922,-1.4040530920028687,4.171548843383789
1782778912516199400,1.332199462890625,24.498004913330078,-0.7312324047088623,5.87031364440918
1782778912526209300,1.342209228515625,20.67423439025879,0.10724020004272461,9.401827812194824
1782778912536188400,1.3521884765625,19.546119689941406,0.10935938358306885,11.93477725982666
1782778912546198300,1.3621982421875,19.240951538085938,-0.7414872646331787,12.563841819763184
1782778912556207900,1.372207763671875,17.19345474243164,-1.7773741483688354,11.062410354614258
1782778912566187300,1.382187255859375,13.638092041015625,-2.293492078781128,8.998910903930664
1782778912576196900,1.39219677734375,10.258504867553711,-2.4631197452545166,6.94975471496582
1782778912586206700,1.402206787109375,7.594805717468262,-2.5500142574310303,5.249861240386963
1782778912596186000,1.41218603515625,5.966131210327148,-2.625336170196533,4.2558207511901855
1782778912606195700,1.42219580078125,3.364238739013672,-2.2533411979675293,4.5905890464782715
1782778912616205600,1.43220556640625,0.22395610809326172,-1.9299635887145996,5.44245719909668
1782778912626185000,1.44218505859375,-2.6587295532226562,-1.7125041484832764,5.890016555786133
1782778912636194600,1.452194580078125,-4.630126953125,-1.5393482446670532,6.215542316436768
1782778912646204400,1.462204345703125,-5.750135898590088,-1.618340015411377,5.675968647003174
1782778912656214000,1.472214111328125,-6.392452239990234,-1.8207377195358276,4.415655612945557
1782778912666193400,1.482193359375,-6.668526649475098,-2.221036195755005,2.976987361907959
1782778912676203000,1.492203125,-6.561563491821289,-2.425475835800171,1.4830254316329956
1782778912686212900,1.502212890625,-5.99359130859375,-2.540947437286377,0.3728523254394531
1782778912696192000,1.51219189453125,-5.00098991394043,-2.4462831020355225,-0.22864651679992676
1782778912706201900,1.522201904296875,-4.228738307952881,-2.065889596939087,0.09704446792602539
1782778912716211700,1.532211669921875,-3.9732117652893066,-1.6037834882736206,0.8598113059997559
1782778912726190800,1.54219091796875,-4.590654373168945,-1.1281474828720093,1.6122920513153076
1782778912736200700,1.55220068359375,-6.699307441711426,-0.7554320693016052,3.0836288928985596
1782778912746210600,1.56221044921875,-9.526019096374512,-0.2103661298751831,4.071506977081299
1782778912756189700,1.572189697265625,-11.772032737731934,0.06630980968475342,4.724029064178467
1782778912766199600,1.582199462890625,-12.665334701538086,0.021219611167907715,4.959758758544922
1782778912776209200,1.592209228515625,-12.884040832519531,-0.1106107234954834,4.370011329650879
1782778912786188300,1.602188232421875,-12.50442886352539,-0.3726879358291626,3.4570841789245605
1782778912796198100,1.6121982421875,-11.648334503173828,-0.6656115055084229,2.586862564086914
1782778912806208000,1.6222080078125,-10.528045654296875,-0.9238904118537903,1.6356782913208008
1782778912816187400,1.6321875,-9.117959022521973,-1.078477382659912,1.2913124561309814
1782778912826197000,1.642197021484375,-7.772515296936035,-1.1289525032043457,1.4052112102508545
1782778912836206800,1.652206787109375,-7.083076000213623,-1.0929615497589111,1.7665870189666748
1782778912846186200,1.662186279296875,-7.413365364074707,-0.9005990624427795,2.3572497367858887
1782778912856195800,1.67219580078125,-8.410823822021484,-0.7344610691070557,2.9481725692749023
1782778912866205400,1.682205322265625,-9.093108177185059,-0.6935734152793884,3.509345531463623
1782778912876184800,1.692184814453125,-9.308931350708008,-0.741734504699707,3.834238052368164
1782778912886302700,1.702302734375,-9.364347457885742,-0.8970721960067749,3.830383539199829
1782778912896204300,1.712204345703125,-9.282986640930176,-1.207577109336853,3.5569446086883545
1782778912906214100,1.722214111328125,-9.459455490112305,-1.395361065864563,3.276042938232422
1782778912916180500,1.732180419921875,-9.672492980957031,-1.439695119857788,3.2448673248291016
1782778912926203100,1.742203125,-9.152073860168457,-1.6901484727859497,3.064906120300293
1782778912936213000,1.752212890625,-8.025609016418457,-1.869452953338623,3.0312628746032715
1782778912946192100,1.762192138671875,-7.36061429977417,-1.8184090852737427,3.8070387840270996
1782778912956202000,1.772201904296875,-6.157744407653809,-1.8835054636001587,4.298248767852783
1782778912966211600,1.782211669921875,-4.420701503753662,-1.8176825046539307,5.132697582244873
1782778912976190700,1.792190673828125,-3.4496893882751465,-1.9811890125274658,5.380128383636475
1782778912986200600,1.80220068359375,-2.4169931411743164,-2.5070595741271973,4.18541145324707
1782778912996210400,1.81221044921875,0.3075695037841797,-2.8049139976501465,3.6635963916778564
1782778913006189600,1.822189453125,3.996432304382324,-2.595193386077881,4.471615791320801
1782778913016199400,1.832199462890625,7.612137794494629,-1.2358009815216064,5.589405059814453
1782778913026209300,1.842209228515625,10.784854888916016,0.2088620662689209,6.104398727416992
1782778913036188400,1.8521884765625,11.197195053100586,0.9256340265274048,4.513893127441406
1782778913046198300,1.8621982421875,9.79745101928711,0.7657607793807983,3.111727714538574
1782778913056208000,1.872207763671875,11.255879402160645,0.8371000289916992,2.1680164337158203
1782778913076196900,1.89219677734375,22.68579864501953,-2.9536538124084473,6.390096664428711
1782778913086206700,1.902206787109375,26.28612518310547,-2.377213716506958,10.429803848266602
1782778913096186000,1.91218603515625,28.402950286865234,-1.3194472789764404,12.582521438598633
1782778913106195700,1.92219580078125,29.182287216186523,-1.0533876419067383,12.125570297241211
1782778913116205600,1.93220556640625,27.67635154724121,-1.1961798667907715,10.658695220947266
1782778913126185000,1.94218505859375,23.60940933227539,-0.9858189225196838,9.935909271240234
1782778913136194600,1.952194580078125,19.071138381958008,-0.5787187814712524,10.08761978149414
1782778913146204400,1.962204345703125,16.82781219482422,-0.07913243770599365,11.080399513244629
1782778913156214000,1.972214111328125,16.53546714782715,-0.13557398319244385,11.739731788635254
1782778913166193400,1.982193359375,14.40602970123291,0.18883609771728516,11.900911331176758
1782778913176203300,1.992203369140625,10.495502471923828,0.337291955947876,10.822606086730957
1782778913186212900,2.002212890625,6.635169982910156,0.24988162517547607,8.91888427734375
1782778913196192000,2.01219189453125,3.2312421798706055,0.04168200492858887,7.418546676635742
1782778913206201900,2.022201904296875,0.6090641021728516,0.02968466281890869,6.788945198059082
1782778913216211700,2.032211669921875,-0.5164308547973633,0.024947404861450195,7.188994407653809
1782778913226190800,2.04219091796875,-1.1001291275024414,-0.40023529529571533,6.654949188232422
1782778913236200700,2.05220068359375,-1.3117432594299316,-1.1016252040863037,5.288233280181885
1782778913246210600,2.06221044921875,-1.4709291458129883,-1.6810362339019775,3.5196847915649414
1782778913256189700,2.072189697265625,-1.7810745239257812,-2.091932535171509,1.8718860149383545
1782778913266199600,2.082199462890625,-1.8052339553833008,-2.311922788619995,0.8154919147491455
1782778913276209200,2.092209228515625,-2.2766928672790527,-2.2138004302978516,0.3617732524871826
1782778913286188300,2.102188232421875,-3.5630922317504883,-2.0133824348449707,0.1976184844970703
1782778913296198100,2.1121982421875,-5.500732421875,-1.60579252243042,0.20055270195007324
1782778913306208000,2.1222080078125,-7.591705799102783,-1.0552321672439575,0.4742109775543213
1782778913316187400,2.1321875,-8.920079231262207,-0.583781898021698,0.624091386795044
1782778913326197000,2.142197021484375,-9.69293212890625,-0.2749484181404114,0.7471022605895996
1782778913336206800,2.152206787109375,-10.31030559539795,-0.02784883975982666,0.7448239326477051
1782778913346186200,2.162186279296875,-11.063193321228027,0.3089470863342285,1.1176530122756958
1782778913356195800,2.17219580078125,-11.670822143554688,0.5658233761787415,1.705715298652649
1782778913366205400,2.182205322265625,-11.743927001953125,0.6752036213874817,2.1979129314422607
1782778913376184800,2.192184814453125,-10.988176345825195,0.6643300652503967,1.9462275505065918
1782778913386194400,2.2021943359375,-9.866661071777344,0.40060245990753174,1.7395105361938477
1782778913396204300,2.212204345703125,-9.443943977355957,0.4734026789665222,1.6925698518753052
1782778913406214100,2.222214111328125,-9.243416786193848,0.3774561882019043,1.647270679473877
1782778913416193300,2.232193359375,-8.88404369354248,0.18516701459884644,1.496618628501892
1782778913426203100,2.242203125,-8.323975563049316,-0.03373843431472778,1.2374343872070312
1782778913436213000,2.252212890625,-7.53914737701416,-0.38162678480148315,1.0094563961029053
1782778913446192000,2.262192138671875,-6.707004070281982,-0.7486757040023804,0.9530489444732666
1782778913456202000,2.272201904296875,-6.062933921813965,-0.8487272262573242,1.1900982856750488
1782778913466211600,2.282211669921875,-5.798771858215332,-0.78940749168396,1.7886857986450195
1782778913476190700,2.292190673828125,-5.817785263061523,-0.8158673048019409,2.2416746616363525
1782778913486200600,2.30220068359375,-5.866329669952393,-0.725260853767395,2.7787861824035645
1782778913496210400,2.31221044921875,-6.458774566650391,-0.5598613619804382,3.3678138256073
1782778913506189600,2.322189453125,-7.0786237716674805,-0.5106508731842041,3.5925052165985107
1782778913516199400,2.332199462890625,-7.174688339233398,-0.7295154333114624,3.359066963195801
1782778913526209300,2.342209228515625,-7.528116226196289,-0.6953409910202026,3.075354814529419
1782778913536188400,2.3521884765625,-8.055758476257324,-0.7650709748268127,3.0184311866760254
1782778913546198300,2.3621982421875,-8.64517593383789,-0.9392934441566467,3.084460496902466
1782778913556207900,2.372207763671875,-9.502971649169922,-1.0218539237976074,3.11796498298645
1782778913565991400,2.381991455078125,-9.663551330566406,-0.8086272478103638,3.891822338104248
1782778913576196900,2.39219677734375,-9.12707233428955,-0.671569287776947,4.413654327392578
1782778913586206700,2.402206787109375,-8.425846099853516,-0.7966403365135193,4.530961990356445
1782778913596186000,2.41218603515625,-6.777427673339844,-1.0116430521011353,4.545055389404297
1782778913606195700,2.42219580078125,-2.6632308959960938,-1.4382014274597168,4.481606960296631
1782778913616205600,2.43220556640625,3.1148223876953125,-1.5237207412719727,5.790640830993652
1782778913626185000,2.44218505859375,10.392047882080078,-1.0022423267364502,6.024872779846191
1782778913636194600,2.452194580078125,13.579824447631836,-0.9055214524269104,5.09287691116333
1782778913646204400,2.462204345703125,12.736417770385742,-0.6410173177719116,3.8518621921539307
1782778913656214000,2.472214111328125,8.771353721618652,0.01938462257385254,3.7451069355010986
1782778913666193400,2.482193359375,3.7742137908935547,0.9922155141830444,4.60707950592041
1782778913676203300,2.492203369140625,5.928668975830078,0.959315299987793,5.920097827911377
1782778913686212900,2.502212890625,14.811881065368652,-1.9655942916870117,6.586035251617432
1782778913696192000,2.51219189453125,25.29014015197754,-3.2943100929260254,7.239798545837402
1782778913716211700,2.532211669921875,33.44137954711914,-1.7495052814483643,8.701334953308105
1782778913726190800,2.54219091796875,30.856952667236328,-2.0843665599823,7.413740158081055
1782778913736200700,2.55220068359375,26.450077056884766,-1.8561053276062012,7.583743095397949
1782778913746210600,2.56221044921875,22.36800765991211,-0.7801758646965027,10.32768440246582
1782778913756129800,2.5721298828125,19.456207275390625,0.4888967275619507,13.359838485717773
1782778913766260500,2.582260498046875,18.162124633789062,1.0016934871673584,14.955354690551758
1782778913776209200,2.592209228515625,17.399921417236328,0.6664503812789917,14.16076374053955
1782778913786188300,2.602188232421875,15.789548873901367,0.8108597993850708,13.166248321533203
1782778913796198100,2.6121982421875,12.91030502319336,1.3582274913787842,12.051175117492676
1782778913806208000,2.6222080078125,9.073077201843262,1.9516003131866455,11.031963348388672
1782778913816187400,2.6321875,4.438150405883789,1.9484590291976929,9.686711311340332
1782778913826197000,2.642197021484375,0.6631183624267578,1.8072857856750488,9.134130477905273
1782778913836206800,2.652206787109375,-1.7964749336242676,1.481042742729187,8.64548110961914
1782778913846186000,2.66218603515625,-2.5182104110717773,0.7259783744812012,7.089930057525635
1782778913857186800,2.673186767578125,-1.0163564682006836,-0.5350049734115601,4.924709796905518
1782778913876276500,2.6922763671875,-1.121286392211914,-1.3804960250854492,2.7061400413513184
1782778913886194400,2.7021943359375,-2.7920870780944824,-1.9031484127044678,2.183849573135376
1782778913896204300,2.712204345703125,-5.047966003417969,-2.533522605895996,1.0696425437927246
1782778913906214100,2.722214111328125,-7.1557440757751465,-2.5349314212799072,0.3383142948150635
1782778913916133600,2.732133544921875,-8.311478614807129,-2.3521509170532227,-0.1601426601409912
1782778913926264000,2.74226416015625,-8.434179306030273,-2.0381548404693604,-0.19097399711608887
1782778913936213000,2.752212890625,-8.476613998413086,-1.6887844800949097,0.3433816432952881
1782778913946132500,2.762132568359375,-8.833240509033203,-1.3791494369506836,0.6948895454406738
1782778913956263000,2.772262939453125,-9.901419639587402,-1.2750754356384277,1.6851842403411865
1782778913966211600,2.782211669921875,-11.109590530395508,-0.9839547276496887,2.365137815475464
1782778913976190700,2.792190673828125,-11.939797401428223,-0.6835068464279175,2.4093527793884277
1782778913986200600,2.80220068359375,-12.120626449584961,-0.6354074478149414,2.1396188735961914
1782778913996210400,2.81221044921875,-12.39212703704834,-0.6575369834899902,1.758458137512207
1782778914006189600,2.822189453125,-12.49887466430664,-0.5896353721618652,1.7610418796539307
1782778914016199400,2.832199462890625,-12.485086441040039,-0.6692124009132385,1.7923762798309326
1782778914026209300,2.842209228515625,-12.108556747436523,-0.6169663667678833,1.8504517078399658
1782778914036188400,2.8521884765625,-11.555657386779785,-0.8132014870643616,1.94801926612854
1782778914046198300,2.8621982421875,-10.85582160949707,-1.0155951976776123,2.1871237754821777
1782778914056148200,2.872148193359375,-10.081706047058105,-1.185524821281433,2.502802610397339
1782778914066279000,2.88227880859375,-9.366263389587402,-1.3864787817001343,2.5944058895111084
1782778914076196900,2.89219677734375,-8.927907943725586,-1.6684792041778564,2.5890614986419678
1782778914086147000,2.90214697265625,-8.680108070373535,-1.854729175567627,2.783005714416504
1782778914097155000,2.913155029296875,-8.523345947265625,-1.962863564491272,3.260067939758301
1782778914116205600,2.93220556640625,-8.379159927368164,-2.1701695919036865,3.6570818424224854
1782778914126368000,2.942367919921875,-8.458688735961914,-2.1340086460113525,4.160320281982422
1782778914136257000,2.952257080078125,-8.694799423217773,-2.1410510540008545,4.372833251953125
1782778914146205700,2.962205810546875,-9.313569068908691,-2.206925868988037,4.434821605682373
1782778914156275200,2.972275146484375,-10.040757179260254,-2.18145751953125,4.5563645362854
1782778914166133500,2.982133544921875,-10.619100570678711,-2.1864333152770996,4.5466814041137695
1782778914177436400,2.9934365234375,-10.902193069458008,-2.303100109100342,4.675024509429932
1782778914196192000,3.01219189453125,-10.24917221069336,-2.401400566101074,4.660745620727539
1782778914206201900,3.022201904296875,-9.43230152130127,-2.755314826965332,4.512580394744873
1782778914216152000,3.032152099609375,-7.820044040679932,-2.6112918853759766,4.858896255493164
1782778914226282500,3.042282470703125,-2.976585865020752,-1.935587763786316,5.622645854949951
1782778914236200700,3.05220068359375,3.1046295166015625,-0.8860495090484619,6.931229591369629
1782778914246135600,3.062135498046875,9.148482322692871,0.5488992929458618,7.452396392822266
1782778914256114700,3.07211474609375,13.243265151977539,2.7057461738586426,6.735805511474609
1782778914276134400,3.092134521484375,16.276161193847656,4.8393449783325195,8.037226676940918
1782778914286113800,3.10211376953125,20.380817413330078,2.326479911804199,8.33204460144043
1782778914296123400,3.112123291015625,25.788597106933594,-0.35468053817749023,7.7020134925842285
1782778914306133200,3.12213330078125,31.88357162475586,-1.019383192062378,8.150649070739746
1782778914316112400,3.1321123046875,36.858131408691406,-1.1883268356323242,8.676998138427734
1782778914326122200,3.142122314453125,39.51484680175781,-1.2503280639648438,8.970297813415527
1782778914337192000,3.15319189453125,39.11029052734375,-0.888851523399353,9.160575866699219
1782778914356120800,3.172120849609375,27.720638275146484,0.9801700115203857,10.350675582885742
1782778914366130700,3.182130615234375,21.873756408691406,2.3720250129699707,12.132110595703125
1782778914376110000,3.192110107421875,16.30945587158203,3.677842140197754,14.132506370544434
1782778914386119700,3.20211962890625,11.308802604675293,4.416949272155762,14.810603141784668
1782778914396129500,3.212129638671875,7.132049560546875,4.277775287628174,13.607460021972656
1782778914406139400,3.222139404296875,4.3012542724609375,3.5783910751342773,11.423282623291016
1782778914416118500,3.232118408203125,2.786588668823242,2.563832998275757,8.746014595031738
1782778914426128400,3.24212841796875,3.2929086685180664,1.273895263671875,6.0997796058654785
1782778914436138000,3.252137939453125,3.9040279388427734,0.21327102184295654,4.396184921264648
1782778914446117000,3.2621171875,3.3726511001586914,-0.28617674112319946,4.061747074127197
1782778914456127000,3.272126953125,2.7327184677124023,-0.3717656135559082,4.3812575340271
1782778914466136800,3.28213671875,1.9255380630493164,-0.6928468346595764,4.264058589935303
1782778914476116000,3.292115966796875,-0.23718833923339844,-1.1965036392211914,3.489659547805786
1782778914486125800,3.302125732421875,-2.6508679389953613,-1.7564656734466553,2.6581921577453613
1782778914496135700,3.3121357421875,-5.419058799743652,-2.206303358078003,2.0585358142852783
1782778914506114800,3.32211474609375,-8.384917259216309,-2.638944625854492,1.1645935773849487
1782778914516124700,3.332124755859375,-10.627653121948242,-2.869746208190918,0.24756765365600586
1782778914526134300,3.34213427734375,-12.160101890563965,-2.89064359664917,-0.3900325298309326
1782778914536113400,3.352113525390625,-12.579486846923828,-2.8443832397460938,-1.1671969890594482
1782778914546123300,3.362123291015625,-13.314167976379395,-2.98762583732605,-0.9198987483978271
1782778914556133000,3.372133056640625,-13.34890365600586,-2.421827793121338,-0.9638326168060303
1782778914566112500,3.382112548828125,-13.753684997558594,-2.0752439498901367,0.08988237380981445
1782778914576122000,3.3921220703125,-13.775506973266602,-1.861520767211914,0.7498035430908203
1782778914586132000,3.402132080078125,-13.60777759552002,-1.6839255094528198,1.2221386432647705
1782778914596111400,3.412111328125,-13.755487442016602,-1.5584919452667236,1.744616985321045
1782778914606121000,3.422120849609375,-13.97521686553955,-1.5900959968566895,1.5237345695495605
1782778914616130600,3.432130615234375,-13.95672607421875,-1.6616950035095215,0.7224833965301514
1782778914626110000,3.44210986328125,-13.619915962219238,-1.9895122051239014,-0.1175689697265625
1782778914636119600,3.45211962890625,-12.781394004821777,-2.1576735973358154,-0.6475024223327637
1782778914646129400,3.46212939453125,-11.567272186279297,-2.236006736755371,-0.8146543502807617
1782778914656139300,3.47213916015625,-10.067351341247559,-2.289701461791992,-0.5480301380157471
1782778914666118400,3.482118408203125,-8.885127067565918,-2.272594928741455,-0.39959263801574707
1782778914676128300,3.492128173828125,-7.840862274169922,-2.0259499549865723,0.10229277610778809
1782778914686138000,3.50213818359375,-6.918703079223633,-1.7268239259719849,0.8110265731811523
1782778914696117200,3.5121171875,-6.135381698608398,-1.496954321861267,1.5119765996932983
1782778914706127000,3.522127197265625,-5.352841854095459,-1.3113515377044678,2.1562819480895996
1782778914716136700,3.53213671875,-4.2331743240356445,-0.987902820110321,2.80796480178833
1782778914726116000,3.5421162109375,-3.3313040733337402,-0.7083088159561157,3.043001651763916
1782778914736125700,3.552125732421875,-3.3308324813842773,-0.815000057220459,2.7904605865478516
1782778914746135600,3.562135498046875,-4.0090484619140625,-0.8541554808616638,2.1453089714050293
1782778914756055000,3.572054931640625,-5.3580546379089355,-0.597522497177124,2.42814302444458
1782778914766125800,3.582125732421875,-7.389087677001953,-0.2500631809234619,2.9429731369018555
1782778914776970800,3.592970703125,-9.147623062133789,-0.3809110224246979,2.4829177856445312
1782778914796123400,3.612123291015625,-8.775309562683105,-0.34166109561920166,2.4461517333984375
1782778914806133200,3.62213330078125,-6.942481994628906,-0.26498252153396606,2.874021053314209
1782778914816112400,3.6321123046875,-3.888357162475586,-0.43191513419151306,3.3153414726257324
1782778914826122200,3.642122314453125,-0.29036712646484375,-0.503356397151947,3.1739630699157715
1782778914836131800,3.6521318359375,3.8937034606933594,-0.42906904220581055,2.638882637023926
1782778914846111000,3.662111083984375,10.095664978027344,-0.007298886775970459,2.156468391418457
1782778914856120800,3.672120849609375,15.589598655700684,1.250788688659668,1.988175392150879
1782778914866130700,3.682130615234375,17.388540267944336,2.5368494987487793,3.983229637145996
1782778914876109800,3.69210986328125,15.180547714233398,3.0041604042053223,5.788023948669434
1782778914886119700,3.70211962890625,14.058606147766113,3.4433436393737793,7.278011322021484
1782778914896129500,3.712129638671875,15.98635196685791,1.6853736639022827,8.015152931213379
1782778914916118500,3.732118408203125,22.486051559448242,-1.855215072631836,6.47061824798584
1782778914926128000,3.742128173828125,23.795635223388672,-1.7010257244110107,6.827993392944336
1782778914936138000,3.752137939453125,23.619476318359375,-1.8050642013549805,7.394227504730225
1782778914946117000,3.7621171875,22.950206756591797,-1.7740648984909058,7.531863212585449
1782778914956067300,3.7720673828125,20.917282104492188,-0.9638375043869019,8.580782890319824
1782778914966197800,3.78219775390625,17.618122100830078,0.36665433645248413,11.118051528930664
1782778914976116000,3.792115966796875,16.281810760498047,1.2180567979812622,13.232145309448242
1782778914986125800,3.802125732421875,16.613189697265625,1.428809642791748,14.137174606323242
1782778914996135700,3.8121357421875,17.225147247314453,0.7394777536392212,12.758821487426758
1782778915006114800,3.82211474609375,17.253562927246094,0.07631093263626099,9.958112716674805
1782778915016124700,3.832124755859375,15.759393692016602,0.11171665787696838,7.66114616394043
1782778915026134300,3.84213427734375,12.02242660522461,0.8426786661148071,7.327205657958984
1782778915036053800,3.8520537109375,7.447573661804199,1.3882782459259033,7.564720153808594
1782778915046184200,3.86218408203125,2.852665901184082,1.7583144903182983,8.200693130493164
1782778915056133000,3.872133056640625,-0.9143881797790527,1.8378161191940308,8.732892036437988
1782778915066052600,3.882052490234375,-2.738748073577881,1.7301301956176758,8.471590995788574
1782778915076183300,3.892183349609375,-2.6114182472229004,1.2291384935379028,7.270005226135254
1782778915086132000,3.902132080078125,-2.3629112243652344,0.3617444634437561,4.7650604248046875
1782778915096111000,3.912111083984375,-2.668361186981201,-0.20462223887443542,2.606658935546875
1782778915106121000,3.922120849609375,-3.71803617477417,-0.389871746301651,1.2194559574127197
1782778915116130600,3.932130615234375,-4.592077732086182,-0.123042032122612,-0.055299997329711914
1782778915126109700,3.942109619140625,-5.483851432800293,0.36922669410705566,0.5027008056640625
1782778915136119600,3.95211962890625,-6.008048057556152,1.3038462400436401,1.2440202236175537
1782778915146069800,3.96206982421875,-6.666189193725586,1.746198058128357,1.74527108669281
1782778915156200200,3.9722001953125,-7.621453285217285,1.9816642999649048,2.0537405014038086
1782778915166058800,3.982058837890625,-8.98353385925293,2.0861101150512695,2.2589406967163086
1782778915177136600,3.99313671875,-10.710036277770996,1.965282917022705,2.0560972690582275
1782778915196117200,4.0121171875,-12.656055450439453,1.6698503494262695,1.8650355339050293
1782778915206127000,4.022127197265625,-13.039234161376953,1.3718878030776978,1.6463944911956787
1782778915216136700,4.03213671875,-12.970992088317871,1.1149885654449463,1.4826369285583496
1782778915226116000,4.0421162109375,-12.257284164428711,0.8572041988372803,1.4408073425292969
1782778915236125700,4.052125732421875,-11.097997665405273,0.8485066890716553,2.004751682281494
1782778915246135600,4.062135498046875,-9.98873519897461,0.8338952660560608,2.695704460144043
1782778915255888400,4.071888427734375,-9.242753028869629,0.6633941531181335,2.800774574279785
1782778915266124500,4.08212451171875,-8.717805862426758,0.45669060945510864,2.508617401123047
1782778915276134400,4.092134521484375,-8.44460391998291,0.1289827823638916,2.208601713180542
1782778915286113500,4.102113525390625,-8.101696968078613,-0.3028547763824463,1.8149924278259277
1782778915296123400,4.112123291015625,-7.780957221984863,-0.40713587403297424,1.6987719535827637
1782778915306133200,4.12213330078125,-7.681682586669922,-0.45784175395965576,2.1965889930725098
1782778915316112400,4.1321123046875,-7.688233375549316,-0.34437116980552673,2.919985294342041
1782778915326231300,4.142231201171875,-7.688958168029785,-0.06451813876628876,3.834078073501587
1782778915336101400,4.152101318359375,-7.614929676055908,-0.07949687540531158,4.310905933380127
1782778915346111200,4.162111328125,-7.538880825042725,-0.19330918788909912,3.898789167404175
1782778915355955700,4.171955810546875,-7.499456405639648,-0.3593975901603699,3.686537742614746
1782778915366130700,4.182130615234375,-7.742371082305908,-0.6365593671798706,3.3713247776031494
1782778915376110000,4.192110107421875,-8.152141571044922,-0.870232343673706,2.9032082557678223
1782778915386334700,4.202334716796875,-8.296516418457031,-0.7899195551872253,3.107844352722168
1782778915396190500,4.2121904296875,-7.700148105621338,-0.5567441582679749,4.471480369567871
1782778915406139400,4.222139404296875,-7.051795959472656,-0.4657711982727051,5.402034759521484
1782778915416118500,4.232118408203125,-6.031862258911133,-0.5974392294883728,5.158202171325684
1782778915426128100,4.242128173828125,-5.090056419372559,-0.9427759051322937,4.661005973815918
1782778915436138000,4.252137939453125,-3.647919178009033,-1.0313711166381836,5.208154678344727
1782778915446117000,4.2621171875,0.11025619506835938,-0.6747484803199768,5.575941562652588
1782778915456127000,4.272126953125,9.337137222290039,0.3633856773376465,4.008350372314453
1782778915466136800,4.28213671875,17.895570755004883,1.7687675952911377,1.7293941974639893
1782778915476116000,4.292115966796875,21.8996639251709,2.981628179550171,0.4867587089538574
1782778915486125800,4.302125732421875,19.261491775512695,3.3810060024261475,3.4972944259643555
1782778915496135700,4.3121357421875,14.833695411682129,4.713515281677246,4.700233459472656
1782778915506114800,4.32211474609375,12.964790344238281,3.4458718299865723,6.2485761642456055
1782778915516124700,4.332124755859375,14.884541511535645,2.6580142974853516,8.140410423278809
1782778915526134300,4.34213427734375,20.07205581665039,2.0569796562194824,8.765024185180664
1782778915536113400,4.352113525390625,26.854698181152344,0.5275903940200806,6.82100772857666
1782778915556133000,4.372133056640625,31.354537963867188,-1.360705018043518,3.5092320442199707
1782778915566112300,4.3821123046875,26.079395294189453,0.01795220375061035,6.253431797027588
1782778915576122000,4.3921220703125,21.451904296875,1.7957180738449097,10.12144660949707
1782778915586132000,4.402132080078125,18.566768646240234,3.1834373474121094,14.355949401855469
1782778915596111400,4.412111328125,15.15173053741455,4.329726219177246,16.848716735839844
1782778915606121000,4.422120849609375,11.06434440612793,4.4912214279174805,15.45291805267334
1782778915616130600,4.432130615234375,7.980645179748535,3.9277186393737793,11.715431213378906
1782778915626109700,4.442109619140625,5.266487121582031,3.278230905532837,8.254727363586426
1782778915636119600,4.45211962890625,2.9688949584960938,2.663562774658203,6.3614702224731445
1782778915646069800,4.46206982421875,1.4570646286010742,1.7859805822372437,5.413740158081055
1782778915657075200,4.4730751953125,0.24675941467285156,1.0284271240234375,5.022128105163574
1782778915676068600,4.492068603515625,-1.6751103401184082,0.0790703296661377,4.434147357940674
1782778915686139400,4.502139404296875,-2.072542190551758,-0.6294028759002686,3.326495885848999
1782778915696810200,4.512810302734375,-3.1626410484313965,-1.096888542175293,2.4900031089782715
1782778915716136700,4.53213671875,-6.1454644203186035,-1.081372857093811,1.4441750049591064
1782778915726116000,4.5421162109375,-7.738087177276611,-1.175771951675415,0.567765474319458
1782778915736125700,4.552125732421875,-8.957707405090332,-0.9890754222869873,0.35994458198547363
1782778915746135600,4.562135498046875,-9.734613418579102,-0.5041432976722717,0.15463042259216309
1782778915756114700,4.57211474609375,-11.011523246765137,-0.15890800952911377,0.5406196117401123
1782778915766065000,4.58206494140625,-11.953916549682617,0.28494977951049805,1.2680814266204834
1782778915780669000,4.5966689453125,-13.139244079589844,0.48957979679107666,2.089871883392334
1782778915796123400,4.612123291015625,-13.644281387329102,0.3727790117263794,1.9744871854782104
1782778915806133200,4.62213330078125,-12.871601104736328,-0.009130239486694336,1.3390307426452637
1782778915816112600,4.632112548828125,-11.306951522827148,-0.5194928646087646,0.4035930633544922
1782778915826062300,4.642062255859375,-9.942841529846191,-0.6822640299797058,-0.002796649932861328
1782778915836193000,4.652193115234375,-8.667818069458008,-0.7392943501472473,0.13986754417419434
1782778915846111200,4.662111328125,-7.555531978607178,-0.6682387590408325,0.7353978157043457
1782778915856061200,4.672061279296875,-6.902647018432617,-0.48598191142082214,1.4528441429138184
1782778915866191600,4.682191650390625,-6.608231544494629,-0.3603554368019104,2.089169979095459
1782778915876109800,4.69210986328125,-6.414120674133301,-0.3279494047164917,2.5262441635131836
1782778915886119700,4.70211962890625,-6.2624053955078125,-0.43309417366981506,2.5427961349487305
1782778915896129500,4.712129638671875,-6.202608108520508,-0.5214561820030212,2.62923002243042
1782778915906139400,4.722139404296875,-6.287879467010498,-0.48760879039764404,2.981820583343506
1782778915916118500,4.732118408203125,-6.426536560058594,-0.39087653160095215,3.4897873401641846
1782778915926128000,4.742128173828125,-6.754814147949219,-0.4373813271522522,3.56972599029541
1782778915936138000,4.752137939453125,-7.014212608337402,-0.6904875040054321,3.175980806350708
1782778915946117000,4.7621171875,-7.305065631866455,-0.8250009417533875,2.7737653255462646
1782778915956127000,4.772126953125,-7.581387519836426,-0.7481351494789124,3.1269500255584717
1782778915966255900,4.782255859375,-8.18187427520752,-0.6815518140792847,3.5741779804229736
1782778915976116000,4.792115966796875,-8.562830924987793,-0.6352358460426331,3.453012228012085
1782778915986125800,4.802125732421875,-8.520115852355957,-0.6510974764823914,3.518071174621582
1782778915995878400,4.81187841796875,-7.8054094314575195,-0.7259438037872314,3.6442761421203613
1782778916006114800,4.82211474609375,-6.682919025421143,-0.5678211450576782,4.705691337585449
1782778916016124700,4.832124755859375,-4.798492431640625,-0.33598458766937256,6.629953384399414
1782778916026134300,4.84213427734375,-0.5072832107543945,0.8583329916000366,7.130478858947754
1782778916036113400,4.852113525390625,6.635881423950195,1.849143624305725,6.59014892578125
1782778916046123300,4.862123291015625,11.248120307922363,2.1669869422912598,5.963039398193359
1782778916056133000,4.872133056640625,12.955096244812012,3.1099343299865723,3.6847915649414062
1782778916066112300,4.8821123046875,12.77434253692627,2.634268045425415,3.5956850051879883
1782778916076122000,4.8921220703125,12.74646282196045,2.7575199604034424,3.139104127883911
1782778916086132000,4.902132080078125,13.735854148864746,4.204249858856201,2.0655295848846436
1782778916096111000,4.912111083984375,13.467697143554688,7.33379602432251,0.7607035636901855
1782778916116130600,4.932130615234375,3.188150405883789,5.188601493835449,12.561576843261719
1782778916126109700,4.942109619140625,3.112277030944824,3.377048969268799,16.965898513793945
1782778916136119600,4.95211962890625,13.239760398864746,-1.32765531539917,17.33880615234375
1782778916146129400,4.96212939453125,20.86956787109375,-4.4261674880981445,11.208173751831055
1782778916156139300,4.97213916015625,27.639949798583984,-5.807107448577881,4.912134170532227
1782778916166118400,4.982118408203125,29.67328643798828,-5.522061347961426,1.4327571392059326
1782778916176128300,4.992128173828125,26.586139678955078,-4.247021675109863,1.0313189029693604
1782778916186138000,5.00213818359375,19.70388412475586,-2.3060483932495117,3.2525484561920166
1782778916196117200,5.0121171875,13.47894287109375,-0.6006515622138977,5.895012855529785
1782778916206127000,5.022127197265625,9.486733436584473,-0.27080950140953064,6.810847282409668
1782778916216136700,5.03213671875,7.293876647949219,0.5018190741539001,4.699862003326416
1782778916226116000,5.0421162109375,0.37360668182373047,0.6719837188720703,4.158284664154053
