time,seconds_elapsed,z,y,x
1782778617904666600,0.19466650390625,4.6030964851379395,2.006122350692749,-6.150524139404297
1782778617914538200,0.204538330078125,4.950267791748047,2.103041648864746,-6.629301071166992
1782778617924547800,0.2145478515625,5.1277852058410645,2.525017261505127,-6.774096965789795
1782778617934666200,0.224666259765625,5.131145477294922,3.1380839347839355,-6.661362648010254
1782778617944537000,0.234537109375,5.039697647094727,4.134784698486328,-6.725780487060547
1782778617954546700,0.244546630859375,4.069780349731445,5.2685346603393555,-6.356686592102051
1782778617964390700,0.254390625,2.372398853302002,6.0354180335998535,-5.9498186111450195
1782778617974535700,0.26453564453125,3.2689452171325684,6.424234390258789,-5.042625904083252
1782778617984545500,0.274545654296875,4.661177158355713,6.877838134765625,-3.885423421859741
1782778617994555100,0.28455517578125,6.685465335845947,6.7783379554748535,-3.2164101600646973
1782778618004565000,0.29456494140625,9.973468780517578,7.121969223022461,-3.5136876106262207
1782778618014544100,0.304544189453125,13.653263092041016,8.041946411132812,-4.092558860778809
1782778618024554000,0.314553955078125,18.137657165527344,9.524287223815918,-4.543218612670898
1782778618034563800,0.324563720703125,22.2653865814209,12.70814323425293,-6.143549919128418
1782778618044543000,0.33454296875,23.41862678527832,15.480794906616211,-6.6221022605896
1782778618054552800,0.344552734375,19.529691696166992,18.4111328125,-6.28857421875
1782778618064562700,0.354562744140625,16.70032501220703,23.476062774658203,-7.014615058898926
1782778618074541800,0.364541748046875,14.203376770019531,27.531503677368164,-7.320836067199707
1782778618084551700,0.3745517578125,10.411311149597168,27.914627075195312,-3.844829559326172
1782778618094561500,0.3845615234375,10.247364044189453,28.65956687927246,-0.2124648094177246
1782778618104540400,0.39454052734375,17.38394546508789,27.085872650146484,3.9497785568237305
1782778618114550300,0.40455029296875,34.43177032470703,23.082979202270508,3.5974717140197754
1782778618124560100,0.41456005859375,49.44866943359375,20.518821716308594,-2.5852653980255127
1782778618134570000,0.424570068359375,55.95158386230469,19.134326934814453,-6.024049758911133
1782778618144549000,0.434549072265625,53.20575714111328,19.4532413482666,-5.6775221824646
1782778618154559000,0.44455908203125,45.14151382446289,20.62343406677246,-1.6529059410095215
1782778618164568800,0.45456884765625,36.761802673339844,21.255456924438477,1.5232243537902832
1782778618174548000,0.4645478515625,29.298912048339844,21.04368019104004,1.0968074798583984
1782778618184557800,0.474557861328125,21.638431549072266,20.504539489746094,-0.7699832916259766
1782778618194567400,0.4845673828125,14.23801040649414,18.615537643432617,-3.5301101207733154
1782778618204546600,0.494546630859375,9.852279663085938,16.103593826293945,-6.604058742523193
1782778618214556400,0.504556396484375,10.221189498901367,13.693767547607422,-7.813908576965332
1782778618224566300,0.514566162109375,13.979318618774414,12.383661270141602,-6.932477951049805
1782778618234545400,0.52454541015625,18.150596618652344,11.444055557250977,-6.268225193023682
1782778618244555300,0.53455517578125,21.323272705078125,10.798238754272461,-5.8222737312316895
1782778618254565000,0.544565185546875,23.054187774658203,10.710952758789062,-4.829686641693115
1782778618264544300,0.554544189453125,21.425355911254883,10.761369705200195,-2.964211940765381
1782778618274554000,0.56455419921875,16.531652450561523,10.114688873291016,-2.6052277088165283
1782778618284563700,0.574563720703125,10.688536643981934,9.382424354553223,-4.5930585861206055
1782778618294542800,0.58454296875,4.148432731628418,9.176535606384277,-6.314332962036133
1782778618304552700,0.594552734375,-0.8650383949279785,9.294805526733398,-6.662763595581055
1782778618314562600,0.6045625,-3.8557846546173096,9.13049602508545,-5.757718563079834
1782778618324541700,0.614541748046875,-5.4801130294799805,8.83150577545166,-6.089252471923828
1782778618334551600,0.624551513671875,-4.74019718170166,8.3719482421875,-8.075376510620117
1782778618344561400,0.6345615234375,-2.331540584564209,7.831671237945557,-9.69160270690918
1782778618354540500,0.64454052734375,0.559600830078125,7.779313087463379,-9.694652557373047
1782778618364550400,0.65455029296875,3.0312235355377197,7.726649761199951,-9.145111083984375
1782778618374560000,0.66456005859375,4.883603096008301,7.9255876541137695,-8.175481796264648
1782778618384569900,0.67456982421875,5.9642133712768555,7.873237133026123,-7.118710517883301
1782778618394549000,0.684549072265625,6.783730506896973,7.6035356521606445,-6.589663505554199
1782778618404558800,0.694558837890625,6.903182506561279,7.674408912658691,-6.022785663604736
1782778618414568700,0.704568603515625,6.34882926940918,7.528267860412598,-5.479033470153809
1782778618424547800,0.7145478515625,4.85624361038208,6.954524993896484,-5.908165454864502
1782778618434557700,0.7245576171875,3.856801748275757,6.3502421379089355,-6.392297267913818
1782778618444686300,0.734686279296875,3.5000529289245605,5.868258953094482,-7.4939188957214355
1782778618454546700,0.744546630859375,3.5249598026275635,5.705404281616211,-8.176148414611816
1782778618464556500,0.754556640625,4.155684471130371,5.404372215270996,-8.014596939086914
1782778618474566100,0.764566162109375,4.18632173538208,5.4108076095581055,-8.226987838745117
1782778618484501800,0.774501708984375,3.3969881534576416,5.566657066345215,-7.824974060058594
1782778618494555100,0.78455517578125,2.4572179317474365,5.834317684173584,-7.223392963409424
1782778618504565000,0.79456494140625,1.511735439300537,6.337457656860352,-6.837961673736572
1782778618514134300,0.80413427734375,0.6977169513702393,6.809216499328613,-5.759864807128906
1782778618524554000,0.814553955078125,0.0029354095458984375,7.156635284423828,-5.307401657104492
1782778618534563800,0.824563720703125,-0.634204626083374,7.350637435913086,-5.85447883605957
1782778618544543000,0.83454296875,-1.2077765464782715,7.291896343231201,-6.327071666717529
1782778618554552800,0.844552734375,-1.360255479812622,7.217623710632324,-6.5645904541015625
1782778618564562700,0.854562744140625,-1.062290906906128,7.081153392791748,-6.832303524017334
1782778618574541800,0.864541748046875,-0.4423952102661133,7.042750835418701,-7.060095310211182
1782778618584551700,0.8745517578125,0.8117175102233887,6.876114368438721,-7.582656383514404
1782778618594561500,0.8845615234375,2.3039650917053223,6.754294395446777,-8.39659309387207
1782778618604344000,0.894343994140625,2.5994174480438232,6.484658241271973,-8.380545616149902
1782778618614550300,0.90455029296875,3.3723487854003906,6.241076469421387,-8.77812385559082
1782778618624560000,0.91456005859375,4.125093460083008,6.218647003173828,-9.117940902709961
1782778618634570000,0.924570068359375,5.340023994445801,6.322124481201172,-9.080641746520996
1782778618644549000,0.934549072265625,5.964973449707031,6.790255069732666,-8.218750953674316
1782778618654559000,0.94455908203125,6.645903587341309,6.988362789154053,-7.829241752624512
1782778618664568800,0.95456884765625,7.253399848937988,7.001780986785889,-7.8765645027160645
1782778618674548000,0.9645478515625,7.769580841064453,6.853461265563965,-7.867015838623047
1782778618684557800,0.974557861328125,8.72182846069336,6.537525177001953,-8.306489944458008
1782778618694567400,0.9845673828125,10.366658210754395,6.144746780395508,-8.559028625488281
1782778618704546600,0.994546630859375,13.254940032958984,6.673313140869141,-9.377666473388672
1782778618714556400,1.004556396484375,16.003215789794922,7.419015407562256,-8.899951934814453
1782778618724566300,1.014566162109375,18.11180305480957,9.062846183776855,-8.311452865600586
1782778618734545400,1.02454541015625,18.521915435791016,11.734630584716797,-8.676212310791016
1782778618744555300,1.03455517578125,17.239721298217773,15.550897598266602,-10.231847763061523
1782778618754565000,1.044565185546875,20.85666847229004,19.45993423461914,-10.919595718383789
1782778618764544300,1.054544189453125,28.68327522277832,21.943201065063477,-9.22343921661377
1782778618774554000,1.06455419921875,32.72990417480469,23.886533737182617,-10.621170997619629
1782778618784563700,1.074563720703125,31.506010055541992,23.67262077331543,-9.47005558013916
1782778618794542800,1.08454296875,29.81210708618164,22.70240020751953,-5.800464630126953
1782778618804552700,1.094552734375,29.19844627380371,22.665678024291992,-4.197110176086426
1782778618814562600,1.1045625,32.36162567138672,22.156597137451172,-4.114164352416992
1782778618824541700,1.114541748046875,37.61531448364258,21.2425479888916,-3.4543795585632324
1782778618834551600,1.124551513671875,39.49540328979492,21.370519638061523,-3.8561878204345703
1782778618844561400,1.1345615234375,37.496543884277344,18.55542755126953,-0.34427499771118164
1782778618854540500,1.14454052734375,33.454505920410156,17.624523162841797,-2.1334004402160645
1782778618864550400,1.15455029296875,26.535310745239258,18.15816307067871,-6.573585510253906
1782778618874560000,1.16456005859375,19.88775634765625,15.334917068481445,-5.496775150299072
1782778618884569900,1.17456982421875,15.067026138305664,14.96425724029541,-7.149191379547119
1782778618894549000,1.184549072265625,10.300688743591309,14.914213180541992,-7.245567798614502
1782778618904558800,1.194558837890625,7.420651435852051,14.308128356933594,-5.485260486602783
1782778618914568700,1.204568603515625,7.321064472198486,13.421035766601562,-3.3108022212982178
1782778618924547800,1.2145478515625,8.642359733581543,12.603504180908203,-1.0382657051086426
1782778618934557700,1.2245576171875,11.01986312866211,12.522238731384277,0.4906649589538574
1782778618944567600,1.234567626953125,14.91244125366211,11.04930305480957,-0.8728070259094238
1782778618954546700,1.244546630859375,14.768316268920898,8.251080513000488,0.28856658935546875
1782778618964556500,1.254556640625,15.0114107131958,6.83311128616333,0.7492094039916992
1782778618974566100,1.264566162109375,13.658748626708984,3.7906832695007324,-1.9724674224853516
1782778618984545500,1.274545654296875,14.791240692138672,4.253928184509277,-6.967806816101074
1782778618994555400,1.284555419921875,10.409757614135742,7.780912399291992,-10.474535942077637
1782778619004565000,1.29456494140625,7.22825813293457,6.645000457763672,-9.300324440002441
1782778619014544100,1.304544189453125,8.235157012939453,7.1303300857543945,-6.651260852813721
1782778619024554000,1.314553955078125,8.533834457397461,7.912546634674072,-6.674509525299072
1782778619034563800,1.324563720703125,6.786616325378418,8.175084114074707,-5.529367923736572
1782778619044543000,1.33454296875,5.134794235229492,8.806760787963867,-4.252108097076416
1782778619054552800,1.344552734375,4.192245006561279,9.303203582763672,-5.173210620880127
1782778619064671200,1.354671142578125,2.557671070098877,8.430288314819336,-4.920445919036865
1782778619074541800,1.364541748046875,3.67155385017395,7.388057708740234,-6.64840030670166
1782778619084551700,1.3745517578125,3.5764129161834717,6.917229175567627,-6.5652079582214355
1782778619094561300,1.384561279296875,1.9715566635131836,6.260258674621582,-7.0208611488342285
1782778619104540400,1.39454052734375,0.9767045974731445,6.519772529602051,-8.777153015136719
1782778619114550300,1.40455029296875,0.6858165264129639,6.428840160369873,-8.238205909729004
1782778619124560100,1.41456005859375,1.4792823791503906,6.829957485198975,-6.915321350097656
1782778619134570000,1.424570068359375,3.4121484756469727,6.8667755126953125,-6.693029403686523
1782778619144549000,1.434549072265625,5.681114196777344,6.975014686584473,-6.787367820739746
1782778619154559000,1.44455908203125,7.552539825439453,6.998689651489258,-6.808207035064697
1782778619164568800,1.45456884765625,7.775655269622803,6.9257941246032715,-6.178410530090332
1782778619174548000,1.4645478515625,6.685888767242432,6.544129371643066,-4.837469577789307
1782778619184557800,1.474557861328125,5.048891544342041,7.505007266998291,-6.110264301300049
1782778619194567400,1.4845673828125,3.8387203216552734,7.230036735534668,-6.0082268714904785
1782778619204546600,1.494546630859375,3.2477591037750244,7.140989780426025,-5.520503520965576
1782778619214634800,1.504634765625,3.0875563621520996,7.590605735778809,-5.390963554382324
1782778619224535800,1.514535888671875,3.258171319961548,7.799324989318848,-5.204626560211182
1782778619234545400,1.52454541015625,3.1733274459838867,7.663076877593994,-5.272141933441162
1782778619244267300,1.534267333984375,2.8545799255371094,7.476564884185791,-5.595222473144531
1782778619254534400,1.544534423828125,2.7255783081054688,7.716667175292969,-5.436432361602783
1782778619264544300,1.554544189453125,3.2700440883636475,8.01087760925293,-4.991337776184082
1782778619274554000,1.56455419921875,3.9603657722473145,8.078216552734375,-5.192647933959961
1782778619284563700,1.574563720703125,4.532286643981934,7.860324382781982,-5.330999851226807
1782778619294652000,1.58465185546875,4.4405717849731445,7.746246337890625,-5.388087749481201
1782778619304552700,1.594552734375,3.928832530975342,7.74481201171875,-5.226595401763916
1782778619314562600,1.6045625,3.860201835632324,7.905078887939453,-4.796278953552246
1782778619324541700,1.614541748046875,4.461925983428955,7.811128616333008,-4.4692487716674805
1782778619334551600,1.624551513671875,5.974386692047119,7.059927940368652,-5.310976505279541
1782778619344561400,1.6345615234375,6.347261428833008,5.680195331573486,-6.787598609924316
1782778619354540500,1.64454052734375,5.387156009674072,3.9314520359039307,-8.857915878295898
1782778619364550400,1.65455029296875,4.781171798706055,3.218519687652588,-9.387715339660645
1782778619374560000,1.66456005859375,4.441314697265625,4.354686737060547,-7.738597869873047
1782778619384569600,1.674569580078125,3.8114078044891357,6.959000110626221,-3.508207082748413
1782778619394549000,1.684549072265625,2.6089930534362793,9.049866676330566,0.023627758026123047
1782778619404558800,1.694558837890625,2.0022358894348145,11.146286964416504,-0.906771183013916
1782778619414568700,1.704568603515625,1.6856050491333008,13.258413314819336,-2.9413866996765137
1782778619424547800,1.7145478515625,3.4852981567382812,15.29721450805664,-4.877967834472656
1782778619434557700,1.7245576171875,5.624757289886475,17.103801727294922,-6.589862823486328
1782778619444567600,1.734567626953125,11.713851928710938,17.74364471435547,-6.159390926361084
1782778619454546700,1.744546630859375,26.351287841796875,16.80935287475586,-5.084021091461182
1782778619464556500,1.754556640625,42.12533187866211,16.928197860717773,-2.6714866161346436
1782778619474566100,1.764566162109375,53.124149322509766,18.468666076660156,0.5257530212402344
1782778619484545500,1.774545654296875,56.614715576171875,19.06001091003418,3.472899913787842
1782778619494555400,1.784555419921875,58.964622497558594,19.182939529418945,3.803250312805176
1782778619504565000,1.79456494140625,54.342952728271484,19.36771011352539,2.2958168983459473
1782778619514544000,1.804544189453125,48.934268951416016,19.898235321044922,1.4303531646728516
1782778619524554000,1.814553955078125,42.82646179199219,19.72706413269043,-0.4386558532714844
1782778619534563800,1.824563720703125,38.12092208862305,19.45721435546875,-2.224074602127075
1782778619544543000,1.83454296875,33.351829528808594,18.733999252319336,-3.5471878051757812
1782778619554552800,1.844552734375,27.90972328186035,17.779664993286133,-3.042985677719116
1782778619564562700,1.854562744140625,28.45412826538086,16.048742294311523,-4.226759433746338
1782778619574541800,1.864541748046875,29.568758010864258,12.968881607055664,-7.0707197189331055
1782778619584551700,1.8745517578125,27.216970443725586,11.165430068969727,-8.474126815795898
1782778619594561300,1.884561279296875,22.091936111450195,10.546863555908203,-8.151937484741211
1782778619604540400,1.89454052734375,16.841657638549805,10.477487564086914,-6.385637283325195
1782778619614550300,1.90455029296875,12.567304611206055,10.277558326721191,-4.557468891143799
1782778619624560000,1.91456005859375,8.551193237304688,9.7302885055542,-4.183559417724609
1782778619634570000,1.924570068359375,5.729252815246582,9.08709716796875,-4.133037567138672
1782778619644549000,1.934549072265625,5.307462215423584,8.69607162475586,-3.0021212100982666
1782778619654559000,1.94455908203125,6.89997673034668,8.816164016723633,-1.1220684051513672
1782778619664568800,1.95456884765625,10.421531677246094,8.704374313354492,-1.0765008926391602
1782778619674548000,1.9645478515625,15.062590599060059,7.209388256072998,-3.966966390609741
1782778619684557800,1.974557861328125,15.025385856628418,5.793965816497803,-7.1973042488098145
1782778619694567400,1.9845673828125,10.1660737991333,6.0223612785339355,-7.83511209487915
1782778619704546600,1.994546630859375,4.950694561004639,6.590074062347412,-6.543343544006348
1782778619714556400,2.004556396484375,0.7563779354095459,6.883288383483887,-6.358287811279297
1782778619724566300,2.014566162109375,-2.029285192489624,6.761523246765137,-7.10148286819458
1782778619734545400,2.02454541015625,-3.230062961578369,6.74964714050293,-7.338929653167725
1782778619744555300,2.03455517578125,-3.1153829097747803,6.934839725494385,-6.797680854797363
1782778619754565000,2.044565185546875,-1.9968466758728027,7.147741794586182,-6.221408843994141
1782778619764544300,2.054544189453125,-0.6071920394897461,7.019883632659912,-6.09113883972168
1782778619774554000,2.06455419921875,1.009589672088623,6.494604110717773,-7.1331939697265625
1782778619784563700,2.074563720703125,3.035922050476074,5.935412406921387,-8.47304916381836
1782778619794542800,2.08454296875,4.966071128845215,5.831319332122803,-8.897455215454102
1782778619804552700,2.094552734375,6.657958030700684,6.0125298500061035,-8.748917579650879
1782778619814562600,2.1045625,7.4969072341918945,6.205038547515869,-8.383465766906738
1782778619824541700,2.114541748046875,7.503319263458252,6.521503448486328,-7.799447059631348
1782778619834551600,2.124551513671875,6.872993469238281,6.9530510902404785,-7.02686071395874
1782778619844561400,2.1345615234375,6.195583820343018,7.127389430999756,-6.8092451095581055
1782778619854540500,2.14454052734375,5.408873558044434,7.348954200744629,-6.680136680603027
1782778619864550400,2.15455029296875,4.842844009399414,7.576310634613037,-6.529087066650391
1782778619874560000,2.16456005859375,4.62148380279541,7.875335693359375,-6.174448490142822
1782778619884569900,2.17456982421875,4.43645715713501,8.165170669555664,-5.601802349090576
1782778619894115000,2.184114990234375,4.763247966766357,8.526497840881348,-4.903996467590332
1782778619904558800,2.194558837890625,5.072981357574463,8.95091438293457,-4.063701629638672
1782778619914568700,2.204568603515625,4.440491676330566,9.181310653686523,-3.3191423416137695
1782778619924547800,2.2145478515625,2.895962953567505,9.289889335632324,-2.9006052017211914
1782778619934557700,2.2245576171875,0.9698119163513184,9.296340942382812,-2.6718599796295166
1782778619944567600,2.234567626953125,-0.3353137969970703,9.297859191894531,-2.7032952308654785
1782778619954546700,2.244546630859375,-0.6922504901885986,9.011998176574707,-3.079378366470337
1782778619964556500,2.254556640625,-0.4863765239715576,8.654210090637207,-3.7368316650390625
1782778619974566100,2.264566162109375,-0.23689031600952148,8.541016578674316,-4.6153483390808105
1782778619984545500,2.274545654296875,-0.24637413024902344,7.948715686798096,-5.106903553009033
1782778619994555400,2.284555419921875,-0.08840560913085938,7.887148380279541,-5.626011848449707
1782778620004565000,2.29456494140625,0.2460005283355713,7.773073196411133,-5.707123279571533
1782778620014544100,2.304544189453125,1.2390050888061523,7.595519542694092,-4.812843322753906
1782778620024554000,2.314553955078125,3.1010336875915527,7.437641620635986,-3.790815830230713
1782778620034563800,2.324563720703125,5.16901969909668,7.217854022979736,-3.586782693862915
1782778620044543000,2.33454296875,7.190564155578613,6.709408760070801,-3.8247671127319336
1782778620054552800,2.344552734375,8.58132553100586,6.027787208557129,-5.1456074714660645
1782778620064562700,2.354562744140625,9.22134780883789,5.566015243530273,-6.308228492736816
1782778620074541800,2.364541748046875,10.209277153015137,5.247804641723633,-6.9867844581604
1782778620084551700,2.3745517578125,12.737173080444336,5.780704021453857,-6.839288234710693
1782778620094561300,2.384561279296875,17.537906646728516,6.696038246154785,-6.817939281463623
1782778620104540400,2.39454052734375,21.551822662353516,8.18163776397705,-7.129199981689453
1782778620114550300,2.40455029296875,22.347352981567383,10.353632926940918,-7.565817832946777
1782778620124560100,2.41456005859375,21.07436180114746,11.282115936279297,-8.061212539672852
1782778620134570000,2.424570068359375,22.961400985717773,11.747518539428711,-7.381571292877197
1782778620144549000,2.434549072265625,32.17655944824219,11.761434555053711,-6.948113441467285
1782778620154559000,2.44455908203125,40.81196212768555,10.30224609375,-5.525906562805176
1782778620164568800,2.45456884765625,43.744407653808594,10.43492603302002,-2.9267680644989014
1782778620174548000,2.4645478515625,42.898563385009766,11.663640975952148,-1.6746788024902344
1782778620184557800,2.474557861328125,43.06814193725586,12.317358016967773,-0.6159825325012207
1782778620194567400,2.4845673828125,43.292789459228516,12.718517303466797,-0.24197864532470703
1782778620204546600,2.494546630859375,41.940452575683594,13.137321472167969,-0.8071608543395996
1782778620214556400,2.504556396484375,40.47176742553711,12.690835952758789,-2.2049546241760254
1782778620224566300,2.514566162109375,38.46221923828125,12.095952987670898,-2.938154458999634
1782778620234545400,2.52454541015625,37.227455139160156,12.787516593933105,-0.4339313507080078
1782778620244555300,2.53455517578125,36.33029556274414,13.431166648864746,2.3045825958251953
1782778620254565000,2.544565185546875,33.95541000366211,13.173967361450195,2.417490005493164
1782778620264544300,2.554544189453125,32.46639633178711,12.188373565673828,-0.05199098587036133
1782778620274554000,2.56455419921875,30.876392364501953,11.22334098815918,-1.7294728755950928
1782778620284563700,2.574563720703125,27.34433364868164,10.588547706604004,-3.4288125038146973
1782778620294542800,2.58454296875,21.9757080078125,10.007758140563965,-4.531683444976807
1782778620304552700,2.594552734375,15.06950569152832,9.518966674804688,-4.969383716583252
1782778620314562600,2.6045625,9.926770210266113,9.370128631591797,-3.6751253604888916
1782778620324541700,2.614541748046875,7.814985275268555,8.975765228271484,-2.870314121246338
1782778620334551600,2.624551513671875,8.895042419433594,8.244956970214844,-3.2432644367218018
1782778620344561400,2.6345615234375,11.260016441345215,8.09864616394043,-2.049201250076294
1782778620354540500,2.64454052734375,12.511645317077637,7.647596836090088,-0.5937013626098633
1782778620364550400,2.65455029296875,12.475431442260742,6.953889846801758,-1.286013126373291
1782778620374560000,2.66456005859375,10.688496589660645,6.083779811859131,-3.844411849975586
1782778620384569900,2.67456982421875,8.591621398925781,5.256421089172363,-7.023879528045654
1782778620394549000,2.684549072265625,6.971529483795166,5.389621734619141,-8.454731941223145
1782778620404558800,2.694558837890625,4.807931900024414,6.119511604309082,-8.396334648132324
1782778620414568700,2.704568603515625,1.9394826889038086,6.45106315612793,-8.447319030761719
1782778620424547800,2.7145478515625,0.08831310272216797,6.710644245147705,-8.610283851623535
1782778620434557700,2.7245576171875,-1.153801441192627,7.147398471832275,-8.313791275024414
1782778620444567600,2.734567626953125,-1.9880681037902832,7.61281681060791,-7.56459903717041
1782778620454546700,2.744546630859375,-2.239084482192993,7.880634307861328,-7.038236618041992
1782778620464556500,2.754556640625,-1.5735528469085693,7.899755477905273,-6.473080635070801
1782778620474566100,2.764566162109375,-0.11671853065490723,7.7466206550598145,-6.38003396987915
1782778620484545500,2.774545654296875,2.127504348754883,7.172033786773682,-6.893589019775391
1782778620494555400,2.784555419921875,4.507803440093994,6.4457831382751465,-7.562239646911621
1782778620504565000,2.79456494140625,6.535689353942871,5.91652774810791,-7.921508312225342
1782778620514544000,2.804544189453125,8.058566093444824,5.475678443908691,-8.004104614257812
1782778620524554000,2.814553955078125,9.019195556640625,5.131311893463135,-8.269439697265625
1782778620534563800,2.824563720703125,9.329608917236328,5.0973734855651855,-8.091178894042969
1782778620544543000,2.83454296875,8.82421875,5.368297100067139,-7.719682693481445
1782778620554552800,2.844552734375,8.117410659790039,5.718598365783691,-7.191981315612793
1782778620564562700,2.854562744140625,6.809018135070801,6.000468730926514,-6.905823230743408
1782778620574541800,2.864541748046875,5.4632415771484375,6.299499034881592,-6.543112754821777
1782778620584551700,2.8745517578125,4.351364612579346,6.734006404876709,-6.101109027862549
1782778620594561300,2.884561279296875,3.9267683029174805,7.086007118225098,-5.705898284912109
1782778620604466000,2.8944658203125,3.8492069244384766,7.3833465576171875,-5.455358028411865
1782778620614550300,2.90455029296875,3.7960307598114014,7.633126258850098,-5.137879848480225
1782778620624560000,2.91456005859375,3.4891421794891357,7.945501804351807,-4.71299409866333
1782778620634570000,2.924570068359375,2.922959089279175,8.229934692382812,-4.366281986236572
1782778620644732200,2.934732177734375,1.8467845916748047,8.264768600463867,-4.197054386138916
1782778620654559000,2.94455908203125,0.8992462158203125,8.247787475585938,-4.1694464683532715
1782778620664568800,2.95456884765625,0.28746771812438965,8.231401443481445,-4.017114639282227
1782778620674548000,2.9645478515625,0.020719051361083984,8.201539993286133,-4.020312309265137
1782778620684557800,2.974557861328125,0.03513169288635254,7.939262866973877,-4.306663513183594
1782778620694567400,2.9845673828125,-0.042550086975097656,7.537887096405029,-4.912426948547363
1782778620704546600,2.994546630859375,-0.08549666404724121,7.451891899108887,-5.010626316070557
1782778620714556400,3.004556396484375,0.31624317169189453,7.5614728927612305,-4.4234514236450195
1782778620724566300,3.014566162109375,0.652987003326416,7.077751159667969,-5.221004009246826
1782778620734545400,3.02454541015625,0.5735385417938232,6.806595325469971,-5.178864002227783
1782778620744555300,3.03455517578125,1.5794488191604614,7.026817321777344,-5.107544422149658
1782778620754565000,3.044565185546875,3.1930887699127197,6.596969127655029,-5.992794513702393
1782778620764653000,3.054653076171875,3.8157501220703125,6.244844436645508,-6.855158805847168
1782778620774554000,3.06455419921875,4.116640090942383,5.889649868011475,-7.517001628875732
1782778620784563700,3.074563720703125,5.512195587158203,6.479393005371094,-7.637459754943848
1782778620794542800,3.08454296875,8.787081718444824,7.428440570831299,-7.063456058502197
1782778620804552700,3.094552734375,13.84071159362793,9.284451484680176,-7.284187316894531
1782778620814562600,3.1045625,19.71908950805664,11.499373435974121,-8.440330505371094
1782778620824541700,3.114541748046875,24.129131317138672,13.808523178100586,-10.682323455810547
1782778620834551600,3.124551513671875,26.067169189453125,15.588846206665039,-11.526726722717285
1782778620844561400,3.1345615234375,28.274524688720703,17.1160888671875,-10.383713722229004
1782778620854540500,3.14454052734375,32.87491226196289,17.772674560546875,-9.006608963012695
1782778620864550400,3.15455029296875,35.46675109863281,15.344467163085938,-3.996124505996704
1782778620874560000,3.16456005859375,35.97334671020508,14.876018524169922,1.3164658546447754
1782778620884569900,3.17456982421875,39.945980072021484,14.567462921142578,5.045811653137207
1782778620894549000,3.184549072265625,50.81345748901367,12.396204948425293,5.960674285888672
1782778620904558800,3.194558837890625,59.58675003051758,8.717992782592773,2.53267765045166
1782778620914568700,3.204568603515625,64.02043151855469,5.47358512878418,-2.133012533187866
1782778620924547800,3.2145478515625,60.983699798583984,5.236956596374512,-3.8608503341674805
1782778620934557700,3.2245576171875,54.35622024536133,6.665250301361084,-2.0045549869537354
1782778620944567600,3.234567626953125,47.84939956665039,8.22025203704834,0.9536375999450684
1782778620954546700,3.244546630859375,42.03492736816406,9.157341957092285,1.3056907653808594
1782778620964556500,3.254556640625,35.881813049316406,9.645891189575195,0.09225130081176758
1782778620974566100,3.264566162109375,29.81839370727539,9.86381721496582,-0.9681928157806396
1782778620984545500,3.274545654296875,23.81252098083496,10.00868034362793,-1.1169676780700684
1782778620994555400,3.284555419921875,18.62518882751465,9.481528282165527,-1.5743861198425293
1782778621004565000,3.29456494140625,16.89175033569336,8.965719223022461,-2.0419061183929443
1782778621014544100,3.304544189453125,17.456331253051758,8.211797714233398,-3.259495735168457
1782778621024554000,3.314553955078125,17.76548957824707,7.324071884155273,-5.127244472503662
1782778621034563800,3.324563720703125,16.454965591430664,6.420165538787842,-6.373043060302734
1782778621044543000,3.33454296875,12.232340812683105,5.878762245178223,-6.4171528816223145
1782778621054552800,3.344552734375,7.547582626342773,5.6720123291015625,-6.3209357261657715
1782778621064562700,3.354562744140625,2.3372507095336914,5.946906089782715,-5.951148986816406
1782778621074541800,3.364541748046875,-2.874040126800537,6.470237731933594,-5.399771213531494
1782778621084551700,3.3745517578125,-4.436711311340332,7.056293487548828,-5.282599925994873
1782778621094561300,3.384561279296875,-3.7618117332458496,7.568977355957031,-5.556136131286621
1782778621104540400,3.39454052734375,-3.5523388385772705,7.728653907775879,-6.5000319480896
1782778621114550300,3.40455029296875,-3.3896772861480713,7.943039894104004,-7.455985069274902
1782778621124560100,3.41456005859375,-3.386061668395996,8.134919166564941,-7.808988571166992
1782778621134570000,3.424570068359375,-4.524121284484863,8.444414138793945,-7.678136825561523
1782778621144549000,3.434549072265625,-5.5816802978515625,8.462677001953125,-7.5957231521606445
1782778621154559000,3.44455908203125,-5.6429548263549805,8.421733856201172,-7.821319103240967
1782778621164568800,3.45456884765625,-4.815491199493408,8.547506332397461,-7.467874050140381
1782778621174548000,3.4645478515625,-2.1974399089813232,8.672506332397461,-7.0343427658081055
1782778621184557800,3.474557861328125,0.20840144157409668,8.280134201049805,-7.163935661315918
1782778621194567400,3.4845673828125,2.126166820526123,7.909672260284424,-7.257861137390137
1782778621204546600,3.494546630859375,4.276838302612305,7.70260763168335,-7.636392593383789
1782778621214556400,3.504556396484375,6.059133529663086,7.4993438720703125,-7.783444404602051
1782778621224566300,3.514566162109375,7.053040504455566,7.348386287689209,-7.571653842926025
1782778621234545400,3.52454541015625,7.363275527954102,7.496723175048828,-6.755667686462402
1782778621244555300,3.53455517578125,6.820689678192139,7.923481464385986,-5.212378978729248
1782778621254565000,3.544565185546875,6.130862236022949,8.589957237243652,-3.475679397583008
1782778621264544300,3.554544189453125,5.274260997772217,8.89719295501709,-2.780609369277954
1782778621274554000,3.56455419921875,4.825765609741211,9.130069732666016,-2.909420967102051
1782778621284563700,3.574563720703125,4.689593315124512,9.395776748657227,-2.754131555557251
1782778621294542800,3.58454296875,4.374505043029785,9.639334678649902,-2.384856700897217
1782778621304493000,3.5944931640625,3.8250579833984375,9.981649398803711,-1.878849983215332
1782778621314615000,3.604614990234375,2.994253635406494,10.208785057067871,-1.8559401035308838
1782778621324542000,3.6145419921875,2.305370807647705,10.07791519165039,-2.3218891620635986
1782778621334492000,3.624491943359375,1.983762264251709,9.821555137634277,-3.0799708366394043
1782778621345475000,3.63547509765625,1.5979366302490234,9.527873992919922,-3.934720993041992
1782778621364550400,3.65455029296875,1.1807115077972412,9.211553573608398,-4.258223533630371
1782778621374560000,3.66456005859375,1.5478326082229614,8.687132835388184,-4.87572717666626
1782778621384569900,3.67456982421875,1.8213071823120117,8.794687271118164,-4.789991855621338
1782778621394549000,3.684549072265625,2.514261484146118,8.100296020507812,-5.898502826690674
1782778621404558800,3.694558837890625,3.331681251525879,7.394687175750732,-6.685073375701904
1782778621414677200,3.70467724609375,3.4443111419677734,7.102461338043213,-6.797996997833252
1782778621424547800,3.7145478515625,3.0916900634765625,6.976371765136719,-6.2209553718566895
1782778621434557700,3.7245576171875,3.207925796508789,6.937639236450195,-5.367792129516602
1782778621444554000,3.734553955078125,3.6093506813049316,6.827378273010254,-5.502753257751465
1782778621454546700,3.744546630859375,3.885591983795166,6.483790397644043,-5.850339889526367
1782778621464556500,3.754556640625,4.435999393463135,6.092807292938232,-6.177762031555176
1782778621474566100,3.764566162109375,4.6318464279174805,6.102004528045654,-6.515396595001221
1782778621484545500,3.774545654296875,4.733048439025879,6.508172035217285,-6.287909507751465
1782778621494555400,3.784555419921875,4.907351493835449,7.1605424880981445,-6.05433464050293
1782778621504565000,3.79456494140625,5.76655912399292,7.556053638458252,-6.686659812927246
1782778621514544000,3.804544189453125,7.468547821044922,10.16145133972168,-7.63679313659668
1782778621524554000,3.814553955078125,9.70000171661377,13.764171600341797,-8.489429473876953
1782778621534563800,3.824563720703125,13.122504234313965,17.23208999633789,-8.273088455200195
1782778621544543000,3.83454296875,15.843852996826172,19.06989097595215,-4.639950275421143
1782778621564562700,3.854562744140625,23.98065948486328,23.887746810913086,0.8975658416748047
1782778621574541800,3.864541748046875,28.469924926757812,23.15291976928711,2.7958741188049316
1782778621584551700,3.8745517578125,32.921913146972656,20.316387176513672,3.4027109146118164
1782778621594561300,3.884561279296875,40.78496551513672,17.057296752929688,5.088704586029053
1782778621604540700,3.894540771484375,50.043922424316406,14.043188095092773,4.007856369018555
1782778621614550300,3.90455029296875,55.176612854003906,11.45903205871582,-0.6326088905334473
1782778621624560000,3.91456005859375,54.095855712890625,10.825404167175293,-5.551510334014893
1782778621634570000,3.924570068359375,46.37675094604492,11.988570213317871,-8.140420913696289
1782778621644549000,3.934549072265625,35.82468795776367,14.846263885498047,-7.976116180419922
1782778621654559000,3.94455908203125,25.593435287475586,18.27713966369629,-5.772772312164307
1782778621664568800,3.95456884765625,18.788036346435547,18.701438903808594,-2.597588062286377
1782778621674548000,3.9645478515625,16.74019432067871,17.686777114868164,-0.4484577178955078
1782778621684557600,3.9745576171875,17.06265640258789,16.581504821777344,0.7100558280944824
1782778621694567400,3.9845673828125,15.398185729980469,14.789556503295898,1.8525757789611816
1782778621705395700,3.995395751953125,17.698659896850586,13.098748207092285,4.832360744476318
1782778621724566300,4.014566162109375,15.58538818359375,9.724150657653809,1.2173333168029785
1782778621734545400,4.02454541015625,15.492714881896973,7.685647010803223,-1.0567982196807861
1782778621744555300,4.03455517578125,15.137048721313477,5.703598499298096,-4.227060317993164
1782778621754565000,4.044565185546875,15.09262752532959,4.870378494262695,-6.111521244049072
1782778621764544300,4.054544189453125,14.314736366271973,4.133128643035889,-6.962052345275879
1782778621774554000,4.06455419921875,13.724601745605469,3.262732982635498,-7.194635391235352
1782778621784563700,4.074563720703125,14.81473159790039,3.365251302719116,-8.015569686889648
1782778621794542800,4.08454296875,17.53073501586914,4.420567512512207,-8.129697799682617
1782778621804552700,4.094552734375,19.436080932617188,5.40261697769165,-6.436707019805908
1782778621814562600,4.1045625,19.71076202392578,6.509490489959717,-4.11433219909668
1782778621824542000,4.1145419921875,18.85951042175293,7.561993598937988,-2.9500749111175537
1782778621834551600,4.124551513671875,16.54623794555664,9.115976333618164,-2.5824499130249023
1782778621844561400,4.1345615234375,13.153462409973145,10.592928886413574,-4.5027337074279785
1782778621854540800,4.144540771484375,10.69017219543457,10.242246627807617,-7.135856628417969
1782778621864550400,4.15455029296875,10.251355171203613,9.257451057434082,-7.489423751831055
1782778621874560000,4.16456005859375,8.83821964263916,7.522253036499023,-7.61077880859375
1782778621884569900,4.17456982421875,7.465226173400879,6.511951446533203,-7.927567481994629
1782778621894549000,4.184549072265625,6.992264747619629,6.3698859214782715,-8.652576446533203
1782778621904558800,4.194558837890625,7.279939651489258,6.7929863929748535,-8.437252044677734
1782778621914568700,4.204568603515625,7.4486589431762695,7.046246528625488,-7.450119495391846
1782778621924547800,4.2145478515625,7.395388603210449,6.852254390716553,-6.217884063720703
1782778621934557700,4.2245576171875,7.293879508972168,6.5309247970581055,-5.813246250152588
1782778621944567600,4.234567626953125,7.084591865539551,6.397917747497559,-6.1245808601379395
1782778621954546700,4.244546630859375,6.7063703536987305,6.375002861022949,-6.635791301727295
1782778621964556500,4.254556640625,6.470381736755371,6.642303466796875,-6.757922172546387
1782778621974566100,4.264566162109375,6.203131198883057,6.823840618133545,-6.44801139831543
1782778621984545500,4.274545654296875,5.051236152648926,6.232674598693848,-6.294162273406982
1782778621994555400,4.284555419921875,3.837053060531616,5.686497688293457,-6.807756423950195
1782778622004565000,4.29456494140625,3.2415082454681396,5.2832441329956055,-7.682713508605957
1782778622014544100,4.304544189453125,3.422309160232544,5.117544651031494,-7.991044521331787
1782778622024554000,4.314553955078125,3.2402877807617188,4.669134140014648,-8.202625274658203
1782778622034563800,4.324563720703125,2.4779434204101562,4.280634880065918,-8.44365119934082
1782778622044543000,4.33454296875,1.5604805946350098,3.95292592048645,-8.29697322845459
1782778622054552800,4.344552734375,0.7817781567573547,4.346338748931885,-7.603682518005371
1782778622064562700,4.354562744140625,0.025258421897888184,5.521252632141113,-6.557628631591797
1782778622074542000,4.3645419921875,1.0347983837127686,6.109658718109131,-5.843803405761719
1782778622084551700,4.3745517578125,1.0377625226974487,7.413351058959961,-4.347048759460449
1782778622094561300,4.384561279296875,0.825910210609436,8.105514526367188,-3.0277202129364014
1782778622104540700,4.394540771484375,0.816874623298645,8.516556739807129,-2.8023245334625244
1782778622114550300,4.40455029296875,1.128725290298462,9.273992538452148,-2.5732831954956055
1782778622124560100,4.41456005859375,1.2463024854660034,10.060526847839355,-1.4838943481445312
1782778622134570000,4.424570068359375,1.3246060609817505,10.01492691040039,-0.7985701560974121
1782778622144549000,4.434549072265625,0.7638064026832581,9.283753395080566,-0.800086498260498
1782778622154559000,4.44455908203125,0.840009331703186,8.752311706542969,-1.2314276695251465
1782778622164568800,4.45456884765625,1.6395517587661743,8.16954517364502,-1.8406157493591309
1782778622174548000,4.4645478515625,4.025496482849121,7.772848129272461,-3.629998207092285
1782778622184557600,4.4745576171875,7.653320789337158,8.141561508178711,-7.3531999588012695
1782778622194567400,4.4845673828125,11.458243370056152,9.567816734313965,-11.819465637207031
1782778622204546600,4.494546630859375,16.405790328979492,7.369606971740723,-10.106382369995117
1782778622214556400,4.504556396484375,10.341070175170898,7.320671558380127,-3.9593007564544678
1782778622224566300,4.514566162109375,9.359807968139648,10.296867370605469,-2.974680185317993
1782778622234545400,4.52454541015625,7.720601558685303,13.964317321777344,-6.464767932891846
1782778622244555300,4.53455517578125,5.47710657119751,15.84549331665039,-7.60067081451416
1782778622254565000,4.544565185546875,4.002678871154785,17.33990478515625,-5.971319198608398
1782778622264544300,4.554544189453125,2.7867369651794434,19.92197036743164,-1.706941843032837
1782778622284563700,4.574563720703125,4.985593795776367,24.778663635253906,0.1438746452331543
1782778622294542800,4.58454296875,8.010427474975586,28.95761489868164,-2.989108085632324
1782778622304552700,4.594552734375,10.166714668273926,29.920455932617188,-7.913255214691162
1782778622314562600,4.6045625,13.943680763244629,27.241580963134766,-10.139520645141602
1782778622324542000,4.6145419921875,21.44034194946289,25.58975601196289,-8.87362003326416
1782778622334551600,4.624551513671875,27.267385482788086,20.870361328125,-4.6912126541137695
1782778622344561400,4.6345615234375,30.437395095825195,11.999958992004395,-3.2271053791046143
1782778622354540800,4.644540771484375,28.39311981201172,10.164692878723145,-5.0117292404174805
1782778622364550400,4.65455029296875,22.089191436767578,11.171409606933594,-6.46140193939209
1782778622374560000,4.66456005859375,16.04645347595215,11.586736679077148,-8.431835174560547
1782778622384569900,4.67456982421875,14.366032600402832,10.27140998840332,-8.408428192138672
1782778622394549000,4.684549072265625,17.48369026184082,9.549545288085938,-7.412013530731201
1782778622404558800,4.694558837890625,21.85047721862793,10.176520347595215,-3.9394779205322266
1782778622414568700,4.704568603515625,23.699857711791992,11.257457733154297,-0.5449533462524414
1782778622424547800,4.7145478515625,22.275806427001953,11.442161560058594,-1.0504674911499023
1782778622434557700,4.7245576171875,19.635507583618164,9.978365898132324,-3.68994402885437
1782778622444567600,4.734567626953125,18.53188133239746,7.5776801109313965,-6.83657693862915
1782778622454546700,4.744546630859375,17.828947067260742,5.945400714874268,-9.161375045776367
1782778622464556500,4.754556640625,17.086841583251953,5.207833290100098,-10.505778312683105
1782778622474566100,4.764566162109375,15.59990406036377,4.646463871002197,-10.861259460449219
1782778622484545500,4.774545654296875,14.785120010375977,4.345159530639648,-11.079559326171875
1782778622494555400,4.784555419921875,14.605537414550781,4.210012912750244,-10.659892082214355
1782778622504565000,4.79456494140625,14.326595306396484,5.43870735168457,-8.52052116394043
1782778622514544000,4.804544189453125,13.250432968139648,6.873978614807129,-5.604001998901367
1782778622524554000,4.814553955078125,11.278676986694336,8.425822257995605,-3.763976573944092
1782778622534563800,4.824563720703125,9.450766563415527,8.87895679473877,-2.9383513927459717
1782778622544543000,4.83454296875,7.941501617431641,8.548408508300781,-3.5482070446014404
1782778622554552800,4.844552734375,7.155027389526367,7.862051010131836,-5.502349853515625
1782778622564562700,4.854562744140625,8.002561569213867,6.938966751098633,-7.377226829528809
1782778622574542000,4.8645419921875,8.596826553344727,6.246850967407227,-8.399734497070312
1782778622584551700,4.8745517578125,8.47742748260498,5.9768147468566895,-9.187131881713867
1782778622594585600,4.884585693359375,8.013727188110352,6.044909954071045,-9.364062309265137
1782778622604565000,4.89456494140625,8.0620756149292,6.5396623611450195,-8.357446670532227
1782778622614574600,4.90457470703125,7.788651466369629,7.5560197830200195,-6.516335964202881
1782778622624584200,4.914584228515625,7.036268711090088,8.55096435546875,-4.763784885406494
1782778622634594000,4.924593994140625,6.013129234313965,8.998350143432617,-4.166186332702637
1782778622644573200,4.9345732421875,5.316093444824219,8.960430145263672,-4.6440205574035645
1782778622654583000,4.9445830078125,5.073195934295654,8.40362548828125,-4.255837440490723
1782778622664593000,4.954593017578125,5.743062496185303,8.057310104370117,-5.194738388061523
1782778622674572000,4.964572021484375,7.090859413146973,7.384982109069824,-6.3212738037109375
1782778622684582000,4.974581787109375,8.676387786865234,6.451471328735352,-7.4774322509765625
1782778622694591700,4.984591796875,8.901266098022461,5.967949390411377,-8.230411529541016
1782778622704571000,4.99457080078125,7.799759864807129,5.869728088378906,-8.33814525604248
1782778622714580700,5.004580810546875,5.702526092529297,6.494354248046875,-7.366549491882324
1782778622724590300,5.01459033203125,4.061410427093506,7.424403190612793,-5.821277618408203
1782778622734569500,5.024569580078125,3.703627824783325,8.222365379333496,-4.9353508949279785
1782778622744579300,5.034579345703125,4.305541515350342,8.362566947937012,-4.066051483154297
1782778622754589200,5.044589111328125,4.992929935455322,8.080769538879395,-4.928009510040283
1782778622764568300,5.054568359375,5.353498458862305,7.099770545959473,-6.577279090881348
1782778622774578200,5.064578125,5.243155479431152,6.429357528686523,-8.008402824401855
1782778622784588000,5.074588134765625,5.520238876342773,6.452380657196045,-8.197461128234863
1782778622794567200,5.084567138671875,6.234514236450195,6.686145305633545,-7.663937568664551
1782778622804577000,5.094576904296875,6.8253374099731445,7.14355993270874,-6.483882904052734
1782778622814586600,5.104586669921875,7.065147876739502,7.774539470672607,-5.5537109375
1782778622824566000,5.11456591796875,7.532800197601318,8.059728622436523,-5.699314117431641
1782778622834575600,5.12457568359375,7.664455890655518,8.098549842834473,-6.635890007019043
1782778622844585500,5.13458544921875,9.056928634643555,8.17597484588623,-7.365889549255371
1782778622854564900,5.14456494140625,12.55882453918457,8.929012298583984,-8.372783660888672
1782778622864574500,5.154574462890625,16.960655212402344,10.383831024169922,-8.821724891662598
1782778622874584300,5.164584228515625,21.880897521972656,11.529626846313477,-8.71121597290039
1782778622884594200,5.17459423828125,24.006643295288086,12.333456039428711,-7.254542350769043
1782778622894573300,5.1845732421875,24.13393783569336,13.759734153747559,-5.684364318847656
1782778622904583000,5.1945830078125,24.167152404785156,14.993282318115234,-4.835624694824219
1782778622924572000,5.214572021484375,23.247697830200195,16.1903018951416,-6.98954439163208
1782778622934581800,5.224581787109375,23.2929744720459,16.754796981811523,-8.342268943786621
1782778622944591600,5.234591552734375,25.09975814819336,17.761985778808594,-9.231891632080078
1782778622954570800,5.24457080078125,28.196609497070312,17.30763053894043,-9.939231872558594
1782778622964580600,5.25458056640625,29.184965133666992,16.85198211669922,-10.70088005065918
1782778622974590500,5.264590576171875,28.125503540039062,16.763771057128906,-9.036386489868164
1782778622984569600,5.274569580078125,27.454486846923828,16.861242294311523,-6.263916015625
1782778622994579500,5.284579345703125,26.460596084594727,17.001956939697266,-4.038888454437256
1782778623004589300,5.29458935546875,28.11520767211914,15.904698371887207,-3.646200180053711
1782778623014568400,5.304568359375,28.469467163085938,13.934974670410156,-5.707372188568115
1782778623024578300,5.314578369140625,25.3729305267334,12.164525032043457,-8.250475883483887
1782778623034588000,5.324587890625,21.066133499145508,11.036317825317383,-9.051109313964844
1782778623044567000,5.334567138671875,16.688119888305664,10.410888671875,-8.949675559997559
1782778623054577000,5.344576904296875,13.577497482299805,9.774578094482422,-8.267623901367188
1782778623064586800,5.354586669921875,12.463462829589844,9.191160202026367,-7.110934257507324
1782778623074566100,5.364566162109375,12.359698295593262,8.211907386779785,-6.57255220413208
1782778623084575700,5.37457568359375,13.528987884521484,7.164616107940674,-6.902316570281982
1782778623094585600,5.384585693359375,14.262918472290039,5.941296577453613,-7.53334379196167
1782778623104565000,5.39456494140625,13.493617057800293,5.275337219238281,-8.208319664001465
1782778623114574600,5.40457470703125,11.707671165466309,5.323183536529541,-7.895294666290283
1782778623124584200,5.414584228515625,9.475242614746094,6.160367965698242,-6.836824893951416
1782778623134594000,5.424593994140625,6.912158012390137,6.939905643463135,-6.020785808563232
1782778623144573200,5.4345732421875,5.217875003814697,7.060466289520264,-6.551250457763672
1782778623154583000,5.4445830078125,5.002485752105713,6.958316802978516,-6.640582084655762
1782778623164593000,5.454593017578125,5.952664375305176,7.565185546875,-6.296869277954102
1782778623174572000,5.464572021484375,6.198212623596191,8.073776245117188,-5.815938472747803
1782778623184582000,5.474581787109375,5.551653861999512,8.069189071655273,-6.781071186065674
1782778623194591700,5.484591796875,4.28037166595459,7.828718662261963,-7.5650482177734375
1782778623204571000,5.49457080078125,2.801697015762329,7.92074728012085,-7.648926734924316
1782778623214689300,5.504689208984375,1.5017805099487305,7.977201461791992,-7.33201265335083
1782778623224559900,5.514559814453125,1.135697364807129,8.123761177062988,-7.025031089782715
1782778623234569500,5.524569580078125,1.4993051290512085,8.250800132751465,-6.813894748687744
1782778623244565800,5.534565673828125,2.3546910285949707,8.278164863586426,-6.752254009246826
1782778623254558700,5.544558837890625,3.76578426361084,8.050872802734375,-6.758635997772217
1782778623264568300,5.554568359375,5.201836585998535,7.7732038497924805,-6.89993953704834
1782778623274578200,5.564578125,6.265469551086426,7.474876880645752,-7.005619049072266
1782778623284588000,5.574588134765625,6.636791229248047,7.132940292358398,-7.104421138763428
1782778623294567200,5.584567138671875,6.500210285186768,7.379493236541748,-6.686886310577393
1782778623304517400,5.594517333984375,5.976909637451172,7.7122673988342285,-5.574267387390137
1782778623314647800,5.604647705078125,5.592496871948242,7.86683464050293,-5.049160957336426
1782778623324566000,5.61456591796875,5.781190395355225,7.755949020385742,-5.339376449584961
1782778623334516000,5.624515869140625,5.902247428894043,7.329522132873535,-6.004742622375488
1782778623345380400,5.63538037109375,5.411507606506348,7.100428104400635,-6.631768226623535
1782778623364574500,5.654574462890625,3.751248836517334,7.350052833557129,-6.629985809326172
1782778623374296000,5.664296142578125,2.537214517593384,7.546828746795654,-6.229108810424805
1782778623384563500,5.6745634765625,1.7673125267028809,7.741943359375,-6.070669174194336
1782778623394513700,5.684513671875,1.6250661611557007,7.942779541015625,-5.8846964836120605
1782778623404644000,5.69464404296875,2.01717209815979,8.075339317321777,-5.512265682220459
1782778623414592800,5.7045927734375,2.460571765899658,8.261303901672363,-5.462585926055908
1782778623424572000,5.714572021484375,2.6451644897460938,8.17812728881836,-5.6374430656433105
1782778623434581800,5.724581787109375,1.7398960590362549,7.8301262855529785,-5.852231502532959
1782778623444591600,5.734591552734375,0.49738430976867676,8.087957382202148,-5.988044261932373
1782778623454570800,5.74457080078125,-0.13419556617736816,8.133452415466309,-5.1074299812316895
1782778623464580600,5.75458056640625,0.3927438259124756,7.908933162689209,-4.494413375854492
1782778623474590500,5.764590576171875,1.9603098630905151,7.522138595581055,-5.122223854064941
1782778623484569600,5.774569580078125,4.065972805023193,7.00378942489624,-5.754639148712158
1782778623494579500,5.784579345703125,6.106757640838623,6.795008182525635,-5.986823081970215
1782778623504589300,5.79458935546875,9.596858024597168,7.135975360870361,-6.2963714599609375
1782778623514568400,5.804568359375,13.056537628173828,8.264338493347168,-6.566625118255615
1782778623524578300,5.814578369140625,16.79046630859375,9.66788387298584,-6.594278335571289
1782778623534588000,5.824587890625,20.04144859313965,10.837174415588379,-6.663722991943359
1782778623544567000,5.834567138671875,21.126380920410156,12.090483665466309,-7.1614580154418945
1782778623564586800,5.854586669921875,24.384931564331055,14.603523254394531,-6.862975120544434
1782778623574566100,5.864566162109375,26.362239837646484,16.033288955688477,-6.854649543762207
1782778623584575700,5.87457568359375,28.62983512878418,17.114933013916016,-7.05377197265625
1782778623594585600,5.884585693359375,29.41420555114746,18.79462242126465,-6.905162811279297
1782778623604565000,5.89456494140625,28.401958465576172,19.904335021972656,-5.236671447753906
1782778623614574600,5.90457470703125,27.44888687133789,20.122894287109375,-5.141888618469238
1782778623624584200,5.914584228515625,27.317752838134766,19.65183448791504,-5.303620338439941
1782778623634594000,5.924593994140625,29.229032516479492,18.5877685546875,-5.909614086151123
1782778623644573200,5.9345732421875,32.578426361083984,17.024444580078125,-5.281161785125732
1782778623654583000,5.9445830078125,35.86161804199219,14.543846130371094,-5.035397052764893
1782778623664593000,5.954593017578125,39.21739196777344,12.245546340942383,-6.094020843505859
1782778623674572000,5.964572021484375,40.96867370605469,10.93322467803955,-7.171619415283203
1782778623684582000,5.974581787109375,40.83443832397461,11.108377456665039,-6.94272518157959
1782778623694591700,5.984591796875,37.28451156616211,12.564836502075195,-4.776359558105469
1782778623704511200,5.99451123046875,31.436525344848633,14.55465030670166,-1.7427916526794434
1782778623714641700,6.0046416015625,23.27780532836914,15.57181167602539,-0.4635739326477051
1782778623724590300,6.01459033203125,16.523910522460938,14.64697551727295,-2.4170475006103516
1782778623734509800,6.024509765625,11.701837539672852,13.511728286743164,-4.262475967407227
1782778623745343700,6.03534375,9.093438148498535,11.229826927185059,-6.763907432556152
1782778623764568300,6.054568359375,7.829812049865723,7.058269023895264,-9.826095581054688
1782778623774578200,6.064578125,8.645350456237793,5.681960582733154,-9.675802230834961
1782778623784588000,6.074588134765625,9.551811218261719,4.718727111816406,-9.77672004699707
1782778623794567200,6.084567138671875,9.57595157623291,4.326424598693848,-9.263786315917969
1782778623804577000,6.094576904296875,9.299616813659668,4.953330993652344,-8.403908729553223
1782778623814586600,6.104586669921875,8.164196014404297,6.081787586212158,-7.2856316566467285
1782778623824565800,6.114565673828125,6.35805606842041,7.203681468963623,-6.610835075378418
1782778623834575600,6.12457568359375,4.917198657989502,7.748277187347412,-6.383547306060791
1782778623844585500,6.13458544921875,3.651700019836426,8.151378631591797,-6.8376054763793945
1782778623854564600,6.144564697265625,2.421985149383545,8.38519287109375,-6.2300238609313965
1782778623864574500,6.154574462890625,1.2620148658752441,8.9688720703125,-6.270003795623779
1782778623874584300,6.164584228515625,0.3024911880493164,9.09965705871582,-6.461402416229248
1782778623884594200,6.17459423828125,-0.45665693283081055,9.066733360290527,-6.67365837097168
1782778623894573300,6.1845732421875,-0.9540507793426514,9.153951644897461,-6.5215630531311035
1782778623904583200,6.194583251953125,-1.0909099578857422,9.107552528381348,-5.9692702293396
1782778623914592800,6.2045927734375,-0.8218774795532227,8.934688568115234,-5.834404945373535
1782778623924572200,6.214572265625,0.08867549896240234,8.600227355957031,-5.874205589294434
1782778623934581800,6.224581787109375,1.4255788326263428,8.274348258972168,-5.774054050445557
1782778623944591600,6.234591552734375,2.0502333641052246,8.087374687194824,-5.763510227203369
1782778623954679300,6.24467919921875,2.218402862548828,7.712181091308594,-6.000979423522949
1782778623964580600,6.25458056640625,2.499683380126953,7.388686656951904,-6.328978538513184
1782778623974590500,6.264590576171875,2.7102222442626953,7.213838577270508,-6.349740982055664
1782778623984569600,6.274569580078125,2.816560745239258,7.1733198165893555,-6.089911937713623
1782778623994579500,6.284579345703125,2.6326935291290283,7.271879196166992,-5.9128217697143555
1782778624004362000,6.294362060546875,2.037933349609375,7.350335121154785,-5.751908302307129
1782778624014568400,6.304568359375,1.727524757385254,7.309795379638672,-5.741702556610107
1782778624024578300,6.314578369140625,2.1770589351654053,7.251171112060547,-5.902547836303711
1782778624034588000,6.324587890625,2.80393385887146,7.115444660186768,-6.37640905380249
1782778624044628200,6.334628173828125,2.5530636310577393,7.279935836791992,-6.521914482116699
1782778624054685200,6.344685302734375,1.4983773231506348,7.764135837554932,-5.989379405975342
1782778624064556300,6.354556396484375,0.5364607572555542,8.06361198425293,-5.52992057800293
1782778624074566000,6.36456591796875,0.48984062671661377,8.275858879089355,-5.423089981079102
1782778624084653800,6.37465380859375,1.559171438217163,8.182759284973145,-5.45400333404541
1782778624094555100,6.38455517578125,2.8909592628479004,7.8264241218566895,-5.997171401977539
1782778624104564700,6.394564697265625,3.5413599014282227,7.656853199005127,-6.099971771240234
1782778624114574600,6.40457470703125,3.3734984397888184,7.591250419616699,-5.840329170227051
1782778624124174000,6.414174072265625,3.1069531440734863,7.624716281890869,-5.578980922698975
1782778624134594000,6.424593994140625,2.8844690322875977,7.429609775543213,-5.450836181640625
1782778624144573200,6.4345732421875,3.442615509033203,6.9153900146484375,-5.886363506317139
1782778624154583000,6.4445830078125,5.8502912521362305,6.601368427276611,-6.152216911315918
1782778624164593000,6.454593017578125,9.262825012207031,6.804715156555176,-5.83849573135376
1782778624174572000,6.464572021484375,12.001015663146973,8.606620788574219,-6.120787620544434
1782778624184582000,6.474581787109375,14.266397476196289,9.903637886047363,-6.4042792320251465
1782778624204571000,6.49457080078125,16.461517333984375,12.47518539428711,-6.781399250030518
1782778624214580700,6.504580810546875,19.579917907714844,13.608133316040039,-5.257638931274414
1782778624224590300,6.51459033203125,24.154640197753906,14.596736907958984,-4.802418231964111
1782778624234569500,6.524569580078125,28.6081600189209,15.687910079956055,-4.85392427444458
1782778624244579300,6.534579345703125,30.389720916748047,16.391605377197266,-4.4867401123046875
1782778624254589200,6.544589111328125,29.067514419555664,16.828441619873047,-3.396742820739746
1782778624264568300,6.554568359375,27.125032424926758,18.15854263305664,-2.11370587348938
1782778624274578200,6.564578125,27.82246208190918,19.290727615356445,-0.7230968475341797
1782778624284588000,6.574588134765625,31.189090728759766,19.035400390625,-1.3796782493591309
1782778624294567200,6.584567138671875,34.793052673339844,17.35504913330078,-3.3194661140441895
1782778624304577000,6.594576904296875,38.12533187866211,15.690033912658691,-4.235525131225586
1782778624314586600,6.604586669921875,40.643978118896484,14.654024124145508,-3.924440383911133
1782778624324565800,6.614565673828125,41.4985237121582,14.27221393585205,-3.050246477127075
1782778624334575600,6.62457568359375,41.064701080322266,14.63656234741211,-1.7614047527313232
1782778624344585500,6.63458544921875,40.67559051513672,14.959711074829102,-1.7431223392486572
1782778624354564600,6.644564697265625,38.5338134765625,14.925023078918457,-3.1018788814544678
1782778624364574500,6.654574462890625,33.98939514160156,15.053268432617188,-3.2135846614837646
1782778624374584300,6.664584228515625,26.74437141418457,14.931325912475586,-3.7354044914245605
1782778624384594200,6.67459423828125,18.606822967529297,14.816574096679688,-3.8201651573181152
1782778624394573300,6.6845732421875,11.842567443847656,14.070853233337402,-4.544447422027588
1782778624404583200,6.694583251953125,7.857166290283203,12.630414009094238,-5.659900188446045
1782778624414592800,6.7045927734375,6.101656913757324,10.95328426361084,-6.776845932006836
1782778624424572200,6.714572265625,6.434091567993164,9.407095909118652,-7.58334493637085
1782778624434581800,6.724581787109375,6.88762092590332,8.61782455444336,-7.761587142944336
1782778624444591600,6.734591552734375,7.2175374031066895,8.276871681213379,-7.487078666687012
1782778624454570800,6.74457080078125,7.092778205871582,8.123821258544922,-7.18601655960083
1782778624464580600,6.75458056640625,6.105430603027344,8.385421752929688,-6.424367904663086
1782778624474590500,6.764590576171875,4.6440839767456055,8.071962356567383,-6.10416316986084
1782778624484569600,6.774569580078125,2.961207151412964,7.934354305267334,-6.617233753204346
1782778624494698000,6.784697998046875,1.7294057607650757,8.220295906066895,-6.970157623291016
1782778624504558800,6.794558837890625,0.8599667549133301,8.375018119812012,-7.220567226409912
1782778624514568400,6.804568359375,0.5288889408111572,8.502837181091309,-6.811334609985352
1782778624524578300,6.814578369140625,0.8250129222869873,8.918091773986816,-7.58939266204834
1782778624534588000,6.824587890625,1.1998480558395386,8.755305290222168,-8.154035568237305
1782778624544567000,6.834567138671875,1.155028223991394,8.803163528442383,-8.425420761108398
1782778624554577000,6.844576904296875,0.44156479835510254,8.79456615447998,-8.14412784576416
1782778624564586800,6.854586669921875,-0.14088749885559082,8.911882400512695,-7.630580902099609
1782778624574566100,6.864566162109375,-0.18128371238708496,8.92220401763916,-7.071374893188477
1782778624584575700,6.87457568359375,0.18913793563842773,8.696925163269043,-6.803823471069336
1782778624594585600,6.884585693359375,0.7718740701675415,8.47796630859375,-6.765298843383789
1782778624604565000,6.89456494140625,1.4759907722473145,8.246530532836914,-6.418918132781982
1782778624614652700,6.904652587890625,2.0817959308624268,8.04443359375,-6.1673583984375
1782778624624584200,6.914584228515625,2.534172296524048,7.830646991729736,-5.840966701507568
1782778624634594000,6.924593994140625,2.9485459327697754,7.544055938720703,-5.6413798332214355
1782778624644285200,6.93428515625,3.2377889156341553,7.311960697174072,-5.494297981262207
1782778624654583000,6.9445830078125,3.318586826324463,6.9650983810424805,-5.554121017456055
1782778624664593000,6.954593017578125,3.1054000854492188,6.77067232131958,-5.764657020568848
1782778624674572000,6.964572021484375,2.8369455337524414,6.65705680847168,-5.5959062576293945
1782778624684582000,6.974581787109375,3.0886077880859375,6.572363376617432,-5.460342884063721
1782778624694700000,6.984699951171875,3.609823703765869,6.600889205932617,-5.560114860534668
1782778624704571000,6.99457080078125,3.686476230621338,6.858242511749268,-5.347471237182617
1782778624714580700,7.004580810546875,3.184544324874878,7.2753424644470215,-4.915402889251709
1782778624724607200,7.014607177734375,2.7038135528564453,7.433535099029541,-5.119598388671875
1782778624734509800,7.024509765625,3.11360502243042,7.586310386657715,-5.7229132652282715
1782778624749237500,7.039237548828125,4.488996982574463,8.040814399719238,-5.518478870391846
1782778624764568300,7.054568359375,5.546382904052734,8.556678771972656,-5.421778678894043
1782778624774578200,7.064578125,5.984944820404053,8.372210502624512,-5.733523368835449
1782778624784588000,7.074588134765625,6.488114356994629,8.117353439331055,-6.3003973960876465
1782778624794567200,7.084567138671875,6.856889724731445,8.017017364501953,-6.3638739585876465
1782778624804517400,7.094517333984375,7.053896903991699,8.17367935180664,-6.443512439727783
1782778624814647800,7.104647705078125,7.818386077880859,8.653562545776367,-6.408703804016113
1782778624824506000,7.114506103515625,9.605018615722656,9.095968246459961,-5.5749125480651855
1782778624834636500,7.124636474609375,12.339298248291016,9.849994659423828,-5.111820220947266
1782778624844585500,7.13458544921875,15.868002891540527,10.745912551879883,-4.750222206115723
1782778624854564600,7.144564697265625,19.270877838134766,12.361702919006348,-4.345183372497559
1782778624864574500,7.154574462890625,21.236549377441406,13.947973251342773,-3.443215847015381
1782778624874584300,7.164584228515625,22.3314151763916,14.608138084411621,-2.636880874633789
1782778624884594200,7.17459423828125,23.557044982910156,15.692317962646484,-3.7532646656036377
1782778624894573300,7.1845732421875,23.966737747192383,17.384117126464844,-5.268618583679199
1782778624904583000,7.1945830078125,23.16129493713379,19.3419132232666,-6.137741565704346
1782778624924572200,7.214572265625,19.281234741210938,22.005313873291016,-2.8670294284820557
1782778624934522000,7.224522216796875,18.902738571166992,22.901805877685547,-2.342848062515259
1782778624945474300,7.235474365234375,21.46799087524414,22.993955612182617,-2.0637407302856445
1782778624964580600,7.25458056640625,26.699323654174805,20.598506927490234,-4.086768627166748
1782778624974590500,7.264590576171875,29.917028427124023,18.469013214111328,-5.365589618682861
1782778624984569600,7.274569580078125,32.91696548461914,16.360023498535156,-6.555545806884766
1782778624994579500,7.284579345703125,35.754417419433594,15.359771728515625,-6.852685928344727
1782778625004589300,7.29458935546875,35.60573959350586,15.191112518310547,-5.678462028503418
1782778625014568400,7.304568359375,32.60629653930664,15.49591064453125,-4.1238932609558105
1782778625024578300,7.314578369140625,28.6186466217041,15.664586067199707,-2.937124490737915
1782778625034588000,7.324587890625,24.820005416870117,15.713502883911133,-1.8313469886779785
1782778625044567000,7.334567138671875,20.826990127563477,14.80908489227295,-2.536616563796997
1782778625054577000,7.344576904296875,16.89080238342285,13.518945693969727,-3.6267478466033936
1782778625064586800,7.354586669921875,13.252799034118652,12.015511512756348,-4.925740718841553
1782778625074566100,7.364566162109375,9.798376083374023,10.589221000671387,-6.105926036834717
1782778625084575700,7.37457568359375,7.018370628356934,9.488205909729004,-6.592928886413574
1782778625094585600,7.384585693359375,6.004311561584473,8.27707290649414,-7.183586597442627
1782778625104564700,7.394564697265625,7.105643272399902,7.336255073547363,-7.785150051116943
1782778625114574600,7.40457470703125,8.112950325012207,6.918724536895752,-7.711873531341553
1782778625124584200,7.414584228515625,8.03344440460205,6.850473403930664,-7.416990280151367
1782778625134594000,7.424593994140625,5.435349941253662,7.388847351074219,-6.935292720794678
1782778625144573200,7.4345732421875,2.0498883724212646,8.032121658325195,-5.951501369476318
1782778625154583000,7.4445830078125,-0.49381184577941895,8.305818557739258,-5.785613059997559
1782778625164593000,7.454593017578125,-2.064239978790283,8.347789764404297,-6.058470726013184
1782778625174572000,7.464572021484375,-2.3340907096862793,8.399765968322754,-6.556272506713867
1782778625184582000,7.474581787109375,-1.6138784885406494,8.245996475219727,-7.221810817718506
1782778625194591700,7.484591796875,-0.9110884666442871,8.300857543945312,-7.827592849731445
1782778625204571000,7.49457080078125,-0.8208949565887451,8.393961906433105,-7.841851234436035
1782778625214580700,7.504580810546875,-0.7212841510772705,8.46772575378418,-7.474163055419922
1782778625224590300,7.51459033203125,-0.11799335479736328,8.626527786254883,-6.829906940460205
1782778625234569500,7.524569580078125,0.566441535949707,8.859013557434082,-6.312306880950928
1782778625244697900,7.53469775390625,1.168020248413086,8.816141128540039,-6.059122085571289
1782778625254558700,7.544558837890625,2.0025739669799805,8.5153226852417,-6.126209259033203
1782778625264568300,7.554568359375,2.8673558235168457,8.238547325134277,-6.169188499450684
1782778625274578200,7.564578125,3.163193464279175,7.882473945617676,-6.283744812011719
1782778625284238800,7.57423876953125,3.667086362838745,7.844684600830078,-6.13593864440918
1782778625294567200,7.584567138671875,3.9562504291534424,7.743714809417725,-5.9507670402526855
1782778625304576800,7.59457666015625,4.037829875946045,7.667052268981934,-6.131938457489014
1782778625314586600,7.604586669921875,4.3739914894104,7.557836055755615,-6.170576095581055
1782778625324566000,7.61456591796875,4.155753135681152,7.630073547363281,-5.968728065490723
1782778625334575600,7.62457568359375,3.913731098175049,7.8142170906066895,-5.444293022155762
1782778625344694000,7.634694091796875,3.7625985145568848,8.094929695129395,-4.963097095489502
1782778625354505000,7.6445048828125,3.6943321228027344,8.08517074584961,-5.0940070152282715
1782778625364666000,7.654666015625,3.364534378051758,7.9685211181640625,-5.568099498748779
1782778625374584300,7.664584228515625,2.8637843132019043,8.014080047607422,-5.817796230316162
1782778625384594200,7.67459423828125,2.379037857055664,7.843408584594727,-6.208765983581543
1782778625394573300,7.6845732421875,2.505727767944336,8.02075481414795,-5.86505126953125
1782778625404827400,7.694827392578125,3.2936654090881348,8.402588844299316,-4.961022853851318
1782778625414600700,7.7046005859375,3.8422937393188477,8.431577682495117,-4.832885265350342
1782778625424572200,7.714572265625,4.477414131164551,8.09466552734375,-5.649245738983154
1782778625434581800,7.724581787109375,5.094517707824707,7.629738807678223,-5.899601459503174
1782778625444591600,7.734591552734375,5.350221633911133,7.480517864227295,-5.611812114715576
1782778625454570800,7.74457080078125,6.141583442687988,7.195754528045654,-5.291994094848633
1782778625464580600,7.75458056640625,6.203640937805176,7.097375869750977,-5.276135444641113
1782778625474590500,7.764590576171875,6.270747661590576,7.345590591430664,-5.281805515289307
1782778625484569600,7.774569580078125,7.793149948120117,8.594135284423828,-4.225691318511963
1782778625494579500,7.784579345703125,9.446614265441895,9.535975456237793,-3.864698886871338
1782778625504589300,7.79458935546875,10.668694496154785,10.274633407592773,-5.286809921264648
1782778625514568400,7.804568359375,11.265260696411133,12.500207901000977,-6.303097248077393
1782778625524578300,7.814578369140625,12.547418594360352,14.03512191772461,-5.392905235290527
1782778625534588000,7.824587890625,15.399751663208008,14.72907829284668,-5.827104091644287
1782778625544567000,7.834567138671875,16.598255157470703,15.259092330932617,-6.3677778244018555
