time,seconds_elapsed,z,y,x
1782778874652727600,0.1797275390625,-3.4409327507019043,-0.6465311050415039,-0.7839456796646118
1782778874662737400,0.1897373046875,-3.3062448501586914,-1.1368175745010376,-1.0309185981750488
1782778874672747000,0.1997470703125,-3.309694290161133,-1.236131191253662,-0.9960901737213135
1782778874682726100,0.20972607421875,-3.290623664855957,-0.9897861480712891,-0.5033217668533325
1782778874692736000,0.219736083984375,-3.368180751800537,-0.7380595207214355,-0.6001160144805908
1782778874702745900,0.229745849609375,-3.444182872772217,-0.6214802861213684,-1.3961009979248047
1782778874712725000,0.23972509765625,-2.793285846710205,-0.5734724402427673,-2.9016942977905273
1782778874722734800,0.24973486328125,-2.1104021072387695,-0.2128639817237854,-3.670478343963623
1782778874732744700,0.25974462890625,-2.428992748260498,0.3075942397117615,-3.3665313720703125
1782778874742723800,0.269723876953125,-3.657592296600342,0.8221142888069153,-2.863835096359253
1782778874752733700,0.279733642578125,-5.807755470275879,0.940651535987854,-2.932072162628174
1782778874762743600,0.28974365234375,-8.518407821655273,0.6871132850646973,-3.4890456199645996
1782778874772722700,0.29972265625,-10.466082572937012,0.30925804376602173,-3.67777943611145
1782778874782732300,0.309732177734375,-12.070484161376953,0.18765372037887573,-2.9396896362304688
1782778874792742100,0.3197421875,-12.780069351196289,-0.10035300254821777,-1.6801536083221436
1782778874802721500,0.329721435546875,-11.5330810546875,-0.31906187534332275,-2.703941822052002
1782778874812731100,0.339731201171875,-9.045656204223633,-0.4152025282382965,-3.2335801124572754
1782778874822741000,0.349740966796875,-6.4749298095703125,-0.48218563199043274,-2.305521249771118
1782778874832720400,0.359720458984375,-4.465177536010742,-0.4269639849662781,-1.6508378982543945
1782778874842730000,0.36972998046875,-3.6293931007385254,-0.4066970944404602,-1.399938702583313
1782778874852739800,0.37973974609375,-3.512873649597168,-0.5478459596633911,-2.0647804737091064
1782778874862719000,0.389718994140625,-3.113196849822998,-0.4747704565525055,-2.392634868621826
1782778874872728600,0.399728515625,-2.9989066123962402,-0.8038862943649292,0.26481276750564575
1782778874882738400,0.409738525390625,-2.9451918601989746,-0.8743537068367004,0.5438105463981628
1782778874892748300,0.419748291015625,-3.535459041595459,-0.8550742268562317,-0.22885656356811523
1782778874902727400,0.4297275390625,-4.2005696296691895,-0.7710621953010559,-0.5871371030807495
1782778874912737300,0.4397373046875,-5.844948768615723,-0.10513514280319214,-0.6746909618377686
1782778874922747100,0.4497470703125,-7.476285934448242,0.834709644317627,1.160095453262329
1782778874932726300,0.459726318359375,-8.012900352478027,1.743200659751892,3.2207326889038086
1782778874942736100,0.469736083984375,-8.549094200134277,1.9899002313613892,4.122049331665039
1782778874952745700,0.479745849609375,-8.733955383300781,1.7320729494094849,4.171918869018555
1782778874962724900,0.489724853515625,-8.757733345031738,1.1578283309936523,3.8631038665771484
1782778874972734700,0.499734619140625,-8.366381645202637,0.3581753671169281,3.230252742767334
1782778874982744600,0.50974462890625,-7.673185348510742,-0.27008193731307983,2.8428235054016113
1782778874992723700,0.5197236328125,-6.493492126464844,-0.5897889137268066,2.511329174041748
1782778875002733600,0.529733642578125,-5.612924575805664,-0.6576536893844604,2.176119327545166
1782778875012743400,0.539743408203125,-4.87723445892334,-0.7844599485397339,1.7910621166229248
1782778875022722800,0.549722900390625,-5.101651668548584,-1.272711992263794,1.0867035388946533
1782778875032732400,0.559732421875,-5.164404392242432,-1.9321436882019043,0.07463550567626953
1782778875042742300,0.5697421875,-3.715078353881836,-2.1356773376464844,-0.7683004140853882
1782778875052721400,0.579721435546875,-2.4651827812194824,-2.235212802886963,0.3312680721282959
1782778875062731000,0.58973095703125,0.4545402526855469,-2.0573923587799072,1.725189208984375
1782778875072740900,0.599740966796875,4.343982696533203,-0.49470409750938416,1.640394926071167
1782778875082720300,0.60972021484375,6.722470283508301,0.17838233709335327,3.7201497554779053
1782778875092729900,0.619729736328125,8.712249755859375,0.9408142566680908,5.8172993659973145
1782778875102739700,0.62973974609375,7.474369049072266,3.2755637168884277,5.985350608825684
1782778875112718800,0.63971875,7.801131248474121,2.2103888988494873,2.8305137157440186
1782778875122728700,0.649728759765625,9.7354736328125,3.070584774017334,2.7715237140655518
1782778875132738600,0.659738525390625,10.922776222229004,3.976693868637085,5.035673141479492
1782778875142748200,0.669748046875,12.03723430633545,5.182361125946045,5.720632553100586
1782778875152727600,0.6797275390625,13.8206148147583,6.640206336975098,6.4590864181518555
1782778875162737400,0.6897373046875,16.5791015625,7.6434760093688965,7.402551651000977
1782778875172747000,0.6997470703125,19.934486389160156,7.13173246383667,7.247035026550293
1782778875182726100,0.70972607421875,22.70987319946289,6.422237396240234,6.921139717102051
1782778875192736000,0.719736083984375,23.261674880981445,6.217056751251221,8.34018325805664
1782778875202745900,0.729745849609375,21.183387756347656,6.549165725708008,10.240541458129883
1782778875212725200,0.739725341796875,18.241016387939453,6.73599100112915,11.745368003845215
1782778875222734800,0.74973486328125,15.923958778381348,6.809007167816162,11.872002601623535
1782778875232744700,0.75974462890625,13.45082950592041,6.456538677215576,10.312803268432617
1782778875242723800,0.769723876953125,9.90830135345459,5.926852226257324,8.190710067749023
1782778875252733700,0.779733642578125,5.8167314529418945,5.770301342010498,6.718864917755127
1782778875262743300,0.789743408203125,1.5828485488891602,5.336426258087158,5.559526443481445
1782778875272722400,0.799722412109375,-3.260878086090088,4.980447769165039,5.445274353027344
1782778875282732300,0.809732177734375,-8.743892669677734,4.3340253829956055,5.559243679046631
1782778875292742100,0.8197421875,-11.825876235961914,3.1942343711853027,5.7093377113342285
1782778875302721300,0.82972119140625,-11.06059741973877,1.1442188024520874,4.315247535705566
1782778875312731100,0.839731201171875,-5.7093305587768555,-0.8233967423439026,1.8721463680267334
1782778875322741000,0.849740966796875,-0.6833639144897461,-2.002779483795166,0.9427011013031006
1782778875332720000,0.85972021484375,2.84207820892334,-1.870383381843567,0.7259366512298584
1782778875342730000,0.86972998046875,4.847042083740234,-0.8532677292823792,1.726954698562622
1782778875352739800,0.87973974609375,4.144597053527832,-0.3754248321056366,2.1651296615600586
1782778875362719000,0.889718994140625,0.46324825286865234,-0.2385907769203186,1.6416282653808594
1782778875372728600,0.899728515625,-4.028158187866211,0.41973021626472473,1.8063445091247559
1782778875382738400,0.909738525390625,-7.46434211730957,0.6631864309310913,1.277984857559204
1782778875392748300,0.919748291015625,-10.674718856811523,0.5302363634109497,0.6471509337425232
1782778875402727700,0.929727783203125,-12.192863464355469,0.35116568207740784,0.06793391704559326
1782778875412737300,0.9397373046875,-11.854989051818848,0.04825744032859802,-0.33798718452453613
1782778875422747100,0.9497470703125,-10.709105491638184,-0.5002325177192688,-0.5722354650497437
1782778875432726500,0.9597265625,-9.311053276062012,-0.6475741267204285,-0.34703707695007324
1782778875442735900,0.96973583984375,-8.628141403198242,-0.9500066637992859,-0.13278818130493164
1782778875452745700,0.979745849609375,-8.93167781829834,-1.2340788841247559,-0.1220628023147583
1782778875462724900,0.989724853515625,-9.381551742553711,-1.210479497909546,0.6954143047332764
1782778875472426800,0.9994267578125,-9.882063865661621,-1.329203486442566,1.7320748567581177
1782778875482714000,1.009714111328125,-9.63289737701416,-1.2629095315933228,1.9906888008117676
1782778875492724000,1.019723876953125,-9.30713176727295,-1.489710807800293,1.6741971969604492
1782778875502843000,1.0298427734375,-8.395699501037598,-1.6560887098312378,1.2187273502349854
1782778875512713000,1.039712890625,-7.501755714416504,-1.537947177886963,1.264805793762207
1782778875522722600,1.04972265625,-6.919748306274414,-1.0756959915161133,1.7857450246810913
1782778875532732400,1.059732421875,-6.828104019165039,-0.9061542749404907,1.7731952667236328
1782778875542742300,1.0697421875,-7.111523628234863,-1.053568959236145,1.3278234004974365
1782778875552721400,1.079721435546875,-7.670283794403076,-0.7600712180137634,1.510277271270752
1782778875562731000,1.08973095703125,-7.667431354522705,-0.37206214666366577,2.2311034202575684
1782778875572740900,1.099740966796875,-7.2158589363098145,-0.0014683008193969727,2.907623767852783
1782778875582720000,1.109719970703125,-7.3064680099487305,0.12653061747550964,3.1223654747009277
1782778875592729900,1.119729736328125,-8.065864562988281,0.418593168258667,3.201910972595215
1782778875602739700,1.12973974609375,-9.33496379852295,0.5300061106681824,3.019637107849121
1782778875612828200,1.139828125,-10.202746391296387,0.8004468679428101,3.3713502883911133
1782778875622728700,1.149728759765625,-10.786111831665039,0.981635332107544,3.7986788749694824
1782778875632738600,1.159738525390625,-10.228130340576172,0.9176884889602661,3.4811208248138428
1782778875642857500,1.169857421875,-8.89261531829834,0.6258895397186279,2.5856103897094727
1782778875652727600,1.1797275390625,-7.538220405578613,0.23502948880195618,1.5392158031463623
1782778875662737400,1.1897373046875,-5.685836315155029,-0.005529046058654785,1.3637268543243408
1782778875672747000,1.1997470703125,-2.9012341499328613,-0.16116011142730713,1.8516621589660645
1782778875682726100,1.20972607421875,0.08444023132324219,0.07179304957389832,2.366508960723877
1782778875692736000,1.219736083984375,2.1242122650146484,-0.01964336633682251,2.332594156265259
1782778875702745900,1.229745849609375,1.709609031677246,-0.10367298126220703,2.192030191421509
1782778875722734800,1.24973486328125,2.142716407775879,2.1326286792755127,3.8096418380737305
1782778875732744700,1.25974462890625,5.837542533874512,2.746701717376709,2.029559850692749
1782778875742723800,1.269723876953125,8.364129066467285,2.8210031986236572,0.5839599370956421
1782778875752733700,1.279733642578125,11.045489311218262,3.3185489177703857,0.7375439405441284
1782778875762743300,1.289743408203125,15.13962173461914,3.9901576042175293,1.2124574184417725
1782778875772722700,1.29972265625,19.942806243896484,4.059478282928467,1.3809140920639038
1782778875782732300,1.309732177734375,22.231781005859375,4.359374046325684,1.595139980316162
1782778875792742100,1.3197421875,21.582874298095703,4.769943714141846,2.464390277862549
1782778875802721500,1.329721435546875,20.006637573242188,5.703638553619385,4.670861721038818
1782778875812731100,1.339731201171875,18.664018630981445,6.717822551727295,8.503137588500977
1782778875822741000,1.349740966796875,18.522842407226562,7.458371162414551,12.222832679748535
1782778875832720400,1.359720458984375,21.089244842529297,7.407832145690918,14.080559730529785
1782778875842730000,1.36972998046875,23.98602867126465,5.873699188232422,13.173738479614258
1782778875852739800,1.37973974609375,26.06972885131836,4.049577236175537,11.518451690673828
1782778875862719000,1.389718994140625,24.668174743652344,2.8550524711608887,10.551718711853027
1782778875872728600,1.399728515625,18.759204864501953,2.4811248779296875,10.240096092224121
1782778875882738400,1.409738525390625,11.527503967285156,2.3298134803771973,9.805519104003906
1782778875892748300,1.419748291015625,3.6473445892333984,2.196537971496582,8.973137855529785
1782778875902727400,1.4297275390625,-2.902317523956299,1.82600736618042,7.781045913696289
1782778875912737300,1.4397373046875,-6.701014995574951,1.6601191759109497,6.7023210525512695
1782778875922747100,1.4497470703125,-8.859073638916016,1.3210570812225342,7.298916339874268
1782778875932726300,1.459726318359375,-8.556455612182617,0.5881105661392212,6.033756732940674
1782778875942736100,1.469736083984375,-6.153879642486572,-0.32880330085754395,4.965503215789795
1782778875952745700,1.479745849609375,-2.4655957221984863,-0.4857434630393982,4.802624702453613
1782778875962724900,1.489724853515625,0.963099479675293,0.024701714515686035,4.4091949462890625
1782778875972734700,1.499734619140625,2.7078590393066406,-0.026917338371276855,3.148897647857666
1782778875982744600,1.50974462890625,1.6516532897949219,0.1671730875968933,1.5220024585723877
1782778875992723700,1.5197236328125,-1.389939308166504,0.0827038586139679,0.20390218496322632
1782778876002733600,1.529733642578125,-4.275691032409668,-0.09185287356376648,-1.5672192573547363
1782778876012743400,1.539743408203125,-7.399223804473877,-0.25792065262794495,-3.0092692375183105
1782778876022722800,1.549722900390625,-10.731374740600586,-0.18119879066944122,-3.3831679821014404
1782778876032732400,1.559732421875,-12.956741333007812,0.2529587745666504,-2.204169273376465
1782778876042742300,1.5697421875,-14.58578872680664,0.6603910326957703,-0.8846795558929443
1782778876052721400,1.579721435546875,-15.059887886047363,0.8787335753440857,0.2569253444671631
1782778876062731000,1.58973095703125,-13.857940673828125,0.8305449485778809,0.7572213411331177
1782778876072740900,1.599740966796875,-11.08396053314209,1.1255502700805664,-0.31358522176742554
1782778876082720300,1.60972021484375,-9.642271995544434,0.1132703423500061,-0.4924702048301697
1782778876092729900,1.619729736328125,-7.850696563720703,-2.312706708908081,0.9692746996879578
1782778876102739700,1.62973974609375,-7.016475677490234,-1.3127583265304565,-0.9319260716438293
1782778876112718800,1.63971875,-6.755987167358398,-1.2629623413085938,-1.7985973358154297
1782778876122728700,1.649728759765625,-7.255954742431641,-2.1699883937835693,-0.6259283423423767
1782778876132738600,1.659738525390625,-7.128060340881348,-1.8790857791900635,-1.0389084815979004
1782778876142748400,1.66974853515625,-5.954809188842773,-1.6519259214401245,-0.40850257873535156
1782778876152727600,1.6797275390625,-4.869489669799805,-1.1632229089736938,-0.10573060810565948
1782778876162737400,1.6897373046875,-4.256503105163574,-0.9193533658981323,-0.016042819246649742
1782778876172747000,1.6997470703125,-4.0689287185668945,-0.912172794342041,-0.0026031136512756348
1782778876182726400,1.709726318359375,-4.779954433441162,-0.7180407047271729,0.30384278297424316
1782778876192736000,1.719736083984375,-5.675347328186035,-0.9565793871879578,-0.17497897148132324
1782778876202745900,1.729745849609375,-6.070206642150879,-1.014479398727417,-0.4862818121910095
1782778876212725200,1.739725341796875,-6.603782653808594,-0.8493030667304993,-0.7803401947021484
1782778876222734800,1.74973486328125,-6.8844499588012695,-0.8112776875495911,-0.7602331638336182
1782778876232744700,1.75974462890625,-6.657218933105469,-0.3538486361503601,0.08178770542144775
1782778876242723800,1.769723876953125,-5.908884048461914,0.3388964533805847,1.4355049133300781
1782778876252733700,1.779733642578125,-5.462723255157471,1.0689609050750732,2.128901958465576
1782778876262743300,1.789743408203125,-7.091229438781738,1.1144664287567139,2.6590969562530518
1782778876272722700,1.79972265625,-6.948716163635254,0.7064757347106934,2.409745931625366
1782778876282732300,1.809732177734375,-4.837231636047363,0.0953032374382019,1.173925518989563
1782778876292742100,1.8197421875,0.4659547805786133,1.0183918476104736,0.1188884973526001
1782778876302721300,1.82972119140625,2.5489425659179688,2.197328805923462,1.9645946025848389
1782778876312731100,1.839731201171875,6.30618953704834,2.7043094635009766,2.5506792068481445
1782778876322741000,1.849740966796875,7.148908615112305,1.7770837545394897,3.470630645751953
1782778876332720000,1.85972021484375,6.557586669921875,0.07230156660079956,3.4911460876464844
1782778876342730000,1.86972998046875,5.801640510559082,-0.43668901920318604,2.945786476135254
1782778876362718700,1.88971875,2.017941474914551,1.0059194564819336,0.04403948783874512
1782778876372728600,1.899728515625,-1.069784164428711,1.116788387298584,1.5626647472381592
1782778876382738400,1.909738525390625,-2.243898868560791,1.8074932098388672,4.1902618408203125
1782778876392748300,1.919748291015625,-1.0039691925048828,1.873792052268982,4.7128777503967285
1782778876402727700,1.929727783203125,3.4039230346679688,-0.08124339580535889,3.4046790599823
1782778876412737300,1.9397373046875,6.104373931884766,-0.7407206892967224,2.085068464279175
1782778876422747100,1.9497470703125,11.364788055419922,0.04481452703475952,1.1950640678405762
1782778876432726300,1.959726318359375,14.030988693237305,1.130197525024414,1.6420600414276123
1782778876442735900,1.96973583984375,16.236576080322266,2.5659852027893066,2.6859564781188965
1782778876452745700,1.979745849609375,15.7156343460083,2.9514989852905273,3.7889137268066406
1782778876462725000,1.98972509765625,13.621828079223633,2.387880563735962,6.814996719360352
1782778876472734700,1.999734619140625,12.1266450881958,1.5088963508605957,10.398866653442383
1782778876482744600,2.00974462890625,13.123603820800781,0.893718957901001,9.336238861083984
1782778876492723700,2.0197236328125,14.950946807861328,-0.10778424143791199,5.442925453186035
1782778876502733600,2.029733642578125,14.700404167175293,-1.0773236751556396,2.950916290283203
1782778876512743400,2.039743408203125,11.265159606933594,-0.7881397008895874,1.1690733432769775
1782778876522722800,2.049722900390625,6.25920295715332,0.17587628960609436,-1.6755702495574951
1782778876532732400,2.059732421875,0.834782600402832,1.0603303909301758,4.305942535400391
1782778876542742300,2.0697421875,-1.6019368171691895,2.4790093898773193,10.857906341552734
1782778876552721400,2.079721435546875,-1.5895462036132812,3.5317797660827637,14.355502128601074
1782778876562731300,2.089731201171875,-0.9283275604248047,2.1859524250030518,11.282037734985352
1782778876572740900,2.099740966796875,0.5053386688232422,0.6875733733177185,6.640720367431641
1782778876582720300,2.10972021484375,3.036250114440918,-1.2935783863067627,2.859891891479492
1782778876592729900,2.119729736328125,4.421116828918457,-2.269542932510376,-0.012778759002685547
1782778876602739700,2.12973974609375,4.41898250579834,-2.174076557159424,-1.342480182647705
1782778876612718800,2.13971875,3.849043846130371,-1.646970510482788,-1.1223561763763428
1782778876622728700,2.149728759765625,1.7445573806762695,-0.5175341963768005,0.09511697292327881
1782778876632738600,2.159738525390625,-0.6046457290649414,0.6861034631729126,1.4008184671401978
1782778876642748400,2.16974853515625,-2.8819851875305176,1.8381664752960205,2.5686538219451904
1782778876652727600,2.1797275390625,-3.885099411010742,3.2480742931365967,4.550339698791504
1782778876662737400,2.1897373046875,-4.576097011566162,3.594736099243164,5.398697376251221
1782778876672747000,2.1997470703125,-5.270629405975342,3.022064208984375,3.3586208820343018
1782778876682726100,2.20972607421875,-6.141504764556885,2.4404871463775635,1.6313252449035645
1782778876692736000,2.219736083984375,-6.811319351196289,1.6927266120910645,0.2981473207473755
1782778876702745900,2.229745849609375,-7.20882511138916,1.482417106628418,-0.16909003257751465
1782778876712725200,2.239725341796875,-6.935308456420898,1.3495781421661377,0.36607658863067627
1782778876722734800,2.24973486328125,-6.46665096282959,1.5516104698181152,1.3232073783874512
1782778876732744700,2.25974462890625,-5.928811073303223,1.3319461345672607,1.4194780588150024
1782778876742724000,2.26972412109375,-5.745302200317383,1.1621044874191284,1.0898898839950562
1782778876752733700,2.279733642578125,-5.614015102386475,1.3369933366775513,1.593940258026123
1782778876762743300,2.289743408203125,-4.966197490692139,0.9959825277328491,1.5925686359405518
1782778876772722400,2.299722412109375,-4.46287727355957,0.6878631711006165,0.9211338758468628
1782778876782732300,2.309732177734375,-4.214613437652588,0.2647637128829956,0.2157531976699829
1782778876792742100,2.3197421875,-4.350423812866211,0.10675108432769775,-0.09055829048156738
1782778876802721500,2.329721435546875,-4.974912643432617,0.31905341148376465,0.4657667875289917
1782778876812731100,2.339731201171875,-5.614331245422363,0.6528034210205078,1.6198959350585938
1782778876822741000,2.349740966796875,-5.953554153442383,1.0930908918380737,2.576045274734497
1782778876832720100,2.35972021484375,-6.380535125732422,1.360231876373291,3.2092056274414062
1782778876842730000,2.36972998046875,-6.872651100158691,0.9749580025672913,2.816272735595703
1782778876852739800,2.37973974609375,-6.996245861053467,1.0362013578414917,2.7233808040618896
1782778876862719000,2.389718994140625,-7.118830680847168,0.9322423934936523,2.804638147354126
1782778876872728600,2.399728515625,-6.826406478881836,0.6643393635749817,2.4258904457092285
1782778876882738400,2.409738525390625,-6.4325666427612305,0.3199038803577423,1.8278250694274902
1782778876892748300,2.419748291015625,-6.279687881469727,0.11967545747756958,1.682356357574463
1782778876902727700,2.429727783203125,-6.156414985656738,0.10058912634849548,2.1122663021087646
1782778876912737300,2.4397373046875,-6.0042572021484375,0.4482494592666626,3.2232673168182373
1782778876922747100,2.4497470703125,-5.4159255027771,0.7416820526123047,4.476740837097168
1782778876932726500,2.4597265625,-4.620354175567627,0.7777613401412964,4.906463623046875
1782778876942736000,2.46973583984375,-4.2272257804870605,0.4025539457798004,4.552426338195801
1782778876952745700,2.479745849609375,-3.454866886138916,0.1703556925058365,5.05064582824707
1782778876962724900,2.489724853515625,-1.502307415008545,0.23854835331439972,5.065847396850586
1782778876972734700,2.499734619140625,1.8798646926879883,0.49638745188713074,4.288529396057129
1782778876982744600,2.50974462890625,6.792801856994629,0.12522432208061218,1.5611443519592285
1782778876992724000,2.519723876953125,11.586816787719727,0.3684476613998413,-1.854041576385498
1782778877002733600,2.529733642578125,13.124797821044922,0.8336942195892334,-3.474179744720459
1782778877012743400,2.539743408203125,10.592341423034668,2.1484570503234863,-0.7862436771392822
1782778877022722600,2.54972265625,7.808405876159668,4.017478942871094,3.3098950386047363
1782778877032732400,2.559732421875,7.606960296630859,4.411642551422119,5.262420654296875
1782778877042742300,2.5697421875,9.263077735900879,4.2650651931762695,4.269954681396484
1782778877052721400,2.579721435546875,12.605661392211914,3.727962017059326,2.553314685821533
1782778877064222700,2.59122265625,15.032249450683594,2.0540504455566406,2.6863484382629395
1782778877082720300,2.60972021484375,15.478243827819824,0.03820604085922241,7.7027130126953125
1782778877092729900,2.619729736328125,17.882709503173828,-0.16885611414909363,9.637408256530762
1782778877102739700,2.62973974609375,20.743305206298828,-0.530387282371521,8.81156063079834
1782778877112719000,2.639718994140625,20.198978424072266,-0.6922439336776733,7.408395767211914
1782778877122728700,2.649728759765625,16.079570770263672,0.08264604210853577,6.994631290435791
1782778877132738600,2.659738525390625,9.924145698547363,1.5151817798614502,7.847712516784668
1782778877142748400,2.66974853515625,4.3718976974487305,2.7922515869140625,8.622514724731445
1782778877152727600,2.6797275390625,0.5021200180053711,2.969207525253296,7.974152088165283
1782778877162737400,2.6897373046875,-1.843909740447998,2.498842477798462,6.104154586791992
1782778877172747300,2.699747314453125,-2.327622890472412,1.5335924625396729,4.2365922927856445
1782778877182726100,2.70972607421875,-1.2071514129638672,0.24975278973579407,2.5125532150268555
1782778877192736000,2.719736083984375,0.8049001693725586,-0.07123367488384247,2.384734869003296
1782778877202745900,2.729745849609375,3.2610225677490234,0.0251428484916687,2.8394622802734375
1782778877212725000,2.73972509765625,4.4493303298950195,0.36029812693595886,2.7592716217041016
1782778877222734800,2.74973486328125,4.31693172454834,0.8086140751838684,2.8049819469451904
1782778877232744700,2.75974462890625,3.248723030090332,0.8431089520454407,2.230506420135498
1782778877242723800,2.769723876953125,1.1231918334960938,0.7726029753684998,1.1797852516174316
1782778877252733700,2.779733642578125,-1.393880844116211,1.093090534210205,0.5507783889770508
1782778877262743600,2.78974365234375,-3.807582378387451,1.3008931875228882,0.09625911712646484
1782778877272722700,2.79972265625,-5.574782848358154,1.3968377113342285,-0.919603705406189
1782778877282732300,2.809732177734375,-7.2205400466918945,1.4372881650924683,0.1042710542678833
1782778877292742100,2.8197421875,-8.624740600585938,1.6952157020568848,0.7615677118301392
1782778877302721500,2.829721435546875,-9.666853904724121,1.8288767337799072,0.36333155632019043
1782778877312840700,2.8398408203125,-10.353960990905762,1.821507453918457,0.8035116195678711
1782778877322710500,2.84971044921875,-10.659136772155762,1.8424320220947266,1.425423502922058
1782778877332720400,2.859720458984375,-10.657122611999512,1.7074322700500488,1.5353047847747803
1782778877342730000,2.86972998046875,-10.31750774383545,1.636366367340088,1.5327894687652588
1782778877352739800,2.87973974609375,-9.858126640319824,1.8060870170593262,2.0858521461486816
1782778877362523100,2.889523193359375,-9.196017265319824,1.6491012573242188,2.4788222312927246
1782778877372728600,2.899728515625,-8.193673133850098,1.228550910949707,1.7452691793441772
1782778877382738400,2.909738525390625,-7.123742580413818,0.7610253095626831,0.5493782758712769
1782778877392748300,2.919748291015625,-6.454931259155273,0.5264080166816711,0.16365742683410645
1782778877402727400,2.9297275390625,-6.216132164001465,0.5165479183197021,0.44243359565734863
1782778877412737300,2.9397373046875,-5.907968521118164,0.6004687547683716,0.7585456371307373
1782778877422687500,2.9496875,-5.917950630187988,0.7473490238189697,1.1784141063690186
1782778877432783400,2.959783447265625,-6.275186538696289,1.0893582105636597,1.7469031810760498
1782778877442736000,2.969736083984375,-6.596899032592773,1.5075359344482422,2.6467437744140625
1782778877452745700,2.979745849609375,-6.724864959716797,1.7188876867294312,3.6444716453552246
1782778877462725000,2.98972509765625,-6.891509056091309,1.6168251037597656,3.3049049377441406
1782778877472734700,2.999734619140625,-6.721979141235352,1.317238450050354,2.2132227420806885
1782778877482744600,3.00974462890625,-6.212080001831055,0.8513202667236328,1.3048076629638672
1782778877492723700,3.0197236328125,-6.0144548416137695,0.7760619521141052,0.934965968132019
1782778877502733600,3.029733642578125,-6.173667907714844,1.0409400463104248,1.5387240648269653
1782778877512743400,3.039743408203125,-6.465762138366699,1.554215669631958,2.7896201610565186
1782778877522722600,3.04972265625,-6.5763092041015625,1.9121711254119873,4.092647552490234
1782778877532732400,3.059732421875,-5.639369010925293,2.0099079608917236,4.760311126708984
1782778877542742000,3.069741943359375,-4.630441188812256,1.9792582988739014,4.425101280212402
1782778877562731300,3.089731201171875,-1.5961904525756836,1.555612564086914,4.754292964935303
1782778877572740900,3.099740966796875,0.6492691040039062,1.54630446434021,4.596701622009277
1782778877582720300,3.10972021484375,4.297943115234375,1.0298545360565186,3.800570011138916
1782778877592729900,3.119729736328125,7.920310020446777,0.4911927878856659,2.3798298835754395
1782778877602739700,3.12973974609375,11.643598556518555,0.2559710144996643,-0.07746553421020508
1782778877612719000,3.139718994140625,13.911406517028809,0.6802478432655334,-2.3244411945343018
1782778877622728700,3.149728759765625,12.852147102355957,2.5781476497650146,-2.1095831394195557
1782778877632738600,3.159738525390625,12.2972412109375,4.951541900634766,-0.5828676223754883
1782778877642688500,3.1696884765625,10.405003547668457,6.685030937194824,0.8297896385192871
1782778877652819000,3.17981884765625,7.454232215881348,8.230056762695312,3.203331708908081
1782778877662737400,3.1897373046875,8.255620956420898,6.618696212768555,8.357267379760742
1782778877672747000,3.1997470703125,14.05211353302002,4.851049900054932,7.720837593078613
1782778877682726100,3.20972607421875,20.20932388305664,2.083019971847534,5.369138717651367
1782778877692736000,3.219736083984375,25.570030212402344,-1.2141164541244507,2.8543434143066406
1782778877702745900,3.229745849609375,28.37363052368164,-2.922541618347168,0.630596399307251
1782778877712725000,3.23972509765625,25.238906860351562,-2.708259105682373,1.4474170207977295
1782778877722734800,3.24973486328125,19.360212326049805,-0.8950719833374023,5.077420234680176
1782778877732744700,3.25974462890625,14.219532012939453,0.621964156627655,8.14799690246582
1782778877742723800,3.269723876953125,9.391579627990723,1.9144890308380127,9.04439926147461
1782778877752733700,3.279733642578125,5.3878021240234375,2.9657952785491943,8.907055854797363
1782778877762743300,3.289743408203125,1.916778564453125,3.3318681716918945,7.925341606140137
1782778877772722700,3.29972265625,-0.7072896957397461,3.237084150314331,6.003312110900879
1782778877782732300,3.309732177734375,-2.00766658782959,2.8676350116729736,6.814114570617676
1782778877792742100,3.3197421875,-1.6289000511169434,1.6424864530563354,5.669629096984863
1782778877802721500,3.329721435546875,-0.20236778259277344,0.9317697882652283,2.8627796173095703
1782778877812731100,3.339731201171875,1.5627946853637695,-0.3400267958641052,1.1074721813201904
1782778877822741000,3.349740966796875,3.1361188888549805,-0.5123462080955505,-0.3905634880065918
1782778877832720400,3.359720458984375,2.5210886001586914,-0.3185366988182068,0.4466700553894043
1782778877842730000,3.36972998046875,-0.0024929046630859375,0.46233776211738586,1.6583030223846436
1782778877852680000,3.379679931640625,-3.4279913902282715,0.9077152013778687,1.9923113584518433
1782778877863124500,3.39012451171875,-6.859015464782715,1.1359741687774658,1.5451934337615967
1782778877872728600,3.399728515625,-9.339963912963867,1.4853570461273193,0.8595141172409058
1782778877882738400,3.409738525390625,-10.853964805603027,1.3973740339279175,1.8876540660858154
1782778877892748300,3.419748291015625,-11.767990112304688,1.0515602827072144,1.0679316520690918
1782778877902727400,3.4297275390625,-12.112855911254883,0.7891703844070435,-0.7666596174240112
1782778877912737300,3.4397373046875,-11.931005477905273,0.1381865292787552,-1.6421830654144287
1782778877922747100,3.4497470703125,-11.287162780761719,0.204583078622818,-1.514931082725525
1782778877932726300,3.459726318359375,-10.231989860534668,0.16775953769683838,-0.6499029397964478
1782778877942736100,3.469736083984375,-8.671935081481934,0.4248025417327881,0.4006943702697754
1782778877952745700,3.479745849609375,-8.332538604736328,0.6562716960906982,1.2933781147003174
1782778877962724900,3.489724853515625,-8.543893814086914,0.7239351272583008,1.4958062171936035
1782778877972734700,3.499734619140625,-8.578287124633789,0.448978990316391,1.1270668506622314
1782778877983926500,3.510926513671875,-8.918302536010742,0.1660158485174179,0.6630406379699707
1782778878002446000,3.529446044921875,-8.609886169433594,-0.1866256594657898,0.2586556673049927
1782778878012713000,3.539712890625,-7.9628825187683105,-0.24949496984481812,0.34539008140563965
1782778878022722800,3.549722900390625,-7.462338447570801,-0.2041633129119873,0.7408996820449829
1782778878032732400,3.559732421875,-6.70047664642334,-0.13735538721084595,1.249579668045044
1782778878042742300,3.5697421875,-6.102014064788818,0.12167730927467346,1.7847981452941895
1782778878052721400,3.579721435546875,-6.105457782745361,0.3604366183280945,2.308838129043579
1782778878062731300,3.589731201171875,-6.426874160766602,0.4691159725189209,2.468271017074585
1782778878072740900,3.599740966796875,-7.090888500213623,0.5913609266281128,2.6722850799560547
1782778878082720300,3.60972021484375,-7.5638508796691895,0.7006207704544067,2.696561813354492
1782778878092729900,3.619729736328125,-7.614839553833008,0.5265470147132874,2.185981512069702
1782778878102739700,3.62973974609375,-7.765077590942383,0.3732717037200928,1.6727545261383057
1782778878112719000,3.639718994140625,-7.834400177001953,0.48913660645484924,1.8660537004470825
1782778878122728700,3.649728759765625,-7.821349143981934,0.7605386972427368,2.422562599182129
1782778878132738600,3.659738525390625,-8.048346519470215,0.893347978591919,2.8470165729522705
1782778878142857500,3.669857421875,-8.337237358093262,0.9773864150047302,3.1831486225128174
1782778878152727600,3.6797275390625,-8.139427185058594,0.9920235872268677,3.4300966262817383
1782778878162737400,3.6897373046875,-7.520118713378906,0.9452029466629028,3.5676980018615723
1782778878172747000,3.6997470703125,-5.714007377624512,0.5605656504631042,3.6565282344818115
1782778878182726100,3.70972607421875,-3.332693576812744,-0.2684999406337738,3.1560120582580566
1782778878192736000,3.719736083984375,-1.2425708770751953,-0.7695010304450989,2.138110637664795
1782778878202745900,3.729745849609375,-0.6085262298583984,-0.7933366894721985,2.379744529724121
1782778878212725000,3.73972509765625,-0.1506481170654297,-0.33174747228622437,3.602640390396118
1782778878222734800,3.74973486328125,0.8465595245361328,0.831587016582489,4.25450325012207
1782778878232744700,3.75974462890625,2.9774255752563477,1.8564351797103882,4.182639122009277
1782778878242723800,3.769723876953125,4.316863059997559,2.647688865661621,3.5372817516326904
1782778878252733700,3.779733642578125,4.676640510559082,3.947077751159668,3.3753435611724854
1782778878262743300,3.789743408203125,8.094573020935059,5.111942291259766,4.8058857917785645
1782778878282732300,3.809732177734375,19.070154190063477,2.265681028366089,2.6610116958618164
1782778878292682500,3.8196826171875,23.454303741455078,1.385162115097046,1.916544795036316
1782778878302873900,3.829873779296875,25.691051483154297,1.653880000114441,2.8682966232299805
1782778878312731100,3.839731201171875,26.540552139282227,1.3620342016220093,4.458527088165283
1782778878322681300,3.849681396484375,26.717390060424805,0.9108648300170898,6.031985282897949
1782778878332811800,3.859811767578125,27.475940704345703,0.6698943376541138,7.878171920776367
1782778878342730000,3.86972998046875,29.336883544921875,1.103134274482727,9.535013198852539
1782778878352739800,3.87973974609375,29.082794189453125,1.528782844543457,10.738876342773438
1782778878362719000,3.889718994140625,25.632123947143555,2.1445093154907227,10.257633209228516
1782778878372728600,3.899728515625,20.501087188720703,2.873633861541748,9.580385208129883
1782778878382738400,3.909738525390625,14.803908348083496,3.8088953495025635,8.67352294921875
1782778878392748300,3.919748291015625,9.38530158996582,4.409116744995117,7.3105058670043945
1782778878402727400,3.9297275390625,4.69991397857666,4.293909549713135,5.949217796325684
1782778878412737300,3.9397373046875,1.0292482376098633,3.868412733078003,5.082464218139648
1782778878422747100,3.9497470703125,-1.3081998825073242,3.0767815113067627,4.0644354820251465
1782778878432726300,3.959726318359375,-2.0723938941955566,1.5283234119415283,2.5987024307250977
1782778878442736000,3.969736083984375,-1.6242589950561523,0.15736278891563416,1.1322252750396729
1782778878452686000,3.97968603515625,-0.5740184783935547,-0.7593216896057129,0.3967630863189697
1782778878462634800,3.989634765625,-0.15006732940673828,-0.9823398590087891,0.44195258617401123
1782778878472796000,3.9997958984375,-0.2007598876953125,-0.7069779634475708,1.2434628009796143
1782778878482744600,4.00974462890625,-0.6340608596801758,-0.20107501745224,2.215385913848877
1782778878492664000,4.0196640625,-2.4720754623413086,0.2639073431491852,2.9251208305358887
1782778878502794800,4.029794677734375,-4.687652587890625,0.6018929481506348,3.0875463485717773
1782778878512683800,4.039683837890625,-6.236232757568359,0.5632377862930298,2.5410633087158203
1782778878522814200,4.049814208984375,-7.486576080322266,0.6558944582939148,0.6252744197845459
1782778878532672800,4.0596728515625,-8.55419635772705,0.2695111632347107,1.232033610343933
1782778878542742500,4.069742431640625,-9.463775634765625,0.4112059473991394,1.2133584022521973
1782778878552935200,4.07993505859375,-9.919819831848145,0.6116289496421814,1.0075913667678833
1782778878562731300,4.089731201171875,-10.000101089477539,0.5971958637237549,1.577278971672058
1782778878572740900,4.099740966796875,-10.164616584777832,0.7012267112731934,2.2465639114379883
1782778878582720300,4.10972021484375,-10.542181015014648,0.778557300567627,2.878298282623291
1782778878592729900,4.119729736328125,-10.856778144836426,0.6604232788085938,3.361114501953125
1782778878602818300,4.129818359375,-11.186267852783203,0.44453877210617065,3.254707098007202
1782778878612719000,4.139718994140625,-11.358360290527344,0.1847470998764038,2.768158435821533
1782778878622728700,4.149728759765625,-11.273143768310547,-0.18985608220100403,2.199366331100464
1782778878632738600,4.159738525390625,-11.01529312133789,-0.5358524322509766,1.5955697298049927
1782778878642369300,4.169369384765625,-10.591513633728027,-0.8731749057769775,1.1574846506118774
1782778878652727600,4.1797275390625,-10.070549011230469,-1.054861068725586,0.8899129629135132
1782778878662737400,4.1897373046875,-9.604199409484863,-1.2838470935821533,0.9702193737030029
1782778878672747000,4.1997470703125,-9.324287414550781,-1.4379267692565918,1.1161288022994995
1782778878682726400,4.209726318359375,-9.09428596496582,-1.3833816051483154,1.2100127935409546
1782778878692845300,4.21984521484375,-9.003435134887695,-1.3595114946365356,1.5124320983886719
1782778878702715400,4.22971533203125,-9.198119163513184,-1.3240500688552856,1.6913095712661743
1782778878712725000,4.23972509765625,-9.376080513000488,-1.1964991092681885,1.7511757612228394
1782778878722660900,4.249660888671875,-9.703497886657715,-1.0693100690841675,2.0597457885742188
1782778878732714200,4.25971435546875,-10.127747535705566,-1.1611403226852417,2.0113654136657715
1782778878742723800,4.269723876953125,-10.154824256896973,-1.1638808250427246,1.7173670530319214
1782778878752733700,4.279733642578125,-9.902793884277344,-1.1583244800567627,1.7889459133148193
1782778878762926600,4.289926513671875,-9.658587455749512,-0.9461877942085266,2.0670266151428223
1782778878772831700,4.299831787109375,-9.435287475585938,-0.785047173500061,2.3716654777526855
1782778878782732300,4.309732177734375,-9.419200897216797,-0.5841330289840698,2.6996583938598633
1782778878792742100,4.3197421875,-9.72945785522461,-0.23672521114349365,3.325814962387085
1782778878802830800,4.329830810546875,-9.987018585205078,-0.07975104451179504,4.142770767211914
1782778878812731100,4.339731201171875,-9.692380905151367,-0.20862457156181335,3.8294994831085205
1782778878822741000,4.349740966796875,-8.629096984863281,-0.49105462431907654,2.7011542320251465
1782778878832720400,4.359720458984375,-6.443606853485107,-0.7522101402282715,2.184633731842041
1782778878842730000,4.36972998046875,-3.553250312805176,-0.7461258172988892,2.9963841438293457
1782778878852739600,4.379739501953125,-0.9008808135986328,-0.4029618501663208,4.639944076538086
1782778878862718700,4.38971875,2.8033628463745117,0.2578566074371338,5.068816184997559
1782778878872728600,4.399728515625,9.206650733947754,0.5178819298744202,4.267229080200195
1782778878882738400,4.409738525390625,14.70495319366455,1.0743076801300049,1.2504216432571411
1782778878892748300,4.419748291015625,15.638833045959473,2.1707632541656494,-2.3435165882110596
1782778878902727700,4.429727783203125,12.628864288330078,2.7603657245635986,-2.9820401668548584
1782778878922747100,4.4497470703125,14.834572792053223,4.203083515167236,-0.021355390548706055
1782778878932726300,4.459726318359375,18.903995513916016,3.5342395305633545,2.0818862915039062
1782778878942736100,4.469736083984375,22.687530517578125,4.270842552185059,4.168384075164795
1782778878952745700,4.479745849609375,25.241281509399414,5.48759126663208,6.615263938903809
1782778878962725000,4.48972509765625,26.861827850341797,5.802182674407959,9.371070861816406
1782778878972734700,4.499734619140625,26.660371780395508,5.4339680671691895,10.726358413696289
1782778878982744600,4.50974462890625,24.296173095703125,4.910526275634766,11.248058319091797
1782778878992723700,4.5197236328125,22.076587677001953,4.226774215698242,11.09347915649414
1782778879002733600,4.529733642578125,21.211322784423828,3.086729049682617,9.932708740234375
1782778879012743400,4.539743408203125,21.626510620117188,1.7981626987457275,7.779452323913574
1782778879022722800,4.549722900390625,21.47396469116211,1.2698785066604614,5.782296180725098
1782778879032732400,4.559732421875,19.382190704345703,1.331648826599121,4.8376688957214355
1782778879042742300,4.5697421875,14.95915699005127,1.766855239868164,4.543622970581055
1782778879052721400,4.579721435546875,9.571024894714355,2.089560031890869,4.644469738006592
1782778879062731300,4.589731201171875,4.438725471496582,2.360722780227661,4.865160942077637
1782778879072740900,4.599740966796875,0.13076210021972656,2.5426058769226074,5.436424255371094
1782778879082720300,4.60972021484375,-3.087308883666992,2.28590726852417,6.073375225067139
1782778879092729900,4.619729736328125,-4.136781215667725,1.4876620769500732,5.105487823486328
1782778879102739700,4.62973974609375,-4.005569934844971,0.48965585231781006,2.988389492034912
1782778879112719000,4.639718994140625,-3.539238929748535,-0.5369646549224854,0.9204785823822021
1782778879122728700,4.649728759765625,-3.032630443572998,-0.9419897198677063,-0.5413098335266113
1782778879132738600,4.659738525390625,-3.130016326904297,-0.8070375919342041,-0.7697048187255859
1782778879142748400,4.66974853515625,-3.5220847129821777,-0.5535718202590942,-0.896781325340271
1782778879152727600,4.6797275390625,-3.9590635299682617,0.21760860085487366,-0.8179318904876709
1782778879162737400,4.6897373046875,-4.932865142822266,0.5855703949928284,-0.08347618579864502
1782778879172747000,4.6997470703125,-6.366181373596191,1.5794200897216797,0.8358145356178284
1782778879182726100,4.70972607421875,-8.049909591674805,1.8524200916290283,1.726865291595459
1782778879192736000,4.719736083984375,-9.954232215881348,1.6712779998779297,1.7443233728408813
1782778879202745900,4.729745849609375,-11.331189155578613,1.4504427909851074,1.1524043083190918
1782778879212725000,4.73972509765625,-12.2296781539917,1.3048425912857056,0.5458986759185791
1782778879222734800,4.74973486328125,-12.825507164001465,0.9661312699317932,0.17432677745819092
1782778879232744700,4.75974462890625,-13.124555587768555,0.5920785665512085,0.009772300720214844
1782778879242664200,4.769664306640625,-13.126213073730469,0.37964752316474915,-0.08381056785583496
1782778879252795000,4.779794921875,-12.908968925476074,0.16600075364112854,0.013982534408569336
1782778879262743300,4.789743408203125,-12.160701751708984,-0.1519155502319336,-0.032602787017822266
1782778879272722700,4.79972265625,-11.27233600616455,-0.3706258535385132,-0.11785650253295898
1782778879282732300,4.809732177734375,-10.391928672790527,-0.3104599118232727,0.2512226104736328
1782778879292742100,4.8197421875,-9.552226066589355,-0.44281792640686035,0.8093667030334473
1782778879302721500,4.829721435546875,-8.983759880065918,-0.625558614730835,1.052718162536621
1782778879312840400,4.83984033203125,-8.643073081970215,-0.7316869497299194,1.145218849182129
1782778879322710500,4.84971044921875,-8.508731842041016,-0.7913891077041626,1.473905324935913
1782778879332720400,4.859720458984375,-8.505023956298828,-0.6912689208984375,1.9965773820877075
1782778879342730000,4.86972998046875,-8.676750183105469,-0.7293546199798584,2.425814628601074
1782778879352739800,4.87973974609375,-9.05599308013916,-0.862661600112915,2.451064348220825
1782778879362584000,4.889583984375,-9.568089485168457,-0.9657107591629028,2.1930739879608154
1782778879372728600,4.899728515625,-10.21889591217041,-1.0748356580734253,2.1696834564208984
1782778879382738400,4.909738525390625,-10.744531631469727,-1.2006275653839111,2.360621690750122
1782778879392748300,4.919748291015625,-10.869802474975586,-1.1105432510375977,2.6998555660247803
1782778879402849500,4.929849609375,-11.012308120727539,-0.9737646579742432,3.4525504112243652
1782778879412846600,4.9398466796875,-11.126363754272461,-1.1354984045028687,4.001520156860352
1782778879422716700,4.949716552734375,-11.011906623840332,-1.3525996208190918,4.0352888107299805
1782778879432726300,4.959726318359375,-10.828619003295898,-1.4838013648986816,3.945134401321411
1782778879442845200,4.96984521484375,-10.656408309936523,-1.8729486465454102,3.922220230102539
1782778879452715300,4.97971533203125,-10.300439834594727,-2.2993407249450684,3.6483497619628906
1782778879462724900,4.989724853515625,-9.925756454467773,-2.662933588027954,3.2231497764587402
1782778879472734700,4.999734619140625,-9.407397270202637,-3.253425121307373,2.7158381938934326
1782778879482744600,5.00974462890625,-7.854063987731934,-3.156432867050171,1.971739411354065
1782778879492723700,5.0197236328125,-2.705045223236084,-2.066910743713379,1.1632351875305176
1782778879502733600,5.029733642578125,7.2249755859375,-0.495026171207428,3.4760851860046387
1782778879512743400,5.039743408203125,14.064127922058105,1.2187559604644775,3.122770309448242
1782778879522722800,5.049722900390625,17.03314971923828,2.329176902770996,3.8399834632873535
1782778879532732400,5.059732421875,16.486339569091797,2.633233070373535,4.326004505157471
1782778879542742300,5.0697421875,15.357522010803223,3.4057652950286865,3.8457679748535156
1782778879562731300,5.089731201171875,18.9188232421875,1.651763677597046,5.817751884460449
1782778879572740900,5.099740966796875,24.26814842224121,2.4355220794677734,5.906938552856445
1782778879582720300,5.10972021484375,28.21335220336914,2.890047073364258,8.366601943969727
1782778879592729900,5.119729736328125,31.737586975097656,3.2026147842407227,10.110166549682617
1782778879602739700,5.12973974609375,33.57819747924805,2.9837515354156494,9.168939590454102
1782778879612719000,5.139718994140625,30.58441925048828,2.830632209777832,7.716365337371826
1782778879622728700,5.149728759765625,24.581741333007812,3.2577455043792725,7.522131443023682
1782778879632738600,5.159738525390625,19.500991821289062,4.0003743171691895,8.050874710083008
1782778879642748400,5.16974853515625,15.80418586730957,4.491377830505371,8.574592590332031
1782778879652727600,5.1797275390625,12.903252601623535,5.155068874359131,8.792800903320312
1782778879662737400,5.1897373046875,9.949463844299316,5.490804672241211,8.377445220947266
1782778879672747000,5.1997470703125,6.807125091552734,5.337178707122803,7.593927383422852
1782778879682726100,5.20972607421875,4.208059310913086,4.6455278396606445,6.477888584136963
1782778879692736000,5.219736083984375,2.553203582763672,3.4485597610473633,5.269566059112549
1782778879702745900,5.229745849609375,1.7394380569458008,2.1995506286621094,3.7513866424560547
1782778879712665300,5.239665283203125,1.4305143356323242,1.1240880489349365,2.448326587677002
1782778879722796000,5.249796142578125,1.0859565734863281,0.4654020369052887,1.471444845199585
1782778879732684800,5.259684814453125,0.7473964691162109,0.08183369040489197,0.7151535749435425
1782778879742713300,5.26971337890625,-0.3871927261352539,0.002269655466079712,0.27660346031188965
1782778879752733700,5.279733642578125,-1.8895106315612793,0.1762658953666687,0.4460616111755371
1782778879762743300,5.289743408203125,-3.4093451499938965,0.5404202938079834,0.7715662717819214
1782778879772722400,5.299722412109375,-5.059703826904297,0.8820409178733826,0.9548699855804443
1782778879782732300,5.309732177734375,-6.48773193359375,1.0870448350906372,0.8678510785102844
1782778879792742100,5.3197421875,-7.779862880706787,1.04116690158844,0.21795868873596191
1782778879802721300,5.32972119140625,-9.031107902526855,1.0215238332748413,-0.6182482242584229
1782778879812731100,5.339731201171875,-9.897688865661621,1.0733246803283691,-1.1929069757461548
1782778879822741000,5.349740966796875,-10.585332870483398,0.7291719913482666,-0.7064067125320435
1782778879832720100,5.35972021484375,-10.689203262329102,1.0675581693649292,-0.8822025060653687
1782778879842730000,5.36972998046875,-10.892809867858887,1.17843759059906,-0.2666916847229004
1782778879852739800,5.37973974609375,-10.85687255859375,1.1259675025939941,0.5332987308502197
1782778879862719000,5.389718994140625,-10.47326946258545,1.208800196647644,0.9266126155853271
1782778879872776000,5.39977587890625,-9.903910636901855,1.0401791334152222,1.1179813146591187
1782778879882738400,5.409738525390625,-8.85543155670166,0.7242333889007568,1.0332913398742676
1782778879892748300,5.419748291015625,-7.66654109954834,0.4637904167175293,1.061732292175293
1782778879902727400,5.4297275390625,-6.78635311126709,0.17422617971897125,1.1355783939361572
1782778879912737300,5.4397373046875,-6.183221340179443,-0.1272336095571518,0.9982036352157593
1782778879922687500,5.4496875,-5.612555027008057,-0.2377321720123291,0.8836240768432617
1782778879932818000,5.45981787109375,-5.5320916175842285,-0.19025497138500214,1.1755542755126953
1782778879942736100,5.469736083984375,-6.0902180671691895,-0.008675949648022652,1.6781213283538818
1782778879952745700,5.479745849609375,-7.195305824279785,0.2883647382259369,2.122633218765259
1782778879962724900,5.489724853515625,-8.457287788391113,0.354874849319458,2.462148666381836
1782778879972734700,5.499734619140625,-9.29476547241211,0.4276852011680603,2.6105408668518066
1782778879982744600,5.50974462890625,-9.589519500732422,0.46593955159187317,2.887528657913208
1782778879992723700,5.5197236328125,-9.661598205566406,0.5132039785385132,3.119810104370117
1782778880002507300,5.52950732421875,-9.883612632751465,0.532362699508667,3.220543384552002
1782778880012713000,5.539712890625,-9.923044204711914,0.4187094271183014,3.3830084800720215
1782778880022722800,5.549722900390625,-9.87078857421875,0.17927861213684082,3.3464908599853516
1782778880032732400,5.559732421875,-9.918180465698242,0.07456797361373901,3.325883150100708
1782778880042772700,5.569772705078125,-9.903319358825684,-0.25884830951690674,3.2337405681610107
1782778880052783900,5.579783935546875,-9.530801773071289,-0.6462745070457458,3.0172181129455566
1782778880062610400,5.5896103515625,-8.379698753356934,-0.70942223072052,3.0926432609558105
1782778880072740900,5.599740966796875,-6.337602615356445,-0.889072060585022,3.5489630699157715
1782778880082720000,5.609719970703125,-4.571929931640625,-1.2738239765167236,3.8698220252990723
1782778880092729900,5.619729736328125,-2.378582000732422,-1.62751305103302,3.35792875289917
1782778880102739700,5.62973974609375,0.42200279235839844,-2.2184481620788574,2.9563870429992676
1782778880112718800,5.63971875,3.8223962783813477,-2.173745632171631,2.8501529693603516
1782778880122728700,5.649728759765625,7.703244209289551,-1.232124924659729,3.766659736633301
1782778880132738600,5.659738525390625,12.973291397094727,0.3106417953968048,4.426472187042236
1782778880142748400,5.66974853515625,15.821272850036621,1.6377787590026855,4.493638038635254
1782778880152727600,5.6797275390625,13.708596229553223,2.64626407623291,3.998811721801758
1782778880162737400,5.6897373046875,10.759500503540039,3.965888500213623,3.3479225635528564
1782778880172747000,5.6997470703125,9.522053718566895,5.041750907897949,1.6450464725494385
1782778880182726100,5.70972607421875,10.08767032623291,4.728848934173584,0.5693321228027344
1782778880202745900,5.729745849609375,19.656686782836914,5.576362133026123,1.021413803100586
1782778880212725200,5.739725341796875,23.118215560913086,5.165370464324951,1.7322534322738647
1782778880222734800,5.74973486328125,22.95631217956543,4.906368255615234,3.5774800777435303
1782778880232744700,5.75974462890625,20.33975601196289,5.9397873878479,8.860100746154785
1782778880242724000,5.76972412109375,17.80038070678711,6.819218158721924,13.373358726501465
1782778880252673800,5.779673828125,17.28763771057129,5.608681678771973,14.064102172851562
1782778880263376000,5.7903759765625,17.563396453857422,2.930649757385254,11.581110954284668
1782778880282732300,5.809732177734375,14.293176651000977,-0.7653718590736389,3.9995646476745605
1782778880292742100,5.8197421875,9.998074531555176,-0.010981559753417969,3.7529139518737793
1782778880302721300,5.82972119140625,5.591923713684082,0.8130113482475281,4.030155658721924
1782778880312731100,5.839731201171875,1.8772401809692383,1.5174957513809204,4.314925193786621
1782778880322681300,5.849681396484375,-0.28966712951660156,1.8964446783065796,4.262479782104492
1782778880332811800,5.859811767578125,-1.8285808563232422,1.9168896675109863,3.21812105178833
1782778880342730000,5.86972998046875,-2.7382917404174805,2.3595163822174072,3.056021213531494
1782778880352739800,5.87973974609375,-3.237447738647461,3.242901563644409,4.313214302062988
1782778880362659300,5.889659423828125,-2.905996322631836,3.2484843730926514,4.46579647064209
1782778880372753400,5.89975341796875,-2.1810126304626465,2.423715829849243,3.3653907775878906
1782778880383726000,5.91072607421875,-1.7715768814086914,2.0112228393554688,2.2613394260406494
1782778880402727400,5.9297275390625,-3.3100552558898926,0.9485108256340027,-0.5575711727142334
1782778880412737300,5.9397373046875,-4.451035976409912,0.40070006251335144,-1.358713984489441
1782778880422747100,5.9497470703125,-5.910593032836914,0.1521914154291153,-1.6514027118682861
1782778880432726300,5.959726318359375,-8.1082181930542,-0.13900035619735718,-1.8513691425323486
1782778880442736000,5.969736083984375,-10.323278427124023,-0.3480519652366638,-1.6943318843841553
1782778880452745700,5.979745849609375,-12.584383964538574,-0.20296569168567657,-0.8273825645446777
1782778880462725000,5.98972509765625,-14.256027221679688,0.013930976390838623,0.33091914653778076
1782778880472734700,5.999734619140625,-14.952662467956543,-0.13377058506011963,0.8254209756851196
1782778880482744600,6.00974462890625,-14.803250312805176,-0.3724779784679413,0.6766279935836792
1782778880492723700,6.0197236328125,-13.656952857971191,-0.6535949110984802,0.5066158771514893
1782778880502733600,6.029733642578125,-11.894235610961914,-0.8095970153808594,0.5805001258850098
1782778880512743400,6.039743408203125,-10.075499534606934,-1.0194450616836548,0.6852551698684692
1782778880522663000,6.049662841796875,-8.284889221191406,-1.137234091758728,0.9511319398880005
1782778880532793600,6.059793701171875,-7.014613151550293,-1.1298186779022217,1.1699700355529785
1782778880542742300,6.0697421875,-6.437570571899414,-0.9298961162567139,1.7235896587371826
1782778880552661800,6.079661865234375,-6.789130210876465,-0.6506199240684509,2.5056443214416504
1782778880562792200,6.089792236328125,-7.977483749389648,-0.5658613443374634,2.843691349029541
1782778880572740900,6.099740966796875,-9.056757926940918,-0.5623643398284912,2.4848439693450928
1782778880582720300,6.10972021484375,-10.135865211486816,-0.6369554400444031,2.501420259475708
1782778880592729900,6.119729736328125,-10.961642265319824,-0.7783708572387695,2.714946985244751
1782778880602849000,6.12984912109375,-11.404584884643555,-1.1209098100662231,2.429297924041748
1782778880612718800,6.13971875,-11.016691207885742,-1.5407698154449463,1.6732691526412964
1782778880622728700,6.149728759765625,-9.791281700134277,-1.2395424842834473,1.9741567373275757
1782778880632679000,6.159678955078125,-8.68359375,-0.9559508562088013,3.044454336166382
1782778880642809300,6.169809326171875,-7.8977885246276855,-0.8444400429725647,3.3235273361206055
1782778880652727600,6.1797275390625,-7.631105422973633,-0.7133490443229675,3.3958959579467773
1782778880663684600,6.1906845703125,-7.34126615524292,-0.600077211856842,4.360600471496582
1782778880682726400,6.209726318359375,-6.113533020019531,-0.73093581199646,5.754586219787598
1782778880692736000,6.219736083984375,-4.50990629196167,-1.1519323587417603,5.156463623046875
1782778880702745900,6.229745849609375,-2.1920166015625,-1.8399338722229004,4.639034271240234
1782778880712725200,6.239725341796875,0.5674886703491211,-2.2053046226501465,3.908757448196411
1782778880722734800,6.24973486328125,6.434027671813965,-2.032221794128418,3.0246176719665527
1782778880732684800,6.259684814453125,9.182145118713379,-2.142369270324707,3.050001621246338
1782778880743279900,6.27027978515625,10.966697692871094,-0.302685022354126,2.8130342960357666
1782778880762743300,6.289743408203125,11.837059020996094,-1.5239139795303345,5.41127347946167
1782778880772722400,6.299722412109375,12.128512382507324,0.7140450477600098,4.776490211486816
1782778880782732300,6.309732177734375,9.903729438781738,2.2515859603881836,2.475426197052002
1782778880792742100,6.3197421875,8.46652603149414,3.6453514099121094,0.5522730350494385
1782778880802721500,6.329721435546875,9.985967636108398,4.549029350280762,2.193596124649048
1782778880812731100,6.339731201171875,10.323708534240723,6.7006940841674805,2.648446798324585
1782778880822741000,6.349740966796875,12.018352508544922,6.4726033210754395,3.7905282974243164
