time,seconds_elapsed,z,y,x
1782778855191230500,0.17023046875,-0.26022860407829285,-2.415361166000366,-2.520430088043213
1782778855201807600,0.1808076171875,-0.26022860407829285,-2.415361166000366,-2.520430088043213
1782778855211725800,0.190725830078125,-0.26022860407829285,-2.415361166000366,-2.520430088043213
1782778855221794800,0.200794921875,-0.26022860407829285,-2.415361166000366,-2.520430088043213
1782778855231789000,0.2107890625,0.16798794269561768,0.19853121042251587,0.04092797264456749
1782778855241404700,0.22040478515625,0.22540926933288574,0.3023782968521118,0.02015855349600315
1782778855251808500,0.23080859375,0.19547687470912933,0.39095374941825867,-0.036651913076639175
1782778855261811200,0.240811279296875,0.15393804013729095,0.46242499351501465,-0.09529497474431992
1782778855271797500,0.250797607421875,0.05497787147760391,0.46547931432724,-0.1716531366109848
1782778855281828900,0.260828857421875,-0.015271631069481373,0.4196644127368927,-0.2217440903186798
1782778855291786500,0.270786376953125,0.045204028487205505,0.39706242084503174,-0.19058994948863983
1782778855301817300,0.2808173828125,0.16432274878025055,0.40683624148368835,-0.08796459436416626
1782778855311806200,0.29080615234375,0.27000242471694946,0.4355469346046448,0.033597588539123535
1782778855321807000,0.30080712890625,0.3188716471195221,0.41111230850219727,0.11178833991289139
1782778855331795200,0.310795166015625,0.31093040108680725,0.3799581825733185,0.14782938361167908
1782778855341826600,0.32082666015625,0.2871066629886627,0.4453207552433014,0.14477506279945374
1782778855351784000,0.330783935546875,0.2919935882091522,0.5253441333770752,0.11484266817569733
1782778855361815600,0.340815673828125,0.3836233615875244,0.6151412725448608,0.20952677726745605
1782778855371803600,0.3508037109375,0.6059783101081848,0.5797111392021179,0.44593164324760437
1782778855381804000,0.360803955078125,0.8448266386985779,0.4331034719944,0.6951646208763123
1782778855391792600,0.370792724609375,0.9089674949645996,0.07147123664617538,0.7611380815505981
1782778855401824000,0.380823974609375,0.8674286603927612,-0.2064724564552307,0.7354817390441895
1782778855411781600,0.39078173828125,0.79840087890625,-0.3530801236629486,0.6096435189247131
1782778855421812200,0.400812255859375,0.6908885836601257,-0.513737678527832,0.2742784917354584
1782778855431801300,0.41080126953125,0.5369505286216736,-0.5925393104553223,-0.14905111491680145
1782778855441801000,0.420801025390625,0.3121521472930908,-0.7556403279304504,-0.5455026626586914
1782778855451790000,0.4307900390625,0.07391469180583954,-0.8717046976089478,-0.7825183868408203
1782778855461820400,0.4408203125,-0.05192354694008827,-0.8888089060783386,-0.8729264140129089
1782778855471809800,0.450809814453125,-0.17837265133857727,-0.8961393237113953,-0.8991936445236206
1782778855481811000,0.46081103515625,-0.2718350291252136,-0.8246681094169617,-0.7513642311096191
1782778855491798800,0.470798828125,-0.2724458873271942,-0.7250970602035522,-0.42577308416366577
1782778855501830100,0.480830078125,-0.19547687470912933,-0.6426302194595337,-0.11545353382825851
1782778855511787800,0.490787841796875,-0.18814650177955627,-0.6731734871864319,0.06414084881544113
1782778855521818600,0.500818603515625,-0.2064724564552307,-0.788016140460968,0.11178833991289139
1782778855531807200,0.51080712890625,-0.252287358045578,-0.9425650835037231,0.03726277872920036
1782778855541807000,0.52080712890625,-0.36713001132011414,-1.112385630607605,-0.1618792861700058
1782778855551796500,0.53079638671875,-0.4911356568336487,-1.156978726387024,-0.53328537940979
1782778855561826800,0.540826904296875,-0.5534439086914062,-0.9657779335975647,-0.9969320893287659
1782778855571785200,0.55078515625,-0.5400048494338989,-0.6096435189247131,-1.4172073602676392
1782778855581816600,0.560816650390625,-0.5595525503158569,-0.3292563557624817,-1.6468926668167114
1782778855591805000,0.570804931640625,-0.513126790523529,-0.24862214922904968,-1.585806131362915
1782778855601805800,0.580805908203125,-0.3646865487098694,-0.28466320037841797,-1.2308934926986694
1782778855611794000,0.5907939453125,-0.19425514340400696,-0.3023782968521118,-0.6725626587867737
1782778855621825300,0.6008251953125,-0.10934487730264664,-0.24984388053417206,-0.09651670604944229
1782778855631783000,0.610782958984375,-0.11850785464048386,-0.1814269721508026,0.26939156651496887
1782778855641813200,0.620813232421875,-0.09773843735456467,-0.03298672288656235,0.41233405470848083
1782778855651802400,0.63080224609375,-0.0403171069920063,0.14294247329235077,0.4502076804637909
1782778855661804300,0.64080419921875,-0.00733038317412138,0.24373523890972137,0.46181413531303406
1782778855672035600,0.65103564453125,-0.00366519158706069,0.29138273000717163,0.46547931432724
1782778855681829600,0.66082958984375,-0.016493361443281174,0.29565876722335815,0.4190535545349121
1782778855691780400,0.6707802734375,-0.039095375686883926,0.32986724376678467,0.3536909818649292
1782778855701815000,0.68081494140625,-0.07269296050071716,0.3323107063770294,0.2828305959701538
1782778855711800000,0.690800048828125,-0.03176499158143997,0.32559117674827576,0.24007004499435425
1782778855721832400,0.70083251953125,0.031154127791523933,0.2767219543457031,0.23945917189121246
1782778855731789000,0.7107890625,0.060475658625364304,0.21502456068992615,0.2571742534637451
1782778855741819400,0.7208193359375,0.06475171446800232,0.1459967941045761,0.242513507604599
1782778855751808500,0.73080859375,0.045204028487205505,0.08491026610136032,0.17837265133857727
1782778855761490400,0.740490478515625,0.03726277872920036,0.030543262138962746,0.07452555745840073
1782778855771797500,0.750797607421875,0.048258353024721146,0.005497787147760391,-0.04581489413976669
1782778855781828000,0.760828125,0.07819075137376785,0.003054326167330146,-0.12522737681865692
1782778855791878100,0.770878173828125,0.12034045159816742,0.04337143152952194,-0.1667662113904953
1782778855801928700,0.7809287109375,0.16065755486488342,0.09957103431224823,-0.17898350954055786
1782778855811775700,0.790775634765625,0.19547687470912933,0.18020524084568024,-0.1820378452539444
1782778855821804800,0.8008046875,0.22357667982578278,0.2480112910270691,-0.14416420459747314
1782778855831794400,0.81079443359375,0.252287358045578,0.25534167885780334,-0.05375614017248154
1782778855841824800,0.82082470703125,0.29138273000717163,0.21563543379306793,0.08124507963657379
1782778855851783700,0.83078369140625,0.32131510972976685,0.19975294172763824,0.21807889640331268
1782778855861814000,0.84081396484375,0.3243694305419922,0.22846360504627228,0.32620203495025635
1782778855871803100,0.85080322265625,0.2981022298336029,0.32009339332580566,0.40683624148368835
1782778855881803500,0.860803466796875,0.29138273000717163,0.46792277693748474,0.46242499351501465
1782778855891792100,0.870792236328125,0.3188716471195221,0.6249151229858398,0.46547931432724
1782778855901823000,0.880822998046875,0.34086281061172485,0.6603453159332275,0.3903428912162781
1782778855911781400,0.890781494140625,0.3640756905078888,0.6249151229858398,0.31031954288482666
1782778855921811700,0.900811767578125,0.3579670190811157,0.5064072608947754,0.2382374405860901
1782778855931801000,0.910801025390625,0.3243694305419922,0.4404338300228119,0.19547687470912933
1782778855941801000,0.920801025390625,0.24923302233219147,0.5754350423812866,0.17898350954055786
1782778855961821700,0.94082177734375,0.0403171069920063,1.1545352935791016,0.4043927788734436
1782778855971809800,0.950809814453125,0.013439035043120384,1.4123204946517944,0.7611380815505981
1782778855981810700,0.960810791015625,0.09040805697441101,1.577254056930542,1.2589932680130005
1782778855991798800,0.970798828125,0.2828305959701538,1.474017858505249,1.6664403676986694
1782778856001830100,0.980830078125,0.4398229718208313,1.0458012819290161,1.7788395881652832
1782778856011787800,0.990787841796875,0.5546656250953674,0.4691445231437683,1.4410310983657837
1782778856021819400,1.0008193359375,0.5815436840057373,-0.05009094998240471,0.7666358947753906
1782778856031807200,1.01080712890625,0.6438519954681396,-0.15943582355976105,0.16554448008537292
1782778856041808600,1.02080859375,0.7513642311096191,-0.06719517707824707,-0.19425514340400696
1782778856051796200,1.030796142578125,0.770301103591919,-0.09896016865968704,-0.2932153046131134
1782778856061827600,1.04082763671875,0.6939429044723511,-0.24862214922904968,-0.15577064454555511
1782778856071785200,1.05078515625,0.5778785347938538,-0.44287729263305664,0.06414084881544113
1782778856081815800,1.06081591796875,0.3280346393585205,-0.8460483551025391,0.08979719132184982
1782778856091805000,1.070804931640625,0.016493361443281174,-1.3506230115890503,-0.1973094791173935
1782778856101838600,1.080838623046875,-0.3274237811565399,-1.700037956237793,-0.8210029006004333
1782778856111794000,1.0907939453125,-0.43188172578811646,-1.529606580734253,-0.9755517840385437
1782778856121825300,1.1008251953125,-0.2577851414680481,-1.086118459701538,-0.8191702961921692
1782778856131783000,1.110782958984375,0.02871066704392433,-0.6530149579048157,-0.5296201705932617
1782778856141813800,1.120813720703125,0.06719517707824707,-0.5839871764183044,-0.2767219543457031
1782778856151802400,1.13080224609375,0.021380282938480377,-0.6872233748435974,-0.13866640627384186
1782778856161802200,1.14080224609375,-0.048258353024721146,-0.8454375267028809,-0.14416420459747314
1782778856171791400,1.150791259765625,-0.1716531366109848,-0.9822713136672974,-0.23457226157188416
1782778856181821700,1.16082177734375,-0.2730567753314972,-1.0409144163131714,-0.36224308609962463
1782778856191780400,1.1707802734375,-0.3445279896259308,-0.941343367099762,-0.48869219422340393
1782778856201810700,1.180810791015625,-0.43737950921058655,-0.6603453159332275,-0.6053674817085266
1782778856211800000,1.190800048828125,-0.4917465150356293,-0.35552358627319336,-0.6927211880683899
1782778856221831400,1.20083154296875,-0.4642575979232788,-0.10323622822761536,-0.675616979598999
1782778856231788800,1.210788818359375,-0.4031710624694824,0.06414084881544113,-0.5167919993400574
1782778856241819100,1.220819091796875,-0.28649580478668213,0.17837265133857727,-0.2370157092809677
1782778856251808300,1.230808349609375,-0.1417207419872284,0.2474004179239273,0.07269296050071716
1782778856261810400,1.240810546875,-0.022602014243602753,0.2883284091949463,0.32681289315223694
1782778856271797500,1.250797607421875,0.07147123664617538,0.34086281061172485,0.5363397002220154
1782778856281830100,1.260830078125,0.12950342893600464,0.3952298164367676,0.6585127115249634
1782778856291448000,1.270447998046875,0.11667526513338089,0.4697553813457489,0.685390830039978
1782778856301819600,1.280819580078125,0.05925392732024193,0.5442809462547302,0.6450737118721008
1782778856311806200,1.29080615234375,0.02382374368607998,0.6035348773002625,0.5534439086914062
1782778856321805800,1.300805908203125,0.030543262138962746,0.6621779203414917,0.4337143301963806
1782778856331795200,1.310795166015625,0.02687807008624077,0.656069278717041,0.323147714138031
1782778856341825300,1.3208251953125,0.03420845419168472,0.6145304441452026,0.21135938167572021
1782778856351784000,1.330783935546875,0.0757472887635231,0.5106833577156067,0.08185594528913498
1782778856361814500,1.340814453125,0.08979719132184982,0.35674530267715454,-0.05925392732024193
1782778856371803600,1.3508037109375,0.08857546001672745,0.17837265133857727,-0.23518311977386475
1782778856381803300,1.36080322265625,0.10445795953273773,0.033597588539123535,-0.4129449129104614
1782778856391792600,1.370792724609375,0.11911872029304504,-0.04581489413976669,-0.5070181488990784
1782778856401822700,1.38082275390625,0.12278391420841217,-0.07880161702632904,-0.4801400899887085
1782778856411781600,1.39078173828125,0.13439035415649414,-0.08185594528913498,-0.36651915311813354
1782778856421812500,1.4008125,0.1417207419872284,-0.08857546001672745,-0.20952677726745605
1782778856431801000,1.410801025390625,0.1264491081237793,-0.06536258012056351,-0.04948008432984352
1782778856441801200,1.42080126953125,0.06536258012056351,-0.012217304669320583,0.09468411654233932
1782778856451899400,1.4308994140625,0.021380282938480377,0.02626720629632473,0.20952677726745605
1782778856461820700,1.440820556640625,0.0024434609804302454,0.0507018156349659,0.2626720666885376
1782778856471809500,1.4508095703125,0.07941248267889023,0.11178833991289139,0.24984388053417206
1782778856481707000,1.46070703125,0.23457226157188416,0.18081611394882202,0.2632829248905182
1782778856491798800,1.470798828125,0.37140607833862305,0.12034045159816742,0.28649580478668213
1782778856501830000,1.480829833984375,0.4434881806373596,0.006108652334660292,0.24617868661880493
1782778856511788000,1.4907880859375,0.4789183437824249,0.016493361443281174,0.18570303916931152
1782778856521820400,1.5008203125,0.2871066629886627,0.18509216606616974,0.0507018156349659
1782778856531807200,1.51080712890625,0.10384709388017654,0.29138273000717163,-0.0012217304902151227
1782778856541807000,1.52080712890625,0.07757988572120667,0.5106833577156067,-0.003054326167330146
1782778856551796200,1.530796142578125,0.15577064454555511,0.6969972252845764,0.07024950534105301
1782778856561827800,1.540827880859375,0.28466320037841797,0.8423831462860107,0.35185837745666504
1782778856571785200,1.55078515625,0.4306600093841553,0.8930850028991699,0.8252789378166199
1782778856581816800,1.56081689453125,0.5595525503158569,0.8356636762619019,1.3200798034667969
1782778856601805600,1.5808056640625,0.8356636762619019,0.5387831330299377,1.395827054977417
1782778856611794000,1.5907939453125,0.9089674949645996,0.384845107793808,0.5729916095733643
1782778856621824300,1.60082421875,0.7800748944282532,-0.05619960278272629,-0.6126978397369385
1782778856631783200,1.610783203125,0.47830748558044434,-0.41111230850219727,-1.568701982498169
1782778856641813200,1.620813232421875,0.21380282938480377,-0.911410927772522,-2.182621479034424
1782778856651802400,1.63080224609375,0.05925392732024193,-1.8753563165664673,-2.6261096000671387
1782778856661802200,1.64080224609375,-0.003054326167330146,-2.6010642051696777,-2.8796188831329346
1782778856671791400,1.650791259765625,-0.13927727937698364,-2.4080307483673096,-2.5894577503204346
1782778856681821700,1.66082177734375,-0.2968805134296417,-1.6395623683929443,-1.7592918872833252
1782778856691780600,1.670780517578125,-0.28038713335990906,-0.5968153476715088,-0.6579018831253052
1782778856701810400,1.680810546875,-0.12400564551353455,0.03298672288656235,0.24190263450145721
1782778856711800000,1.690800048828125,-0.08307767659425735,0.13255776464939117,0.6994407176971436
1782778856721830100,1.700830078125,-0.16920967400074005,-0.028099801391363144,0.7428121566772461
1782778856731789000,1.7107890625,-0.4129449129104614,-0.30543261766433716,0.4489859640598297
1782778856741819400,1.7208193359375,-0.7250970602035522,-0.543059229850769,-0.007941247895359993
1782778856751808500,1.73080859375,-0.9779952764511108,-0.6884451508522034,-0.5265658497810364
1782778856761809200,1.74080908203125,-1.102611780166626,-0.7214318513870239,-1.0317513942718506
1782778856771797500,1.750797607421875,-1.0409144163131714,-0.6261368989944458,-1.3939944505691528
1782778856781828900,1.760828857421875,-0.8216137290000916,-0.44287729263305664,-1.5094480514526367
1782778856791786500,1.770786376953125,-0.5613851547241211,-0.1612684279680252,-1.4025466442108154
1782778856801816800,1.78081689453125,-0.485027015209198,0.1966986060142517,-1.2315043210983276
1782778856811806200,1.79080615234375,-0.5717698931694031,0.46792277693748474,-1.037249207496643
1782778856821804800,1.8008046875,-0.7800748944282532,0.7037167549133301,-0.770301103591919
1782778856831794400,1.81079443359375,-1.0922271013259888,0.8552113175392151,-0.44226643443107605
1782778856841827300,1.820827392578125,-1.4062118530273438,0.7922922372817993,-0.09468411654233932
1782778856851783700,1.83078369140625,-1.6975945234298706,0.26939156651496887,0.618195652961731
1782778856861814000,1.84081396484375,-1.8991800546646118,-0.5925393104553223,1.6646077632904053
1782778856871803100,1.85080322265625,-1.7959438562393188,-1.2095131874084473,2.5387558937072754
1782778856881802800,1.860802734375,-1.4587461948394775,-1.3475687503814697,2.8991663455963135
1782778856891792400,1.87079248046875,-1.129489779472351,-1.0855075120925903,2.8270843029022217
1782778856901824800,1.88082470703125,-0.7043276429176331,-0.28038713335990906,2.180788993835449
1782778856911781000,1.890781005859375,-0.3225368559360504,0.8295549750328064,1.178359031677246
1782778856921812000,1.90081201171875,-0.054367005825042725,1.633453607559204,0.13011430203914642
1782778856931801000,1.910801025390625,0.042760565876960754,1.803274154663086,-0.6475171446800232
1782778856941801000,1.920801025390625,-0.14782938361167908,1.264491081237793,-1.1826350688934326
1782778856951790000,1.9307900390625,-0.31093040108680725,0.6151412725448608,-1.1160508394241333
1782778856961822500,1.940822509765625,-0.2968805134296417,0.2223549485206604,-0.6737843751907349
1782778856971769000,1.95076904296875,-0.17531833052635193,0.03848451003432274,-0.19058994948863983
1782778856982618000,1.9616181640625,-0.0354301854968071,-0.08124507963657379,0.24862214922904968
1782778857001831400,1.98083154296875,0.35246923565864563,0.2736676335334778,0.7947356700897217
1782778857011787800,1.990787841796875,0.4893030524253845,0.35613444447517395,0.8429940342903137
1782778857021821000,2.000821044921875,0.5473352670669556,0.394008070230484,0.8222246170043945
1782778857031807200,2.01080712890625,0.5558874011039734,0.3842342495918274,0.7550294399261475
1782778857041807000,2.02080712890625,0.5076290369033813,0.313373863697052,0.6432411074638367
1782778857051796500,2.03079638671875,0.4306600093841553,0.23273965716362,0.475253164768219
1782778857061826600,2.04082666015625,0.3628539443016052,0.19608774781227112,0.2828305959701538
1782778857071785200,2.05078515625,0.33047810196876526,0.16249015927314758,0.10262536257505417
1782778857081816800,2.06081689453125,0.34025195240974426,0.17592918872833252,-0.02321287989616394
1782778857091805000,2.070804931640625,0.35674530267715454,0.2125810980796814,-0.04581489413976669
1782778857101806800,2.080806884765625,0.3689626157283783,0.27000242471694946,0.00855211354792118
1782778857111750400,2.09075048828125,0.3646865487098694,0.3378084897994995,0.07941248267889023
1782778857121793500,2.10079345703125,0.34025195240974426,0.3433062732219696,0.1264491081237793
1782778857131782700,2.11078271484375,0.34086281061172485,0.32131510972976685,0.08674286305904388
1782778857141815600,2.120815673828125,0.36224308609962463,0.30482175946235657,-0.039095375686883926
1782778857152016000,2.131015869140625,0.3854559659957886,0.2675589919090271,-0.17959438264369965
1782778857161804500,2.140804443359375,0.42271876335144043,0.2370157092809677,-0.32070425152778625
1782778857171791400,2.150791259765625,0.46303585171699524,0.26083946228027344,-0.4331034719944
1782778857181821700,2.16082177734375,0.5009095072746277,0.3579670190811157,-0.4190535545349121
1782778857191780400,2.1707802734375,0.41661009192466736,0.5283984541893005,-0.2370157092809677
1782778857201812000,2.18081201171875,0.32498031854629517,0.4764748811721802,-0.039095375686883926
1782778857211800000,2.190800048828125,0.37140607833862305,-0.11362093687057495,-0.07941248267889023
1782778857221831700,2.200831787109375,0.5662720799446106,-1.0476338863372803,-0.5082398653030396
1782778857241819400,2.2208193359375,1.1215485334396362,-1.8820757865905762,-1.5937473773956299
1782778857251808500,2.23080859375,1.1374311447143555,-2.1264219284057617,-1.9883663654327393
1782778857261808400,2.240808349609375,0.7586946487426758,-1.9926424026489258,-2.1123719215393066
1782778857271797500,2.250797607421875,0.18081611394882202,-1.4300355911254883,-1.9688186645507812
1782778857281827800,2.260827880859375,-0.2632829248905182,-0.7568620443344116,-1.6035212278366089
1782778857291786500,2.270786376953125,-0.21502456068992615,-0.14294247329235077,-1.0409144163131714
1782778857301816800,2.28081689453125,0.02871066704392433,0.2779437005519867,-0.4392121136188507
1782778857311806000,2.290805908203125,0.10567969083786011,0.27061331272125244,-0.04886921867728233
1782778857321805800,2.300805908203125,0.04459316283464432,0.10018189996480942,0.1258382350206375
1782778857331795000,2.310794921875,-0.14966198801994324,-0.11972958594560623,0.16310101747512817
1782778857341825500,2.320825439453125,-0.40133845806121826,-0.47830748558044434,0.08552113175392151
1782778857351784200,2.3307841796875,-0.5894849896430969,-0.769690215587616,-0.019547687843441963
1782778857361814500,2.340814453125,-0.7220427393913269,-0.9236282706260681,-0.14538592100143433
1782778857371803400,2.350803466796875,-0.7641924023628235,-0.8680394887924194,-0.2321287989616394
1782778857381804300,2.36080419921875,-0.7648032903671265,-0.7147123217582703,-0.34208452701568604
1782778857391792600,2.370792724609375,-0.749531626701355,-0.5760459303855896,-0.46303585171699524
1782778857401824300,2.38082421875,-0.7837401032447815,-0.5412266254425049,-0.5668829679489136
1782778857411782000,2.390781982421875,-0.7867944240570068,-0.5583308339118958,-0.6340781450271606
1782778857421812000,2.40081201171875,-0.675006091594696,-0.40683624148368835,-0.5564982295036316
1782778857431801000,2.410801025390625,-0.523511528968811,-0.18509216606616974,-0.33475416898727417
1782778857441803300,2.42080322265625,-0.3390302062034607,0.03298672288656235,-0.06352998316287994
1782778857451790000,2.4307900390625,-0.18631389737129211,0.27061331272125244,0.16371189057826996
1782778857461822500,2.440822509765625,-0.15882496535778046,0.5192354321479797,0.32986724376678467
1782778857471809800,2.450809814453125,-0.19058994948863983,0.6579018831253052,0.49235737323760986
1782778857481809400,2.460809326171875,-0.1612684279680252,0.46364670991897583,0.7929030656814575
1782778857491798800,2.470798828125,-0.11545353382825851,0.14355333149433136,1.1624765396118164
1782778857501828900,2.480828857421875,-0.039095375686883926,0.005497787147760391,1.32863187789917
1782778857511787800,2.490787841796875,0.014049900695681572,-0.025656340643763542,1.2773191928863525
1782778857521818600,2.500818603515625,0.0403171069920063,0.09651670604944229,1.0024298429489136
1782778857531807200,2.51080712890625,-0.03176499158143997,0.33475416898727417,0.5204572081565857
1782778857541806800,2.520806884765625,-0.18631389737129211,0.5259549617767334,-0.15393804013729095
1782778857551796200,2.530796142578125,-0.304210901260376,0.6890559792518616,-0.8796459436416626
1782778857561826800,2.540826904296875,-0.31031954288482666,0.778853178024292,-1.4654656648635864
1782778857571785200,2.55078515625,-0.21868975460529327,0.7250970602035522,-1.7238616943359375
1782778857581815600,2.560815673828125,-0.051312681287527084,0.513737678527832,-1.6084082126617432
1782778857591805000,2.570804931640625,0.10751228034496307,0.242513507604599,-1.1734721660614014
1782778857601805800,2.580805908203125,0.2119702398777008,0.03848451003432274,-0.49785518646240234
1782778857611794000,2.5907939453125,0.26450464129447937,0.08491026610136032,0.182648703455925
1782778857621824300,2.60082421875,0.2742784917354584,0.12217304855585098,0.6389650702476501
1782778857631783000,2.610782958984375,0.22296582162380219,0.2119702398777008,0.8894197940826416
1782778857641816000,2.620816162109375,0.192422553896904,0.3481931984424591,0.9248499870300293
1782778857651802400,2.63080224609375,0.21441370248794556,0.5326744914054871,0.8020660877227783
1782778857661802800,2.640802734375,0.24495697021484375,0.6811147332191467,0.6059783101081848
1782778857671750700,2.650750732421875,0.2626720666885376,0.7446447610855103,0.37751471996307373
1782778857681884000,2.6608837890625,0.2883284091949463,0.7641924023628235,0.13255776464939117
1782778857691780400,2.6707802734375,0.2968805134296417,0.6701191663742065,-0.06536258012056351
1782778857701810700,2.680810791015625,0.24495697021484375,0.5076290369033813,-0.16249015927314758
1782778857711800000,2.690800048828125,0.18875735998153687,0.4398229718208313,-0.05803219974040985
1782778857721830100,2.700830078125,0.1472185254096985,0.684779942035675,0.14233160018920898
1782778857731789000,2.7107890625,0.11301007121801376,0.7605272531509399,0.25534167885780334
1782778857741821400,2.720821533203125,0.11362093687057495,0.8558222055435181,0.3194825351238251
1782778857751808300,2.730808349609375,0.029932396486401558,0.7757988572120667,0.3066543638706207
1782778857761808400,2.740808349609375,-0.059864792972803116,0.4196644127368927,0.10445795953273773
1782778857771797500,2.750797607421875,-0.05742133408784866,0.13072516024112701,-0.15515977144241333
1782778857781828900,2.760828857421875,-0.036041051149368286,-0.0012217304902151227,-0.2174680233001709
1782778857791786500,2.770786376953125,0.15332718193531036,-0.08491026610136032,0.09834930300712585
1782778857801818400,2.780818359375,0.3732386529445648,0.13500121235847473,0.4862487316131592
1782778857811806200,2.79080615234375,0.5766568183898926,0.5479460954666138,0.8100073337554932
1782778857821806000,2.80080615234375,0.7250970602035522,0.7275404930114746,0.8417723178863525
1782778857831794700,2.810794677734375,0.8191702961921692,0.6872233748435974,0.48869219422340393
1782778857841825000,2.820824951171875,0.7843509912490845,0.48197266459465027,0.0012217304902151227
1782778857851783700,2.83078369140625,0.6505714654922485,0.2736676335334778,-0.29565876722335815
1782778857861815300,2.840815185546875,0.5363397002220154,0.09957103431224823,-0.31520646810531616
1782778857881804300,2.86080419921875,0.43249258399009705,-0.7183775305747986,-0.07391469180583954
1782778857891792400,2.87079248046875,0.44776421785354614,-1.55892813205719,0.08002334833145142
1782778857901822500,2.880822509765625,0.4489859640598297,-2.364659309387207,0.13561208546161652
1782778857911781000,2.890781005859375,0.3530801236629486,-2.671313762664795,0.14416420459747314
1782778857921812000,2.90081201171875,0.2028072625398636,-2.2211060523986816,0.2938261926174164
1782778857931801000,2.910801025390625,0.10751228034496307,-1.5161675214767456,0.41722095012664795
1782778857941801000,2.920801025390625,0.06291911751031876,-0.856433093547821,0.38606682419776917
1782778857951790000,2.9307900390625,0.018936822190880775,-0.4202753007411957,0.23273965716362
1782778857961820700,2.940820556640625,-0.07391469180583954,-0.29138273000717163,0.0354301854968071
1782778857971809800,2.950809814453125,-0.11056660860776901,-0.45692721009254456,-0.17837265133857727
1782778857981809400,2.960809326171875,-0.1417207419872284,-0.8258898258209229,-0.4605923891067505
1782778857991798800,2.970798828125,-0.21319197118282318,-1.2932016849517822,-0.8136724829673767
1782778858001828900,2.980828857421875,-0.313373863697052,-1.6114624738693237,-1.169806957244873
1782778858011787800,2.990787841796875,-0.4245513379573822,-1.6743816137313843,-1.389107584953308
1782778858021818600,3.000818603515625,-0.45326200127601624,-1.5625933408737183,-1.4605787992477417
1782778858031807500,3.010807373046875,-0.323147714138031,-1.3078625202178955,-1.4110987186431885
1782778858041807000,3.02080712890625,-0.10690141469240189,-0.9517280459403992,-1.2321151494979858
1782778858051796200,3.030796142578125,0.13866640627384186,-0.5723807215690613,-0.912021815776825
1782778858061827800,3.040827880859375,0.32498031854629517,-0.1820378452539444,-0.5094616413116455
1782778858071785200,3.05078515625,0.4282165467739105,0.18448130786418915,-0.10018189996480942
1782778858081816800,3.06081689453125,0.3732386529445648,0.47830748558044434,0.2840523421764374
1782778858091805000,3.070804931640625,0.23396138846874237,0.6328563690185547,0.5845980644226074
1782778858101833500,3.08083349609375,0.20341812074184418,0.7397578358650208,0.7452555894851685
1782778858111794000,3.0907939453125,0.17837265133857727,0.7800748944282532,0.8057312369346619
1782778858121824300,3.10082421875,0.1062905490398407,0.6798930168151855,0.7623597979545593
1782778858131783000,3.110782958984375,0.07391469180583954,0.5192354321479797,0.6224716901779175
1782778858141815000,3.12081494140625,0.09407325088977814,0.3952298164367676,0.4050036668777466
1782778858151802000,3.130802001953125,0.16493362188339233,0.4092797040939331,0.19853121042251587
1782778858161802200,3.14080224609375,0.2174680233001709,0.4691445231437683,0.04398229718208313
1782778858171687200,3.150687255859375,0.20341812074184418,0.5283984541893005,-0.06780604273080826
1782778858181824500,3.160824462890625,0.15271630883216858,0.5760459303855896,-0.14782938361167908
1782778858191780600,3.170780517578125,0.09162978827953339,0.6010913848876953,-0.14233160018920898
1782778858201375500,3.18037548828125,0.03237585723400116,0.6713408827781677,-0.09040805697441101
1782778858211807700,3.190807861328125,-0.027488935738801956,0.6450737118721008,0.00366519158706069
1782778858221832200,3.200832275390625,-0.02687807008624077,0.5736024379730225,0.05253441259264946
1782778858231789000,3.2107890625,0.015271631069481373,0.5057964324951172,0.09162978827953339
1782778858241930800,3.2209306640625,0.08368854224681854,0.4453207552433014,0.12950342893600464
1782778858251778000,3.230778076171875,0.15821409225463867,0.4050036668777466,0.17837265133857727
1782778858261810400,3.240810546875,0.21807889640331268,0.4331034719944,0.24556782841682434
1782778858271797500,3.250797607421875,0.2871066629886627,0.5167919993400574,0.30543261766433716
1782778858281664300,3.260664306640625,0.3543018400669098,0.6188064813613892,0.342695415019989
1782778858291786500,3.270786376953125,0.39095374941825867,0.6884451508522034,0.35185837745666504
1782778858301819000,3.28081884765625,0.37140607833862305,0.7275404930114746,0.3023782968521118
1782778858311806200,3.29080615234375,0.3396410644054413,0.7263187766075134,0.2217440903186798
1782778858321960700,3.300960693359375,0.30482175946235657,0.6499606370925903,0.13500121235847473
1782778858331795000,3.310794921875,0.29077184200286865,0.5204572081565857,0.08857546001672745
1782778858341826600,3.32082666015625,0.31031954288482666,0.48747047781944275,0.13561208546161652
1782778858351784000,3.330783935546875,0.342695415019989,0.646906316280365,0.3225368559360504
1782778858361814500,3.340814453125,0.41111230850219727,0.9615018963813782,0.5180137157440186
1782778858371803600,3.3508037109375,0.49724429845809937,1.291369080543518,0.5577199459075928
1782778858381803300,3.36080322265625,0.5412266254425049,1.4611896276474,0.4239404797554016
1782778858391792600,3.370792724609375,0.4966334402561188,1.340238332748413,0.2742784917354584
1782778858401824000,3.380823974609375,0.43615779280662537,1.0690141916275024,0.20097467303276062
1782778858411781600,3.39078173828125,0.5363397002220154,1.0378600358963013,0.20586158335208893
1782778858421813200,3.400813232421875,0.8161159753799438,1.370781660079956,0.15821409225463867
1782778858441801000,3.420801025390625,1.1191051006317139,1.3878858089447021,-0.45631635189056396
1782778858451790300,3.430790283203125,0.921795666217804,0.9547823667526245,-0.7507534027099609
1782778858461789700,3.440789794921875,0.6976081132888794,0.3781255781650543,-0.827722430229187
1782778858471870700,3.45087060546875,0.5681046843528748,-0.02687807008624077,-0.6334672570228577
1782778858481779000,3.460779052734375,0.485027015209198,-0.43737950921058655,-0.38728857040405273
1782778858491859700,3.470859619140625,0.31031954288482666,-1.06657075881958,-0.20952677726745605
1782778858501828900,3.480828857421875,0.08307767659425735,-1.719585657119751,-0.08124507963657379
1782778858511787800,3.490787841796875,-0.05497787147760391,-2.349998712539673,-0.1362229436635971
1782778858521818000,3.500818115234375,-0.1814269721508026,-2.5809056758880615,-0.3225368559360504
1782778858531766500,3.5107666015625,-0.3341432809829712,-2.186286687850952,-0.4740314185619354
1782778858542747100,3.5217470703125,-0.4593706727027893,-1.3952162265777588,-0.42760565876960754
1782778858561826800,3.540826904296875,-0.48197266459465027,0.029932396486401558,0.20402899384498596
1782778858571785500,3.550785400390625,-0.6004805564880371,0.10751228034496307,0.5442809462547302
1782778858581815800,3.56081591796875,-0.7159340381622314,-0.051312681287527084,0.7446447610855103
1782778858591805000,3.570804931640625,-0.7922922372817993,-0.2883284091949463,0.7367035150527954
1782778858601804800,3.5808046875,-0.901637077331543,-0.5467243790626526,0.5516113042831421
1782778858611794000,3.5907939453125,-1.0286970138549805,-0.769079327583313,0.2791654169559479
1782778858621825000,3.600824951171875,-1.1068878173828125,-0.950506329536438,-0.04764748737215996
1782778858631783000,3.610782958984375,-1.0543533563613892,-0.9199630618095398,-0.6108652353286743
1782778858641813200,3.620813232421875,-0.9657779335975647,-0.7635815739631653,-0.8087855577468872
1782778858651802400,3.63080224609375,-0.837496280670166,-0.5528330206871033,-0.759916365146637
1782778858661804500,3.640804443359375,-0.6646214127540588,-0.3066543638706207,-0.5412266254425049
1782778858671791400,3.650791259765625,-0.4697553813457489,-0.07452555745840073,-0.22907446324825287
1782778858681822000,3.660822021484375,-0.28649580478668213,0.15271630883216858,0.14538592100143433
1782778858691780400,3.6707802734375,-0.2021963894367218,0.3543018400669098,0.5534439086914062
1782778858701812700,3.680812744140625,-0.2064724564552307,0.4447098970413208,0.9285151958465576
1782778858711800000,3.690800048828125,-0.2125810980796814,0.4648684561252594,1.2095131874084473
1782778858721830100,3.700830078125,-0.22113321721553802,0.3799581825733185,1.338405728340149
1782778858731789000,3.7107890625,-0.24678955972194672,0.303600013256073,1.2809844017028809
1782778858741819100,3.720819091796875,-0.2828305959701538,0.19608774781227112,1.0348057746887207
1782778858751808500,3.73080859375,-0.29138273000717163,0.14294247329235077,0.6878342628479004
1782778858761808400,3.740808349609375,-0.2272418737411499,0.2168571650981903,0.313373863697052
1782778858771797500,3.750797607421875,-0.1618792861700058,0.3732386529445648,-0.04703662544488907
1782778858781830000,3.760829833984375,-0.13988813757896423,0.5210680365562439,-0.33597588539123535
1782778858791786500,3.770786376953125,-0.11667526513338089,0.5833762884140015,-0.4948008358478546
1782778858801816800,3.78081689453125,-0.05619960278272629,0.5992587804794312,-0.4795292317867279
1782778858811806200,3.79080615234375,0.01710422709584236,0.5375614166259766,-0.36590829491615295
1782778858821804500,3.800804443359375,0.09773843735456467,0.475253164768219,-0.2278527319431305
1782778858831794400,3.81079443359375,0.20463985204696655,0.40256020426750183,-0.11056660860776901
1782778858841827000,3.8208271484375,0.3090978264808655,0.33597588539123535,-0.018325956538319588
1782778858851783700,3.83078369140625,0.3842342495918274,0.27611109614372253,0.056810468435287476
1782778858861818400,3.840818359375,0.4300491213798523,0.24862214922904968,0.11667526513338089
1782778858871911400,3.850911376953125,0.4648684561252594,0.24190263450145721,0.17776179313659668
1782778858881805300,3.860805419921875,0.5461135506629944,0.3023782968521118,0.24434609711170197
1782778858891792100,3.870792236328125,0.5925393104553223,0.32681289315223694,0.28588494658470154
1782778858901822500,3.880822509765625,0.5693264007568359,0.33597588539123535,0.294437050819397
1782778858911781000,3.890781005859375,0.5180137157440186,0.31642818450927734,0.2822197377681732
1782778858921585400,3.90058544921875,0.5027421116828918,0.26083946228027344,0.27122417092323303
1782778858931801000,3.910801025390625,0.5119050741195679,0.24495697021484375,0.2974913716316223
1782778858941803000,3.920802978515625,0.5381723046302795,0.28649580478668213,0.303600013256073
1782778858951790300,3.930790283203125,0.5161811113357544,0.3176499307155609,0.29993483424186707
1782778858961821200,3.9408212890625,0.5002986192703247,0.31154128909111023,0.31093040108680725
1782778858971809800,3.950809814453125,0.5736024379730225,0.3341432809829712,0.3787364661693573
1782778858981809400,3.960809326171875,0.6695083379745483,0.4178318381309509,0.4715879559516907
1782778858991798800,3.970798828125,0.6780604124069214,0.5283984541893005,0.4966334402561188
1782778859001830400,3.980830322265625,0.6536257863044739,0.7617489695549011,0.5314527750015259
1782778859011787800,3.990787841796875,0.6096435189247131,0.9657779335975647,0.6047565937042236
1782778859021819400,4.0008193359375,0.5742133259773254,1.1001683473587036,0.6743952035903931
1782778859031807500,4.010807373046875,0.7177666425704956,1.253495454788208,0.7177666425704956
1782778859041808000,4.020807861328125,0.9529497623443604,1.5247195959091187,0.7018841505050659
1782778859051796200,4.030796142578125,1.140485405921936,1.6646077632904053,0.45875978469848633
1782778859061827300,4.040827392578125,0.9676105380058289,1.3897184133529663,-0.24068090319633484
1782778859081816800,4.06081689453125,0.38117989897727966,0.3836233615875244,-0.9566149711608887
1782778859091805000,4.070804931640625,0.41111230850219727,-0.513737678527832,-1.1386528015136719
1782778859101804300,4.08080419921875,0.3952298164367676,-1.7311921119689941,-1.1661417484283447
1782778859111794000,4.0907939453125,0.34025195240974426,-2.5051584243774414,-0.7751879692077637
1782778859121793500,4.10079345703125,0.4550946056842804,-2.339003086090088,0.06291911751031876
1782778859131874600,4.11087451171875,0.6359107494354248,-1.6646077632904053,0.827722430229187
1782778859141813000,4.12081298828125,0.6835582256317139,-0.9138544201850891,1.0219775438308716
1782778859151802400,4.13080224609375,0.4715879559516907,-0.45631635189056396,0.7043276429176331
1782778859161802200,4.14080224609375,0.18387043476104736,-0.2718350291252136,0.2382374405860901
1782778859171791400,4.150791259765625,-0.13500121235847473,-0.38240164518356323,-0.21074850857257843
1782778859181822000,4.160822021484375,-0.4807509481906891,-0.5821545720100403,-0.5167919993400574
1782778859191780400,4.1707802734375,-0.7611380815505981,-0.779464066028595,-0.720820963382721
1782778859201810700,4.180810791015625,-0.930347740650177,-1.0543533563613892,-0.8576548099517822
1782778859211800000,4.190800048828125,-1.0018190145492554,-1.4538593292236328,-0.8808676600456238
1782778859221831400,4.20083154296875,-0.9388998746871948,-1.8405369520187378,-0.7018841505050659
1782778859231788800,4.210788818359375,-0.7580837607383728,-2.149634838104248,-0.2968805134296417
1782778859241820700,4.220820556640625,-0.5522221922874451,-2.1704041957855225,0.22846360504627228
1782778859251808300,4.230808349609375,-0.42638394236564636,-1.9437731504440308,0.6212499737739563
1782778859261808400,4.240808349609375,-0.3793473243713379,-1.436144232749939,0.7819074988365173
1782778859271797500,4.250797607421875,-0.38728857040405273,-0.7177666425704956,0.7562511563301086
1782778859281830000,4.260829833984375,-0.39156460762023926,-0.08429940044879913,0.5974262356758118
1782778859291786500,4.270786376953125,-0.3836233615875244,0.43127086758613586,0.413555771112442
1782778859301819600,4.280819580078125,-0.303600013256073,0.7544185519218445,0.29565876722335815
1782778859311806200,4.29080615234375,-0.2791654169559479,0.8124507665634155,0.27488934993743896
1782778859321808000,4.300807861328125,-0.36713001132011414,0.637132465839386,0.31581732630729675
1782778859331795200,4.310795166015625,-0.46181413531303406,0.33047810196876526,0.39706242084503174
1782778859341826300,4.320826416015625,-0.5632177591323853,0.030543262138962746,0.4599815309047699
1782778859351784000,4.330783935546875,-0.665232241153717,-0.19486601650714874,0.47708576917648315
1782778859361814500,4.340814453125,-0.7391469478607178,-0.2889392673969269,0.4001167416572571
1782778859371803400,4.350803466796875,-0.7415903806686401,-0.24129177629947662,0.2370157092809677
1782778859381805600,4.3608056640625,-0.6774495840072632,-0.1417207419872284,0.018936822190880775
1782778859391792600,4.370792724609375,-0.5668829679489136,-0.04214970022439957,-0.1875356286764145
1782778859401823200,4.3808232421875,-0.43615779280662537,0.012217304669320583,-0.32620203495025635
1782778859411781600,4.39078173828125,-0.31459560990333557,0.02321287989616394,-0.39584067463874817
1782778859421812000,4.40081201171875,-0.20586158335208893,0.02382374368607998,-0.3836233615875244
1782778859431801000,4.410801025390625,-0.1111774742603302,0.018936822190880775,-0.2889392673969269
1782778859441770200,4.420770263671875,-0.03726277872920036,-0.015271631069481373,-0.1466076523065567
1782778859451841000,4.430841064453125,0.03298672288656235,-0.07330382615327835,0.004886921960860491
1782778859463378000,4.4423779296875,0.10751228034496307,-0.19853121042251587,0.16004669666290283
1782778859482192000,4.46119189453125,0.1765400618314743,-0.23884831368923187,0.12889257073402405
1782778859492179200,4.47117919921875,0.2021963894367218,-0.21441370248794556,0.039706241339445114
1782778859502270500,4.4812705078125,0.22113321721553802,-0.18570303916931152,-0.04886921867728233
1782778859512259800,4.491259765625,0.23579397797584534,-0.1661553531885147,-0.11239920556545258
1782778859522203000,4.501202880859375,0.25473082065582275,-0.15821409225463867,-0.16493362188339233
1782778859532235800,4.51123583984375,0.2785545587539673,-0.14355333149433136,-0.24556782841682434
1782778859542187500,4.5211875,0.26511552929878235,-0.11728613078594208,-0.33658674359321594
1782778859552136200,4.53113623046875,0.2119702398777008,-0.04214970022439957,-0.40683624148368835
1782778859562268200,4.54126806640625,0.12400564551353455,-0.006108652334660292,-0.484416127204895
1782778859572125000,4.551125,0.02626720629632473,0.0507018156349659,-0.6139195561408997
1782778859582917000,4.561917236328125,-0.027488935738801956,0.18020524084568024,-0.7507534027099609
1782778859602123800,4.581123779296875,-0.09957103431224823,0.5461135506629944,-0.9553932547569275
1782778859612235300,4.5912353515625,-0.09407325088977814,0.4966334402561188,-0.8429940342903137
1782778859622206000,4.6012060546875,0.02382374368607998,0.40744712948799133,-0.48685958981513977
1782778859632163300,4.611163330078125,0.2168571650981903,0.4801400899887085,0.007941247895359993
1782778859642195000,4.62119482421875,0.3732386529445648,0.6304129362106323,0.5174028873443604
1782778859652182800,4.631182861328125,0.46670106053352356,0.6872233748435974,0.6805039048194885
1782778859662182700,4.6411826171875,0.4153883755207062,0.7629706859588623,0.2926044464111328
1782778859672171800,4.651171875,0.14844025671482086,0.8491026759147644,-0.5253441333770752
1782778859682202400,4.661202392578125,-0.2217440903186798,0.8710938692092896,-1.3927727937698364
1782778859692161000,4.6711611328125,-0.3396410644054413,0.8417723178863525,-1.8991800546646118
1782778859702192400,4.6811923828125,-0.2021963894367218,0.5461135506629944,-1.9168951511383057
1782778859712180500,4.691180419921875,-0.025656340643763542,-0.2993239760398865,-1.6841554641723633
1782778859722210600,4.70121044921875,0.08674286305904388,-1.4453071355819702,-1.3756685256958008
1782778859732169500,4.71116943359375,0.06291911751031876,-2.1508564949035645,-0.9395107626914978
1782778859742199800,4.72119970703125,-0.15577064454555511,-2.0616703033447266,-0.37262779474258423
1782778859752189000,4.73118896484375,-0.40072759985923767,-1.3573426008224487,0.17409659922122955
1782778859762188800,4.741188720703125,-0.48258355259895325,-0.34025195240974426,0.45814892649650574
1782778859772137500,4.751137451171875,-0.455705463886261,0.475253164768219,0.3891211748123169
1782778859783558100,4.76255810546875,-0.4184426963329315,1.1068878173828125,0.04642575979232788
1782778859802197200,4.781197265625,-0.42760565876960754,0.9810495972633362,-0.14294247329235077
1782778859812186600,4.7911865234375,-0.5051855444908142,0.5424483418464661,-0.15454891324043274
1782778859822185500,4.801185546875,-0.6090326309204102,-0.01038470957428217,-0.19364428520202637
1782778859832174800,4.8111748046875,-0.7104362845420837,-0.41722095012664795,-0.3433062732219696
1782778859842205400,4.821205322265625,-0.8246681094169617,-0.5473352670669556,-0.5057964324951172
1782778859852163800,4.831163818359375,-0.9242390990257263,-0.5125159621238708,-0.5229006409645081
1782778859862195700,4.84119580078125,-0.9529497623443604,-0.3640756905078888,-0.33475416898727417
1782778859872183600,4.85118359375,-0.8930850028991699,-0.15882496535778046,0
1782778859882183700,4.86118359375,-0.7574729323387146,0.0403171069920063,0.4294382631778717
1782778859892172500,4.871172607421875,-0.5833762884140015,0.2070833146572113,0.8319984674453735
1782778859902203000,4.881202880859375,-0.37201693654060364,0.423329621553421,1.2699888944625854
1782778859912161500,4.89116162109375,-0.2938261926174164,0.5693264007568359,1.425148606300354
1782778859922193700,4.901193603515625,-0.23518311977386475,0.7654141783714294,1.4721852540969849
1782778859932181800,4.911181640625,-0.3176499307155609,0.8423831462860107,1.4123204946517944
1782778859943318000,4.922318115234375,-0.42577308416366577,0.8014551997184753,1.2712105512619019
1782778859962140000,4.941139892578125,-0.543059229850769,0.5552765130996704,0.7916813492774963
1782778859972251100,4.951251220703125,-0.513737678527832,0.3744603991508484,0.4795292317867279
1782778859982190000,4.961190185546875,-0.46181413531303406,0.16371189057826996,0.1362229436635971
1782778859992179200,4.97117919921875,-0.384845107793808,0.039095375686883926,-0.19547687470912933
1782778860002209500,4.98120947265625,-0.3433062732219696,-0.02321287989616394,-0.46853363513946533
1782778860012168200,4.991168212890625,-0.33658674359321594,-0.045204028487205505,-0.665232241153717
1782778860022198300,5.0011982421875,-0.3090978264808655,-0.054367005825042725,-0.7715228199958801
1782778860032188000,5.01118798828125,-0.22479841113090515,-0.01160643994808197,-0.779464066028595
1782778860042187500,5.0211875,-0.11850785464048386,0.05497787147760391,-0.7031059265136719
1782778860052177000,5.031177001953125,-0.02871066704392433,0.10567969083786011,-0.5687155723571777
1782778860062209000,5.041208984375,0.045204028487205505,0.15332718193531036,-0.40072759985923767
1782778860072092000,5.051091796875,0.08246681094169617,0.11728613078594208,-0.21807889640331268
1782778860082196200,5.0611962890625,0.11789698898792267,0.05009094998240471,-0.0403171069920063
1782778860092185300,5.071185302734375,0.13011430203914642,-0.03237585723400116,0.12339477986097336
1782778860102210600,5.08121044921875,0.13255776464939117,-0.05925392732024193,0.23884831368923187
1782778860112174300,5.09117431640625,0.16371189057826996,-0.09651670604944229,0.24862214922904968
1782778860122265600,5.101265625,0.1869247704744339,-0.11667526513338089,0.19608774781227112
1782778860132272400,5.1112724609375,0.21807889640331268,-0.06536258012056351,0.08002334833145142
1782778860142198000,5.121197998046875,0.2773328125476837,-0.00427605677396059,-0.09224065393209457
1782778860152182800,5.131182861328125,0.36102136969566345,0.11301007121801376,-0.2590068578720093
1782778860162292500,5.14129248046875,0.4147774875164032,0.23945917189121246,-0.39706242084503174
1782778860172171800,5.151171875,0.4043927788734436,0.3579670190811157,-0.4502076804637909
1782778860182202000,5.1612021484375,0.32986724376678467,0.423329621553421,-0.40622538328170776
1782778860192160800,5.171160888671875,0.21380282938480377,0.38117989897727966,-0.34513887763023376
1782778860202191400,5.18119140625,0.08124507963657379,0.3878994286060333,-0.20036379992961884
1782778860212180500,5.191180419921875,-0.00733038317412138,0.3640756905078888,0.048258353024721146
1782778860222210600,5.20121044921875,0.048258353024721146,0.4404338300228119,0.48197266459465027
1782778860232169500,5.21116943359375,0.4489859640598297,0.7269296646118164,1.045190453529358
1782778860242199600,5.221199462890625,1.111163854598999,1.0977247953414917,1.4581353664398193
1782778860252189000,5.23118896484375,1.547932505607605,1.36955988407135,1.4147639274597168
1782778860262189000,5.24118896484375,1.4874569177627563,1.2412781715393066,0.7049384713172913
1782778860282208500,5.26120849609375,0.8717046976089478,0.797789990901947,-0.8155050873756409
1782778860292167000,5.2711669921875,0.7159340381622314,0.3066543638706207,-1.094059705734253
1782778860302197200,5.281197265625,0.5112941861152649,-0.3072652220726013,-1.0946705341339111
1782778860312186600,5.2911865234375,0.22663100063800812,-1.3072515726089478,-1.018923282623291
1782778860322186000,5.30118603515625,0.016493361443281174,-2.1697933673858643,-0.49846604466438293
1782778860332175600,5.311175537109375,0.048258353024721146,-1.9150625467300415,0.1258382350206375
1782778860342205700,5.321205810546875,0.1661553531885147,-1.3457361459732056,0.5815436840057373
1782778860352164900,5.331164794921875,0.2626720666885376,-0.6646214127540588,0.6420193910598755
1782778860362195000,5.34119482421875,0.22052235901355743,-0.18875735998153687,0.3732386529445648
1782778860372184000,5.35118408203125,0.042760565876960754,0.08368854224681854,0.08246681094169617
1782778860382184000,5.361183837890625,-0.17592918872833252,0.22540926933288574,-0.04948008432984352
1782778860392173000,5.371173095703125,-0.3689626157283783,0.14049901068210602,-0.02321287989616394
1782778860402203600,5.38120361328125,-0.484416127204895,-0.06780604273080826,0.07819075137376785
1782778860412162000,5.391162109375,-0.5161811113357544,-0.3274237811565399,0.17470745742321014
1782778860422192400,5.4011923828125,-0.5461135506629944,-0.6407976150512695,0.18631389737129211
1782778860432181800,5.411181640625,-0.5833762884140015,-0.8875871896743774,0.05497787147760391
1782778860442181600,5.421181640625,-0.5540547966957092,-0.9547823667526245,-0.09896016865968704
1782778860452170500,5.43117041015625,-0.4495968222618103,-0.8588765263557434,-0.192422553896904
1782778860462201900,5.441201904296875,-0.3585779070854187,-0.626747727394104,-0.2070833146572113
1782778860472190200,5.451190185546875,-0.2767219543457031,-0.1869247704744339,-0.07941248267889023
1782778860482190000,5.461190185546875,-0.17531833052635193,0.26572638750076294,0.16004669666290283
1782778860492179200,5.47117919921875,-0.19058994948863983,0.6139195561408997,0.403781920671463
1782778860502211600,5.481211669921875,-0.2938261926174164,0.8118399381637573,0.6285803318023682
1782778860512168200,5.491168212890625,-0.4239404797554016,0.7855727076530457,0.8429940342903137
1782778860522201300,5.501201416015625,-0.5534439086914062,0.5803219676017761,1.0207557678222656
1782778860532188000,5.51118798828125,-0.6261368989944458,0.3188716471195221,1.0800096988677979
1782778860542187500,5.5211875,-0.6346889734268188,0.15515977144241333,0.9957103729248047
1782778860552176600,5.5311767578125,-0.5925393104553223,0.152105450630188,0.8002334833145142
1782778860562207000,5.54120703125,-0.5919284224510193,0.24556782841682434,0.5265658497810364
1782778860572165600,5.55116552734375,-0.6041457056999207,0.35735616087913513,0.21441370248794556
1782778860582196200,5.5611962890625,-0.5852088928222656,0.44104471802711487,-0.09896016865968704
1782778860592185300,5.571185302734375,-0.5412266254425049,0.423329621553421,-0.37262779474258423
1782778860602187500,5.5811875,-0.5076290369033813,0.3274237811565399,-0.5674937963485718
1782778860612174300,5.59117431640625,-0.47769662737846375,0.22296582162380219,-0.6615670323371887
1782778860622204400,5.601204345703125,-0.43615779280662537,0.09224065393209457,-0.694553792476654
1782778860632163300,5.611163330078125,-0.3891211748123169,-0.06414084881544113,-0.7092145681381226
1782778860642195700,5.62119580078125,-0.313373863697052,-0.20525072515010834,-0.7043276429176331
1782778860652183000,5.63118310546875,-0.21013765037059784,-0.25595253705978394,-0.6609562039375305
1782778860662184700,5.641184814453125,-0.10201449692249298,-0.1771509200334549,-0.5736024379730225
1782778860672171800,5.651171875,-0.030543262138962746,-0.02382374368607998,-0.42210787534713745
1782778860682204400,5.661204345703125,0.012217304669320583,0.1514945775270462,-0.2724458873271942
1782778860692280000,5.671280029296875,0.0354301854968071,0.22479841113090515,-0.20830504596233368
1782778860702191000,5.681191162109375,0.03481931984424591,0.21441370248794556,-0.23029619455337524
1782778860712180500,5.691180419921875,0.03481931984424591,0.13744467496871948,-0.35124751925468445
1782778860721923300,5.70092333984375,0.021380282938480377,0.08307767659425735,-0.5259549617767334
1782778860732169500,5.71116943359375,0.022602014243602753,0.07269296050071716,-0.6841690540313721
1782778860742200300,5.721200439453125,0.036041051149368286,0.05742133408784866,-0.8906415104866028
1782778860752189000,5.73118896484375,0.009773843921720982,0.1062905490398407,-0.9492846131324768
1782778860762189800,5.74118994140625,-0.036651913076639175,0.3170390725135803,-0.8240572214126587
1782778860772178000,5.751177978515625,-0.08796459436416626,0.5687155723571777,-0.6291912198066711
1782778860782209300,5.761209228515625,-0.13255776464939117,0.5363397002220154,-0.5290092825889587
1782778860792167000,5.7711669921875,-0.1514945775270462,0.4489859640598297,-0.4001167416572571
1782778860802198500,5.781198486328125,-0.10873401165008545,0.4288274049758911,-0.12339477986097336
1782778860812186600,5.7911865234375,0.06536258012056351,0.5186246037483215,0.2871066629886627
1782778860822186800,5.801186767578125,0.3897320330142975,0.8381071090698242,0.6890559792518616
1782778860842206500,5.82120654296875,0.8118399381637573,1.451415777206421,0.4715879559516907
1782778860852164000,5.8311640625,0.7519751191139221,1.5693128108978271,0.009162978269159794
1782778860862195700,5.84119580078125,0.6640105247497559,1.4343116283416748,-0.2681698501110077
1782778860872183600,5.85118359375,0.6212499737739563,0.9297369122505188,-0.2125810980796814
1782778860882184400,5.861184326171875,0.6334672570228577,0.19975294172763824,0.12828169763088226
1782778860892172800,5.8711728515625,0.6261368989944458,-0.4453207552433014,0.5571091175079346
1782778860902204200,5.8812041015625,0.6633996367454529,-0.9737191796302795,0.9334021210670471
1782778860912161800,5.891161865234375,0.7611380815505981,-1.4123204946517944,1.1911872625350952
1782778860922192400,5.9011923828125,0.6249151229858398,-1.8771889209747314,1.147204875946045
1782778860932181800,5.911181640625,0.23457226157188416,-2.069000482559204,0.684779942035675
1782778860942181400,5.921181396484375,-0.16554448008537292,-1.568701982498169,0.0507018156349659
1782778860952170800,5.931170654296875,-0.45631635189056396,-0.6206390857696533,-0.39095374941825867
1782778860962202000,5.9412021484375,-0.5192354321479797,0.1771509200334549,-0.4905247986316681
1782778860972190000,5.95118994140625,-0.4489859640598297,0.5510004758834839,-0.3830125033855438
1782778860982191000,5.961191162109375,-0.2981022298336029,0.5760459303855896,-0.09773843735456467
1782778860992179200,5.97117919921875,-0.12950342893600464,0.41172316670417786,0.32131510972976685
1782778861002210600,5.98121044921875,-0.0959058403968811,0.17104226350784302,0.6963863968849182
1782778861012168200,5.991168212890625,-0.23457226157188416,-0.15454891324043274,0.9169087409973145
1782778861022198300,6.0011982421875,-0.4251621961593628,-0.5748242139816284,0.9089674949645996
1782778861032187600,6.011187744140625,-0.6053674817085266,-0.7764097452163696,0.6805039048194885
1782778861042187500,6.0211875,-0.7684684991836548,-0.5479460954666138,0.3781255781650543
1782778861052176600,6.0311767578125,-0.8717046976089478,-0.04153883829712868,0.15332718193531036
1782778861062208000,6.0412080078125,-0.8429940342903137,0.5167919993400574,0.015271631069481373
1782778861072166000,6.051165771484375,-0.7354817390441895,0.8191702961921692,-0.02015855349600315
1782778861082198300,6.0611982421875,-0.5265658497810364,0.8936958312988281,0.1466076523065567
1782778861092185300,6.071185302734375,-0.26450464129447937,0.8460483551025391,0.3878994286060333
1782778861102187300,6.081187255859375,-0.10262536257505417,0.9346238374710083,0.7000515460968018
1782778861112174300,6.09117431640625,-0.14049901068210602,0.8503243923187256,0.940732479095459
1782778861122204400,6.101204345703125,-0.27488934993743896,0.779464066028595,0.9804387092590332
1782778861132163600,6.11116357421875,-0.41233405470848083,0.7134906053543091,0.9370672702789307
1782778861142195000,6.12119482421875,-0.4893030524253845,0.6707300543785095,0.8643743395805359
1782778861152182800,6.131182861328125,-0.4764748811721802,0.6188064813613892,0.6108652353286743
1782778861162182700,6.1411826171875,-0.42699480056762695,0.6731734871864319,0.26572638750076294
1782778861172171800,6.151171875,-0.3689626157283783,0.6933320760726929,-0.001832595793530345
1782778861182204400,6.161204345703125,-0.31154128909111023,0.2583959996700287,-0.048258353024721146
1782778861192161000,6.1711611328125,-0.24373523890972137,-0.09834930300712585,-0.1368338167667389
1782778861202193400,6.181193359375,-0.19364428520202637,-0.423329621553421,-0.3225368559360504
1782778861212180500,6.191180419921875,-0.09712757170200348,-0.6383541822433472,-0.6017022728919983
1782778861222211800,6.2012119140625,-0.056810468435287476,-0.5467243790626526,-0.9279043078422546
1782778861232169500,6.21116943359375,-0.11728613078594208,-0.20402899384498596,-1.1459832191467285
1782778861242201000,6.221201171875,-0.20891591906547546,0.152105450630188,-1.0201449394226074
1782778861252189000,6.23118896484375,-0.2015855312347412,0.2021963894367218,-0.6023131608963013
1782778861262190800,6.24119091796875,-0.1160643994808197,0.09834930300712585,-0.14966198801994324
1782778861272178000,6.251177978515625,0.015271631069481373,-0.08735372871160507,0.1722639948129654
1782778861282210300,6.261210205078125,0.17043140530586243,-0.24373523890972137,0.32986724376678467
1782778861292167000,6.2711669921875,0.252287358045578,-0.34147366881370544,0.304210901260376
1782778861302198500,6.281198486328125,0.29016098380088806,-0.35735616087913513,0.12522737681865692
1782778861312186600,6.2911865234375,0.2565633952617645,-0.30543261766433716,-0.12767083942890167
1782778861322186200,6.301186279296875,0.17837265133857727,-0.19364428520202637,-0.36224308609962463
1782778861332175600,6.311175537109375,0.12522737681865692,-0.03848451003432274,-0.5369505286216736
1782778861342206000,6.3212060546875,0.12522737681865692,0.1508837193250656,-0.5815436840057373
1782778861352164600,6.33116455078125,0.10690141469240189,0.20097467303276062,-0.5442809462547302
1782778861362194700,6.341194580078125,0.10995574295520782,0.12034045159816742,-0.44654250144958496
1782778861372184000,6.35118408203125,0.16310101747512817,0.0006108652451075613,-0.3225368559360504
1782778861382183700,6.36118359375,0.17898350954055786,-0.1514945775270462,-0.23029619455337524
1782778861392173000,6.371173095703125,0.14538592100143433,-0.2590068578720093,-0.16371189057826996
1782778861402203400,6.381203369140625,0.039095375686883926,-0.23884831368923187,-0.07635815441608429
1782778861412162000,6.391162109375,-0.05742133408784866,-0.1918116807937622,-0.02871066704392433
1782778861422193700,6.401193603515625,-0.031154127791523933,-0.1160643994808197,0.08857546001672745
1782778861432181800,6.411181640625,0.09285151958465576,0.10567969083786011,0.3878994286060333
1782778861442182700,6.4211826171875,0.242513507604599,0.2840523421764374,0.808174729347229
1782778861452170500,6.43117041015625,0.3585779070854187,0.35063666105270386,1.1233811378479004
1782778861462201300,6.441201416015625,0.48685958981513977,0.21319197118282318,1.0488556623458862
1782778861472149500,6.4511494140625,0.5167919993400574,0.029932396486401558,0.6481280326843262
1782778861482281500,6.461281494140625,0.4056145250797272,-0.03420845419168472,0.3121521472930908
1782778861492179200,6.47117919921875,0.3188716471195221,-0.15271630883216858,0.08674286305904388
1782778861502178600,6.481178466796875,0.24129177629947662,-0.3543018400669098,-0.1014036312699318
1782778861512259800,6.491259765625,0.10506882518529892,-0.44837507605552673,-0.13072516024112701
1782778861522199600,6.501199462890625,0.021380282938480377,-0.6444628238677979,-0.06902777403593063
1782778861532187600,6.511187744140625,0.04948008432984352,-1.0971139669418335,-0.11789698898792267
1782778861542187500,6.5211875,0.12034045159816742,-1.3420709371566772,-0.3188716471195221
1782778861552177000,6.531177001953125,0.05925392732024193,-1.281595230102539,-0.6243042945861816
1782778861562207000,6.54120703125,-0.054367005825042725,-0.9291260242462158,-0.8839219808578491
1782778861572165600,6.55116552734375,-0.06169738993048668,-0.31459560990333557,-0.9535606503486633
1782778861582197200,6.561197265625,-0.01038470957428217,0.3066543638706207,-0.6670648455619812
1782778861592185300,6.571185302734375,-0.06291911751031876,0.07024950534105301,0.11667526513338089
1782778861602185700,6.581185791015625,-0.19608774781227112,-0.17592918872833252,0.4337143301963806
1782778861612174300,6.59117431640625,-0.3903428912162781,-0.37568211555480957,0.5998696684837341
1782778861622205400,6.601205322265625,-0.5393940210342407,-0.6316346526145935,0.5925393104553223
1782778861632163300,6.611163330078125,-0.5607742667198181,-1.1081095933914185,0.2076941877603531
1782778861642194700,6.621194580078125,-0.5057964324951172,-1.2223412990570068,-0.40683624148368835
1782778861652182800,6.631182861328125,-0.47830748558044434,-0.6475171446800232,-0.8246681094169617
1782778861662183400,6.641183349609375,-0.44104471802711487,-0.4153883755207062,-1.1331549882888794
1782778861672171800,6.651171875,-0.4043927788734436,-0.6304129362106323,-1.5424346923828125
1782778861682203400,6.661203369140625,-0.43615779280662537,-0.9297369122505188,-2.010357618331909
1782778861692160800,6.671160888671875,-0.384845107793808,-0.837496280670166,-2.20583438873291
1782778861702192400,6.6811923828125,-0.31031954288482666,-0.22540926933288574,-1.9016234874725342
1782778861712180500,6.691180419921875,-0.21930062770843506,0.46853363513946533,-1.053742527961731
1782778861722180000,6.70118017578125,-0.10934487730264664,0.9706648588180542,0.08979719132184982
1782778861732261000,6.71126123046875,0.001832595793530345,1.2327260971069336,1.014647126197815
1782778861742199800,6.72119970703125,0.09224065393209457,1.2082914113998413,1.5546520948410034
1782778861752189000,6.73118896484375,0.14049901068210602,1.076344609260559,1.816102385520935
1782778861762158000,6.741157958984375,0.08185594528913498,0.8558222055435181,1.833817481994629
1782778861772238800,6.75123876953125,-0.06291911751031876,0.5821545720100403,1.6303993463516235
1782778861782208800,6.761208740234375,-0.1820378452539444,0.36102136969566345,1.2418889999389648
1782778861792126200,6.771126220703125,-0.20341812074184418,0.26022860407829285,0.7354817390441895
1782778861802259200,6.78125927734375,-0.1667662113904953,0.2791654169559479,0.28649580478668213
1782778861812186600,6.7911865234375,-0.18936823308467865,0.26633724570274353,0.0024434609804302454
1782778861822094600,6.801094482421875,-0.22296582162380219,0.2974913716316223,-0.13561208546161652
1782778861832266500,6.8112666015625,-0.23151792585849762,0.252287358045578,-0.20341812074184418
1782778861842205400,6.821205322265625,-0.21441370248794556,0.16798794269561768,-0.2174680233001709
1782778861852164000,6.8311640625,-0.19853121042251587,0.06108652427792549,-0.16920967400074005
1782778861862196500,6.841196533203125,-0.1966986060142517,-0.04581489413976669,-0.10995574295520782
1782778861872047600,6.851047607421875,-0.19364428520202637,-0.15271630883216858,-0.09529497474431992
1782778861882186200,6.861186279296875,-0.14782938361167908,-0.14905111491680145,-0.11911872029304504
1782778861892132400,6.87113232421875,-0.13377949595451355,-0.1014036312699318,-0.12767083942890167
1782778861902645800,6.881645751953125,-0.15332718193531036,-0.03787364438176155,-0.0708603709936142
1782778861912192300,6.891192138671875,-0.17104226350784302,0.024434609338641167,0.05925392732024193
1782778861922161700,6.90116162109375,-0.1472185254096985,0.16310101747512817,0.18325957655906677
1782778861932242700,6.91124267578125,-0.08246681094169617,0.30482175946235657,0.24923302233219147
1782778861942181000,6.92118115234375,-0.03787364438176155,0.4740314185619354,0.34208452701568604
1782778861952170800,6.931170654296875,-0.08307767659425735,0.5002986192703247,0.4129449129104614
1782778861962202400,6.941202392578125,-0.1368338167667389,0.4893030524253845,0.4709770977497101
1782778861972190200,6.951190185546875,-0.14782938361167908,0.44776421785354614,0.5088507533073425
1782778861982191000,6.961191162109375,-0.11301007121801376,0.3927863538265228,0.4911356568336487
1782778861992179200,6.97117919921875,-0.08857546001672745,0.35124751925468445,0.46547931432724
1782778862002210600,6.98121044921875,-0.05803219974040985,0.45204028487205505,0.4086688458919525
1782778862012168200,6.991168212890625,-0.11423180252313614,0.6902777552604675,0.3543018400669098
1782778862022199800,7.00119970703125,-0.10323622822761536,0.7770205736160278,0.5015203952789307
1782778862032188000,7.01118798828125,0.00855211354792118,0.7348709106445312,0.7220427393913269
1782778862042188300,7.021188232421875,0.21380282938480377,0.5277875661849976,0.8527678847312927
1782778862052176600,7.0311767578125,0.37751471996307373,0.2565633952617645,0.8222246170043945
1782778862062207500,7.04120751953125,0.4337143301963806,0.04214970022439957,0.6505714654922485
1782778862072165600,7.05116552734375,0.42088615894317627,-0.04642575979232788,0.4056145250797272
1782778862082196700,7.06119677734375,0.41172316670417786,0.0006108652451075613,0.192422553896904
1782778862092185300,7.071185302734375,0.4001167416572571,0.12461651116609573,0.10384709388017654
1782778862102218000,7.081218017578125,0.42699480056762695,0.07147123664617538,0.13377949595451355
1782778862112174300,7.09117431640625,0.42638394236564636,-0.06291911751031876,0.14416420459747314
1782778862122205400,7.101205322265625,0.25045475363731384,-0.44226643443107605,-0.04642575979232788
1782778862132163300,7.111163330078125,0.07880161702632904,-0.8649851679801941,-0.32620203495025635
1782778862142163000,7.121162841796875,0.11972958594560623,-1.0238101482391357,-0.5742133259773254
1782778862152244000,7.131243896484375,0.1765400618314743,-0.8967501521110535,-0.8576548099517822
1782778862162182700,7.1411826171875,0.10934487730264664,-0.23335053026676178,-0.9486737251281738
1782778862172171800,7.151171875,0.010995574295520782,0.5736024379730225,-0.8124507665634155
1782778862182202600,7.16120263671875,-0.03787364438176155,1.2095131874084473,-0.5253441333770752
1782778862192161000,7.1711611328125,-0.1661553531885147,1.2602150440216064,-0.00733038317412138
1782778862202192000,7.18119189453125,-0.34086281061172485,0.12034045159816742,0.09834930300712585
1782778862212180500,7.191180419921875,-0.20891591906547546,-0.7556403279304504,0.30054569244384766
1782778862222211300,7.20121142578125,0.05253441259264946,-1.1068878173828125,0.6395758986473083
1782778862232169500,7.21116943359375,0.10690141469240189,-1.1166616678237915,0.8747590184211731
1782778862242200600,7.22120068359375,-0.02687807008624077,-0.9132435321807861,0.7525860071182251
1782778862252189000,7.23118896484375,-0.18997909128665924,-0.7141014933586121,0.5479460954666138
1782778862262188800,7.241188720703125,-0.1258382350206375,-0.40133845806121826,0.3378084897994995
