time,seconds_elapsed,z,y,x
1782778901025498400,0.232498291015625,-2.447484016418457,-2.153280258178711,5.40472412109375
1782778901035508200,0.24250830078125,-3.405191421508789,-2.4376108646392822,6.250003814697266
1782778901045518000,0.25251806640625,-3.5688135623931885,-2.828216791152954,7.076207160949707
1782778901055497200,0.262497314453125,-2.9797306060791016,-3.20048451423645,7.624749183654785
1782778901065341400,0.272341552734375,-2.577037811279297,-3.5926380157470703,7.858638286590576
1782778901075486200,0.282486328125,-0.9288748502731323,-3.239860773086548,8.498443603515625
1782778901085496000,0.29249609375,0.6440712213516235,-3.4735214710235596,9.002363204956055
1782778901095505700,0.302505615234375,2.381467342376709,-3.6615962982177734,9.37844181060791
1782778901105515500,0.312515625,3.984431028366089,-3.790529489517212,9.328442573547363
1782778901115494700,0.32249462890625,4.242439270019531,-3.97243070602417,9.101238250732422
1782778901125504500,0.33250439453125,3.3683419227600098,-4.026360034942627,9.0279541015625
1782778901135514400,0.342514404296875,2.108552932739258,-3.8236100673675537,9.428380966186523
1782778901145493500,0.352493408203125,1.0021464824676514,-3.7193214893341064,9.911977767944336
1782778901155503400,0.36250341796875,0.07702529430389404,-3.6985738277435303,10.197301864624023
1782778901165513200,0.37251318359375,-0.26749300956726074,-3.61094069480896,10.359850883483887
1782778901175492400,0.382492431640625,-0.7413824796676636,-3.7863147258758545,11.539249420166016
1782778901185502200,0.392502197265625,-8.46434211730957,2.0775699615478516,-0.8494565486907959
1782778901195511800,0.40251171875,-8.183673858642578,2.4836924076080322,-2.5518429279327393
1782778901205491000,0.412490966796875,-7.480685710906982,2.1734113693237305,-2.7117726802825928
1782778901215500800,0.422500732421875,-6.954384803771973,1.8558934926986694,-2.0735068321228027
1782778901225510700,0.4325107421875,-6.48036003112793,1.8040980100631714,-1.9349836111068726
1782778901235489800,0.44248974609375,-5.625171661376953,1.8627140522003174,-1.8904649019241333
1782778901245499600,0.452499755859375,-5.069313049316406,1.646055817604065,-1.5789612531661987
1782778901255509500,0.462509521484375,-4.9437174797058105,0.9051473140716553,-1.6343053579330444
1782778901265488600,0.472488525390625,-5.4577202796936035,1.401755452156067,-2.6006014347076416
1782778901275498500,0.48249853515625,-6.49515962600708,1.6366775035858154,-2.889533519744873
1782778901285508000,0.492508056640625,-7.105778217315674,1.038391351699829,-2.3714656829833984
1782778901295518000,0.50251806640625,-7.31264591217041,0.3898637294769287,-2.1052327156066895
1782778901305497000,0.5124970703125,-7.608148097991943,-1.0585945844650269,-2.6727709770202637
1782778901315507000,0.5225068359375,-5.119096279144287,-3.3806891441345215,-6.4522705078125
1782778901325516800,0.532516845703125,-2.9984636306762695,-4.564176559448242,-4.366835117340088
1782778901335496000,0.542495849609375,1.282022476196289,-3.836585521697998,-0.7337086200714111
1782778901345505800,0.552505859375,6.424904823303223,-1.5504738092422485,1.3221240043640137
1782778901355515600,0.562515625,10.512754440307617,1.0755398273468018,0.8727831840515137
1782778901365494800,0.572494873046875,12.436732292175293,3.7766823768615723,-1.8553917407989502
1782778901375463700,0.582463623046875,9.766290664672852,5.283151626586914,-3.501417636871338
1782778901385473500,0.5924736328125,7.348034858703613,6.96553897857666,-4.666356563568115
1782778901395452700,0.60245263671875,7.2975664138793945,8.47060775756836,-2.2020480632781982
1782778901405462500,0.612462646484375,9.573823928833008,9.727864265441895,0.880915641784668
1782778901415472400,0.622472412109375,14.138660430908203,11.909302711486816,1.1199290752410889
1782778901425451500,0.632451416015625,17.751216888427734,13.337732315063477,3.1517231464385986
1782778901435461400,0.64246142578125,19.915069580078125,14.110822677612305,5.083209991455078
1782778901445471000,0.652470947265625,20.07520294189453,13.673026084899902,5.5714921951293945
1782778901455450000,0.6624501953125,18.515438079833984,12.262255668640137,3.7384660243988037
1782778901465460000,0.6724599609375,16.042892456054688,11.226714134216309,3.5687732696533203
1782778901475469800,0.6824697265625,15.093822479248047,11.058603286743164,6.279160976409912
1782778901485449000,0.692448974609375,16.62526512145996,10.551177978515625,8.520488739013672
1782778901495458800,0.702458740234375,18.659744262695312,9.530372619628906,8.406940460205078
1782778901505468700,0.71246875,17.303449630737305,7.987924098968506,5.827642440795898
1782778901515447800,0.72244775390625,12.539822578430176,6.460552215576172,2.9600605964660645
1782778901525457700,0.732457763671875,5.626418113708496,5.577124118804932,1.7986338138580322
1782778901535467300,0.74246728515625,0.36237621307373047,5.386216163635254,2.6520206928253174
1782778901545477000,0.75247705078125,-3.843629837036133,5.390798091888428,3.4430315494537354
1782778901555456300,0.762456298828125,-6.945155620574951,4.788979530334473,4.693140506744385
1782778901565466000,0.772466064453125,-7.9245219230651855,3.500504493713379,4.343695640563965
1782778901575476000,0.78247607421875,-7.036581993103027,1.9024308919906616,1.8796510696411133
1782778901585455000,0.792455078125,-4.6805806159973145,0.635218620300293,-0.9501862525939941
1782778901595465000,0.80246484375,-1.924354076385498,0.705132007598877,-1.9640908241271973
1782778901605474800,0.812474853515625,1.3663158416748047,1.7147897481918335,-1.7340984344482422
1782778901615454000,0.822453857421875,4.348269462585449,3.371760368347168,-0.6114661693572998
1782778901625463800,0.8324638671875,6.141889572143555,4.665004730224609,0.13799738883972168
1782778901635473400,0.842473388671875,5.693149566650391,4.8622846603393555,-1.357346773147583
1782778901645452500,0.85245263671875,1.6770124435424805,4.444660663604736,-3.525893449783325
1782778901655462400,0.86246240234375,-3.8167595863342285,4.131868839263916,-5.80448055267334
1782778901665472300,0.87247216796875,-8.446221351623535,4.508048057556152,-8.895325660705566
1782778901675451400,0.882451416015625,-14.312318801879883,2.3017807006835938,-7.32814884185791
1782778901685461200,0.892461181640625,-18.32189178466797,2.6673929691314697,-8.36259937286377
1782778901695471000,0.90247119140625,-18.896018981933594,2.9221432209014893,-7.0561113357543945
1782778901705450200,0.9124501953125,-16.96548843383789,2.972566604614258,-5.289304256439209
1782778901715460000,0.922460205078125,-12.909088134765625,3.1322805881500244,-4.467057704925537
1782778901725469700,0.9324697265625,-8.408108711242676,2.6564104557037354,-4.424734592437744
1782778901735449000,0.942448974609375,-4.7567243576049805,1.9588967561721802,-5.296929836273193
1782778901745458700,0.952458740234375,-2.7130346298217773,1.43943190574646,-6.29689884185791
1782778901755468500,0.962468505859375,-1.757646083831787,1.2371478080749512,-6.715660095214844
1782778901765447700,0.97244775390625,-1.6920146942138672,1.2443993091583252,-6.708446502685547
1782778901775457500,0.98245751953125,-1.8020439147949219,1.5115306377410889,-6.385715007781982
1782778901785467400,0.99246728515625,-2.4191665649414062,2.1166927814483643,-5.132955551147461
1782778901795477200,1.002477294921875,-3.708024024963379,2.6677141189575195,-3.9478917121887207
1782778901805456400,1.012456298828125,-5.274991989135742,3.125751256942749,-3.187445640563965
1782778901815466200,1.02246630859375,-6.354571342468262,3.3768198490142822,-2.907972812652588
1782778901825476000,1.03247607421875,-7.017067909240723,3.5292398929595947,-2.1983840465545654
1782778901835455200,1.042455322265625,-6.978803634643555,3.9963598251342773,-1.1717989444732666
1782778901845464800,1.05246484375,-6.480952262878418,4.350419521331787,-0.9135632514953613
1782778901855474700,1.062474609375,-6.674799919128418,4.2127885818481445,-0.7723402976989746
1782778901865453800,1.072453857421875,-7.247217655181885,3.831460475921631,-1.6412034034729004
1782778901875463700,1.082463623046875,-6.501418113708496,3.5449166297912598,-2.311392068862915
1782778901885473500,1.0924736328125,-5.22909688949585,3.615670680999756,-2.2005817890167236
1782778901895452700,1.10245263671875,-5.438512802124023,3.503110408782959,-2.495283842086792
1782778901905462500,1.112462646484375,-5.613508224487305,3.000659465789795,-2.4215080738067627
1782778901915472400,1.122472412109375,-5.303047180175781,2.8175926208496094,-2.55454421043396
1782778901925451500,1.132451416015625,-3.9274258613586426,3.225031614303589,-2.0244481563568115
1782778901935461400,1.14246142578125,-1.7157015800476074,3.723391532897949,-0.22138524055480957
1782778901945471000,1.152470947265625,1.0133304595947266,3.1250922679901123,1.0182762145996094
1782778901955450000,1.1624501953125,4.365816116333008,2.044299364089966,-0.6030645370483398
1782778901965460000,1.1724599609375,8.247227668762207,1.0572983026504517,-2.2242279052734375
1782778901975469800,1.1824697265625,11.205449104309082,0.8655129671096802,-3.224315643310547
1782778901985449000,1.192448974609375,12.419609069824219,0.8022853136062622,-1.4172794818878174
1782778901995458800,1.202458740234375,12.960084915161133,2.3156023025512695,1.0632667541503906
1782778902005468700,1.21246875,13.554603576660156,2.906280040740967,0.39169979095458984
1782778902015447800,1.22244775390625,13.657170295715332,4.097553253173828,0.8292694091796875
1782778902025457700,1.232457763671875,11.78728199005127,6.254057884216309,2.610424280166626
1782778902035467300,1.24246728515625,9.411293029785156,7.915467739105225,3.4249088764190674
1782778902045477000,1.25247705078125,8.593770980834961,9.08545207977295,3.4348645210266113
1782778902055456300,1.262456298828125,9.610058784484863,10.34066104888916,3.120305061340332
1782778902065466000,1.272466064453125,12.305658340454102,11.034531593322754,2.4311742782592773
1782778902075476000,1.28247607421875,14.931136131286621,10.846922874450684,1.93927800655365
1782778902085455000,1.292455078125,16.229576110839844,10.154960632324219,2.5441102981567383
1782778902095465000,1.30246484375,15.98010540008545,9.656054496765137,4.470311641693115
1782778902105474800,1.312474853515625,15.79599380493164,9.214583396911621,6.277612686157227
1782778902115454000,1.322453857421875,17.08411407470703,7.8780059814453125,5.933135986328125
1782778902125463800,1.3324638671875,18.581186294555664,5.918569564819336,3.1731419563293457
1782778902135473400,1.342473388671875,17.320533752441406,4.443204879760742,0.7493069171905518
1782778902145452500,1.35245263671875,12.91016960144043,3.8713483810424805,-0.6260251998901367
1782778902155462400,1.36246240234375,5.89268684387207,2.9206504821777344,-1.6783642768859863
1782778902165472300,1.37247216796875,-0.6880569458007812,2.7354888916015625,-1.0399541854858398
1782778902175451400,1.382451416015625,-6.042881011962891,2.41328763961792,-0.17750287055969238
1782778902185461200,1.392461181640625,-8.733247756958008,1.6551927328109741,0.011445283889770508
1782778902195471000,1.40247119140625,-7.958389759063721,0.8462750911712646,-1.4954566955566406
1782778902205450200,1.4124501953125,-6.054187297821045,-0.8052123785018921,-1.3008744716644287
1782778902215460000,1.422460205078125,-4.1636834144592285,-1.3112579584121704,-3.7807092666625977
1782778902225469700,1.4324697265625,-2.4591660499572754,-1.3489974737167358,-4.3945088386535645
1782778902235449000,1.442448974609375,-0.8338103294372559,-1.1089195013046265,-5.38008975982666
1782778902245459000,1.452458984375,0.34270763397216797,-0.6007729768753052,-6.213315010070801
1782778902255468500,1.462468505859375,0.3475055694580078,0.05419576168060303,-6.738092422485352
1782778902265447700,1.47244775390625,-0.8172130584716797,0.8456805348396301,-7.198709964752197
1782778902275457500,1.48245751953125,-2.943779468536377,1.5271151065826416,-7.13490104675293
1782778902285467400,1.49246728515625,-5.555638313293457,1.905834436416626,-7.0894317626953125
1782778902295477200,1.502477294921875,-7.799089431762695,2.9726059436798096,-7.0733442306518555
1782778902305456400,1.512456298828125,-9.552027702331543,2.815195083618164,-4.459566116333008
1782778902315466200,1.52246630859375,-12.761394500732422,3.1031882762908936,-4.572612285614014
1782778902325476000,1.53247607421875,-12.55183219909668,3.3099093437194824,-5.00977087020874
1782778902335455200,1.542455322265625,-11.08218765258789,2.872687339782715,-4.860710620880127
1782778902345464800,1.55246484375,-9.158259391784668,2.5383453369140625,-5.495997428894043
1782778902355474700,1.562474609375,-7.987142086029053,2.257993221282959,-5.764503002166748
1782778902365667600,1.57266748046875,-7.126839637756348,2.273961067199707,-5.618646144866943
1782778902375463700,1.582463623046875,-5.897308349609375,2.379084587097168,-4.739925861358643
1782778902385473500,1.5924736328125,-4.6642231941223145,2.380631923675537,-4.262136459350586
1782778902395452700,1.60245263671875,-3.580674171447754,2.199218988418579,-4.508030414581299
1782778902405462500,1.612462646484375,-2.6548609733581543,1.869563341140747,-5.020244598388672
1782778902415472400,1.622472412109375,-2.4581503868103027,1.7192858457565308,-5.14590311050415
1782778902425451500,1.632451416015625,-2.7207469940185547,1.8577568531036377,-4.75045919418335
1782778902435461400,1.64246142578125,-3.163844585418701,2.0577638149261475,-4.316211223602295
1782778902445471000,1.652470947265625,-3.715700626373291,2.1382524967193604,-3.93620228767395
1782778902455450000,1.6624501953125,-4.282742023468018,2.308459997177124,-3.478001594543457
1782778902465460000,1.6724599609375,-5.1945929527282715,2.438711643218994,-2.8645520210266113
1782778902475469800,1.6824697265625,-6.162074565887451,2.428150177001953,-2.5118401050567627
1782778902485449000,1.692448974609375,-6.574615478515625,2.3924405574798584,-2.3528237342834473
1782778902495458800,1.702458740234375,-7.297400951385498,2.3875391483306885,-2.123586654663086
1782778902505468700,1.71246875,-8.125794410705566,2.396540641784668,-2.0263755321502686
1782778902515567000,1.722567138671875,-8.506701469421387,2.247959852218628,-1.8985495567321777
1782778902525457700,1.732457763671875,-8.787337303161621,1.8922396898269653,-2.00187611579895
1782778902535467300,1.74246728515625,-9.02575969696045,1.5865583419799805,-2.313232421875
1782778902545477000,1.75247705078125,-9.208809852600098,1.6586953401565552,-2.0471715927124023
1782778902555168800,1.762168701171875,-9.062475204467773,1.7662315368652344,-1.5898540019989014
1782778902565466000,1.772466064453125,-8.32472038269043,2.1221797466278076,-1.4537914991378784
1782778902575476000,1.78247607421875,-6.9885735511779785,2.0964367389678955,-1.7093602418899536
1782778902585455000,1.792455078125,-4.622634410858154,2.086440086364746,-2.165302276611328
1782778902595465000,1.80246484375,-0.6288633346557617,2.421135902404785,-2.3949379920959473
1782778902605474800,1.812474853515625,4.085365295410156,2.530048370361328,-2.52300763130188
1782778902615454000,1.822453857421875,9.926607131958008,2.6320064067840576,-3.218881368637085
1782778902625463800,1.8324638671875,13.999762535095215,3.1681952476501465,-3.9122586250305176
1782778902635473400,1.842473388671875,16.338001251220703,4.275001525878906,-4.00594425201416
1782778902645452500,1.85245263671875,15.860997200012207,4.649123191833496,-2.4318017959594727
1782778902655462400,1.86246240234375,13.957863807678223,5.270756721496582,-2.1008408069610596
1782778902675451400,1.882451416015625,12.54387378692627,5.028884410858154,-3.0687689781188965
1782778902685461200,1.892461181640625,14.911447525024414,5.559988975524902,-3.6776695251464844
1782778902695471000,1.90247119140625,16.87332534790039,6.306300640106201,-3.747577667236328
1782778902705450200,1.9124501953125,19.48301887512207,7.149876594543457,-2.7971725463867188
1782778902715460000,1.922460205078125,22.044963836669922,7.270610332489014,-1.9969130754470825
1782778902725469700,1.9324697265625,22.09209442138672,7.418394088745117,-0.41450273990631104
1782778902735449000,1.942448974609375,20.091251373291016,8.08790397644043,1.620035171508789
1782778902745459000,1.952458984375,17.562419891357422,8.363884925842285,3.442936897277832
1782778902755468500,1.962468505859375,16.630313873291016,8.049161911010742,4.551733493804932
1782778902765447700,1.97244775390625,16.439044952392578,7.447913646697998,4.744828224182129
1782778902775457500,1.98245751953125,14.117874145507812,6.788484573364258,4.046545028686523
1782778902785467400,1.99246728515625,9.33246898651123,6.3244147300720215,2.8460254669189453
1782778902795477200,2.002477294921875,3.0694875717163086,5.6600799560546875,1.7671948671340942
1782778902805456400,2.012456298828125,-1.508011817932129,4.784627914428711,1.1105899810791016
1782778902815466200,2.02246630859375,-4.433943271636963,3.77693510055542,0.4473128318786621
1782778902825476000,2.03247607421875,-6.413079738616943,2.792473077774048,0.1378626823425293
1782778902835455200,2.042455322265625,-6.916561603546143,1.938485026359558,-0.23160839080810547
1782778902845464800,2.05246484375,-6.00128173828125,1.0067353248596191,-1.3479760885238647
1782778902855474700,2.062474609375,-4.7146220207214355,-0.12603378295898438,-2.9476187229156494
1782778902865453800,2.072453857421875,-3.1662678718566895,-0.471333384513855,-4.360695838928223
1782778902875463700,2.082463623046875,-1.3086318969726562,-0.291678786277771,-5.144665718078613
1782778902885473500,2.0924736328125,0.6777830123901367,0.6399242877960205,-5.7349748611450195
1782778902895452700,2.10245263671875,1.7457389831542969,2.1098105907440186,-5.70762825012207
1782778902905462500,2.112462646484375,0.6809358596801758,3.104285955429077,-4.747627258300781
1782778902915472400,2.122472412109375,-1.6138954162597656,3.635894775390625,-4.219677448272705
1782778902925451500,2.132451416015625,-5.710606575012207,3.627687454223633,-3.8618359565734863
1782778902935461400,2.14246142578125,-9.9600191116333,3.398541212081909,-4.029987812042236
1782778902945471000,2.152470947265625,-12.854757308959961,2.926502227783203,-4.72383975982666
1782778902955450000,2.1624501953125,-14.253927230834961,2.522110939025879,-5.190585136413574
1782778902965460000,2.1724599609375,-14.319721221923828,2.5028910636901855,-4.725835800170898
1782778902975469800,2.1824697265625,-13.045897483825684,2.714038133621216,-4.107629299163818
1782778902985449000,2.192448974609375,-11.44780158996582,2.7454614639282227,-3.6871159076690674
1782778902995458800,2.202458740234375,-9.998064994812012,2.4689207077026367,-3.767118453979492
1782778903005468700,2.21246875,-8.802740097045898,1.9200937747955322,-4.47871208190918
1782778903015556900,2.222556884765625,-7.818691730499268,1.4770127534866333,-5.2789411544799805
1782778903025457700,2.232457763671875,-6.740131378173828,1.038301944732666,-5.902431964874268
1782778903035467300,2.24246728515625,-5.712514877319336,0.8037906289100647,-6.214199066162109
1782778903045477000,2.25247705078125,-4.472739219665527,0.6057603359222412,-6.2256879806518555
1782778903055456300,2.262456298828125,-4.151168346405029,0.6724921464920044,-5.716557502746582
1782778903065466000,2.272466064453125,-3.7906742095947266,0.8038188815116882,-5.671857833862305
1782778903075476000,2.28247607421875,-4.3542256355285645,0.6901695728302002,-5.299339294433594
1782778903085455000,2.292455078125,-4.498416423797607,1.2430329322814941,-2.9655120372772217
1782778903095465000,2.30246484375,-3.2783150672912598,2.78839373588562,-3.2800686359405518
1782778903105474800,2.312474853515625,-2.7769908905029297,2.807713031768799,-0.6968412399291992
1782778903115454000,2.322453857421875,-2.0125532150268555,2.028404712677002,-1.7644739151000977
1782778903125463800,2.3324638671875,-3.267091751098633,0.9371680021286011,-5.095529556274414
1782778903135473400,2.342473388671875,-3.8132686614990234,0.6215242743492126,-7.322927951812744
1782778903145452500,2.35245263671875,-5.124320983886719,1.2105679512023926,-5.816347122192383
1782778903155462400,2.36246240234375,-5.988204002380371,1.9337365627288818,-3.2996585369110107
1782778903165472300,2.37247216796875,-6.189062595367432,2.9955570697784424,-1.827655553817749
1782778903175451400,2.382451416015625,-5.8863325119018555,3.372842788696289,-0.5185647010803223
1782778903185461200,2.392461181640625,-5.244586944580078,3.440300941467285,0.42972707748413086
1782778903195471000,2.40247119140625,-4.543334484100342,2.929616928100586,-0.42758727073669434
1782778903205450200,2.4124501953125,-3.346006393432617,2.145653247833252,-2.2987844944000244
1782778903215460000,2.422460205078125,-1.632331371307373,1.6420321464538574,-3.1682074069976807
1782778903225469700,2.4324697265625,-0.4853944778442383,1.806587815284729,-3.306706428527832
1782778903235449000,2.442448974609375,0.6793651580810547,3.2359695434570312,-3.3656082153320312
1782778903245459000,2.452458984375,4.203789710998535,3.993319272994995,-1.243067979812622
1782778903255468500,2.462468505859375,7.760800361633301,5.339056491851807,0.45690298080444336
1782778903265447700,2.47244775390625,8.603960990905762,6.318363666534424,1.7402980327606201
1782778903275457500,2.48245751953125,6.676822662353516,6.9210968017578125,2.8784408569335938
1782778903285467400,2.49246728515625,5.6386919021606445,7.266276836395264,0.9855992794036865
1782778903295477200,2.502477294921875,8.599824905395508,6.591543197631836,-3.029393196105957
1782778903305456400,2.512456298828125,12.28452205657959,5.666183948516846,-5.295114994049072
1782778903315466200,2.52246630859375,14.862329483032227,6.608718395233154,-5.5161895751953125
1782778903325476000,2.53247607421875,15.772300720214844,8.6343994140625,-4.0107645988464355
1782778903335455200,2.542455322265625,14.994336128234863,10.484297752380371,-1.9849119186401367
1782778903345464800,2.55246484375,12.272879600524902,10.962828636169434,-0.8736351728439331
1782778903355474700,2.562474609375,9.580939292907715,10.487992286682129,-0.2730224132537842
1782778903365453800,2.572453857421875,8.984858512878418,10.587841033935547,2.708122730255127
1782778903375463700,2.582463623046875,10.468879699707031,10.800582885742188,5.823731422424316
1782778903385473500,2.5924736328125,12.463574409484863,9.533561706542969,5.5939788818359375
1782778903395452700,2.60245263671875,13.216841697692871,7.008004188537598,2.216097831726074
1782778903405462500,2.612462646484375,12.744922637939453,4.878365993499756,-0.8462616205215454
1782778903415472400,2.622472412109375,10.141810417175293,3.7845571041107178,-2.3531618118286133
1782778903425451500,2.632451416015625,5.908286094665527,3.4234695434570312,-2.3961997032165527
1782778903435461400,2.64246142578125,2.5888853073120117,3.7857165336608887,-2.9677987098693848
1782778903445471000,2.652470947265625,-2.1571011543273926,3.0329790115356445,0.6168605089187622
1782778903455450000,2.6624501953125,-4.563204765319824,2.9626927375793457,2.7483174800872803
1782778903465460000,2.6724599609375,-5.8050642013549805,3.07318115234375,2.829707384109497
1782778903475469800,2.6824697265625,-6.029574394226074,2.5440688133239746,2.339737892150879
1782778903485449000,2.692448974609375,-5.122902870178223,2.052849531173706,1.3026244640350342
1782778903495458800,2.702458740234375,-3.164273738861084,1.802938461303711,-0.4390830993652344
1782778903505468700,2.71246875,-0.28404712677001953,1.6244345903396606,-3.1301095485687256
1782778903515447800,2.72244775390625,2.670599937438965,1.231081247329712,-5.602202892303467
1782778903525457700,2.732457763671875,4.49207878112793,1.179399847984314,-7.196817398071289
1782778903535467300,2.74246728515625,4.652405738830566,2.045408248901367,-7.255458831787109
1782778903545417500,2.75241748046875,3.11331844329834,3.0553510189056396,-6.402874946594238
1782778903555488300,2.76248828125,0.7586584091186523,4.382688522338867,-6.272161483764648
1782778903565527000,2.772527099609375,-2.833395004272461,5.1693525314331055,-5.1643829345703125
1782778903575476000,2.78247607421875,-5.826498031616211,5.348947048187256,-2.816977024078369
1782778903585455000,2.792455078125,-7.334071159362793,5.311654090881348,-0.1236274242401123
1782778903595405300,2.8024052734375,-9.114432334899902,4.972691059112549,1.8927428722381592
1782778903605535700,2.81253564453125,-10.665343284606934,4.6579790115356445,2.699528694152832
1782778903615454000,2.822453857421875,-11.557733535766602,4.382782459259033,2.166574716567993
1782778903625463800,2.8324638671875,-11.45646858215332,4.072054862976074,0.5907535552978516
1782778903635473400,2.842473388671875,-11.344155311584473,3.3461759090423584,-1.3182188272476196
1782778903645452500,2.85245263671875,-11.143120765686035,2.763526201248169,-2.9983577728271484
1782778903655402800,2.86240283203125,-10.728594779968262,2.3425865173339844,-4.532948017120361
1782778903665533200,2.872533203125,-10.114269256591797,1.952394723892212,-5.4131927490234375
1782778903675451400,2.882451416015625,-9.283051490783691,1.5808008909225464,-5.87321138381958
1782778903685461200,2.892461181640625,-8.350561141967773,1.5236313343048096,-6.181105136871338
1782778903695471000,2.90247119140625,-7.546031475067139,1.5686466693878174,-5.838421821594238
1782778903705450200,2.9124501953125,-7.224199295043945,1.3304680585861206,-5.198750019073486
1782778903715460000,2.922460205078125,-6.505222797393799,1.3071154356002808,-5.001457214355469
1782778903725469700,2.9324697265625,-5.944495677947998,1.6400198936462402,-4.696396350860596
1782778903736551200,2.94355126953125,-4.096567153930664,2.171229600906372,-4.134556770324707
1782778903755409000,2.962408935546875,-2.9869256019592285,2.1256251335144043,-3.3655805587768555
1782778903765539300,2.972539306640625,-2.819589138031006,2.225046157836914,-3.9388246536254883
1782778903775457500,2.98245751953125,-2.598398208618164,2.0066895484924316,-4.830367565155029
1782778903785407700,2.99240771484375,-2.8547043800354004,1.6740254163742065,-5.1729278564453125
1782778903795538200,3.0025380859375,-3.919234275817871,1.4317340850830078,-4.970973968505859
1782778903805456400,3.012456298828125,-5.31358528137207,1.403701663017273,-4.495722770690918
1782778903815466200,3.02246630859375,-6.171324729919434,1.5778788328170776,-3.9123120307922363
1782778903825416200,3.032416259765625,-7.017368316650391,1.6755645275115967,-2.9064173698425293
1782778903835546600,3.042546630859375,-8.060999870300293,2.221529483795166,-1.6394295692443848
1782778903845465000,3.052465087890625,-7.912442684173584,2.961081027984619,-0.6658204793930054
1782778903855415000,3.0624150390625,-5.044120788574219,3.6574902534484863,0.07059037685394287
1782778903865545500,3.07254541015625,-0.13161563873291016,4.630724906921387,0.661474347114563
1782778903875463700,3.082463623046875,4.755463600158691,5.752501487731934,-0.5931662321090698
1782778903885473500,3.0924736328125,9.053329467773438,7.060122013092041,-4.190616130828857
1782778903895452700,3.10245263671875,10.559670448303223,8.183145523071289,-6.999378681182861
1782778903905462500,3.112462646484375,10.8834228515625,8.899040222167969,-5.762146949768066
1782778903915472400,3.122472412109375,12.088552474975586,8.502739906311035,-2.501601457595825
1782778903925451500,3.132451416015625,14.743634223937988,7.840085029602051,-0.8133437037467957
1782778903935461400,3.14246142578125,17.946590423583984,7.912749767303467,0.5461936593055725
1782778903955450000,3.1624501953125,21.843673706054688,8.833170890808105,3.7507729530334473
1782778903965460000,3.1724599609375,21.17594337463379,8.881036758422852,3.8000028133392334
1782778903975469800,3.1824697265625,19.6807804107666,8.725560188293457,2.421708822250366
1782778903985449000,3.192448974609375,17.464004516601562,8.289549827575684,1.9654959440231323
1782778903995458800,3.202458740234375,14.2881441116333,8.013594627380371,3.1671221256256104
1782778904005468700,3.21246875,12.180608749389648,7.318315505981445,4.992781639099121
1782778904015447800,3.22244775390625,11.345333099365234,6.127196311950684,5.9871602058410645
1782778904025457700,3.232457763671875,10.89657211303711,4.526458263397217,5.292793273925781
1782778904035467300,3.24246728515625,10.825911521911621,3.357177257537842,3.224370002746582
1782778904045477000,3.25247705078125,12.040453910827637,3.2651736736297607,1.4117971658706665
1782778904055456300,3.262456298828125,11.443862915039062,3.8377416133880615,0.5907289981842041
1782778904065466000,3.272466064453125,9.32333755493164,4.837002754211426,-0.023701786994934082
1782778904075476000,3.28247607421875,5.509116172790527,5.671852111816406,0.07284867763519287
1782778904085455000,3.292455078125,1.2947282791137695,6.139296531677246,0.4140692949295044
1782778904095465000,3.30246484375,-1.951718807220459,6.212924003601074,0.6245706081390381
1782778904105474800,3.312474853515625,-3.8648905754089355,6.071093559265137,0.3909873962402344
1782778904115454000,3.322453857421875,-4.579407215118408,5.595216751098633,-0.17984414100646973
1782778904125463800,3.3324638671875,-4.67507791519165,4.858682632446289,-1.1214041709899902
1782778904135473400,3.342473388671875,-4.804738998413086,4.023785591125488,-2.636136531829834
1782778904145452500,3.35245263671875,-5.030509948730469,3.393083333969116,-4.332733631134033
1782778904155462400,3.36246240234375,-5.539471626281738,2.9566941261291504,-5.4223480224609375
1782778904165472300,3.37247216796875,-5.963008880615234,2.419638156890869,-5.080629825592041
1782778904175451400,3.382451416015625,-6.110811710357666,2.4726943969726562,-6.978208541870117
1782778904185461200,3.392461181640625,-6.1704301834106445,2.5627858638763428,-8.613126754760742
1782778904195471000,3.40247119140625,-6.1612138748168945,2.4430761337280273,-9.035412788391113
1782778904205450200,3.4124501953125,-6.046986103057861,2.351109266281128,-8.29841136932373
1782778904215460000,3.422460205078125,-6.322639465332031,2.354886531829834,-6.900369644165039
1782778904225469700,3.4324697265625,-6.7902727127075195,2.4242641925811768,-5.634396076202393
1782778904235449000,3.442448974609375,-7.272130966186523,2.5066375732421875,-4.940209865570068
1782778904245459000,3.452458984375,-7.614152431488037,2.564307689666748,-4.587752342224121
1782778904255468500,3.462468505859375,-7.694215774536133,2.5503604412078857,-4.429043769836426
1782778904265447700,3.47244775390625,-7.366738319396973,2.6328606605529785,-4.249484539031982
1782778904275457500,3.48245751953125,-6.652661323547363,2.6683785915374756,-4.131960868835449
1782778904285467400,3.49246728515625,-6.062220573425293,2.572813034057617,-4.2420654296875
1782778904295477200,3.502477294921875,-5.718510627746582,2.6438183784484863,-4.231349468231201
1782778904305456400,3.512456298828125,-5.5391998291015625,2.614945888519287,-4.295590400695801
1782778904315466200,3.52246630859375,-5.5858073234558105,2.518507957458496,-4.248675346374512
1782778904325476000,3.53247607421875,-5.831644058227539,2.5009939670562744,-4.133250713348389
1782778904335455200,3.542455322265625,-6.090242385864258,2.1712589263916016,-4.32729434967041
1782778904345464800,3.55246484375,-6.411365509033203,1.760089635848999,-4.52685546875
1782778904355474700,3.562474609375,-6.791318893432617,1.7657344341278076,-4.535487174987793
1782778904365453800,3.572453857421875,-7.333708763122559,2.057950019836426,-4.1376190185546875
1782778904375463700,3.582463623046875,-8.0494966506958,2.2392404079437256,-3.5360164642333984
1782778904385473500,3.5924736328125,-8.360045433044434,2.20523738861084,-3.216956615447998
1782778904395561700,3.602561767578125,-8.442983627319336,1.9014151096343994,-3.0632543563842773
1782778904405403000,3.61240283203125,-8.503375053405762,1.4017415046691895,-2.7547342777252197
1782778904415615500,3.622615478515625,-8.599088668823242,1.2016323804855347,-2.1068978309631348
1782778904425482000,3.63248193359375,-8.936842918395996,1.5442135334014893,-1.2787326574325562
1782778904435461400,3.64246142578125,-9.155932426452637,1.9685568809509277,0.18725323677062988
1782778904445471000,3.652470947265625,-8.502521514892578,2.217784881591797,1.4349186420440674
1782778904455450000,3.6624501953125,-3.6037325859069824,2.408315896987915,-0.018488168716430664
1782778904465460000,3.6724599609375,-0.7805633544921875,2.112410068511963,0.36727356910705566
1782778904475469800,3.6824697265625,2.877171516418457,1.6981298923492432,-1.2460360527038574
1782778904485449000,3.692448974609375,7.851445198059082,1.0727880001068115,-5.57988166809082
1782778904495458800,3.702458740234375,11.967047691345215,0.8707002401351929,-9.887435913085938
1782778904515447800,3.72244775390625,13.939184188842773,2.133953332901001,-7.735356330871582
1782778904525457700,3.732457763671875,13.162276268005371,4.374230861663818,-0.8356946706771851
1782778904535467300,3.74246728515625,12.352762222290039,7.212770938873291,4.6265363693237305
1782778904545477000,3.75247705078125,10.860727310180664,9.414623260498047,6.230296611785889
1782778904555456300,3.762456298828125,8.464094161987305,10.35618782043457,5.090824604034424
1782778904565466000,3.772466064453125,8.961713790893555,10.513683319091797,3.9692187309265137
1782778904575476000,3.78247607421875,11.546915054321289,9.942941665649414,3.815669059753418
1782778904585455000,3.792455078125,15.39528751373291,8.793076515197754,3.9691123962402344
1782778904595465000,3.80246484375,18.956308364868164,7.839270114898682,3.6560158729553223
1782778904605415200,3.812415283203125,24.409896850585938,7.3030195236206055,3.865314483642578
1782778904615224600,3.822224609375,27.807273864746094,6.551599979400635,3.9627468585968018
1782778904625373400,3.83237353515625,26.683177947998047,5.653918743133545,2.878201961517334
1782778904635534600,3.84253466796875,22.35340118408203,5.453224182128906,2.423413038253784
1782778904645452500,3.85245263671875,16.296571731567383,5.957637786865234,2.715014696121216
1782778904655462400,3.86246240234375,9.243029594421387,6.426993370056152,2.4666004180908203
1782778904665472300,3.87247216796875,2.7070465087890625,6.787328720092773,2.0909535884857178
1782778904675451400,3.882451416015625,-2.3963160514831543,6.7766923904418945,1.8637914657592773
1782778904685461200,3.892461181640625,-5.688545227050781,6.2306108474731445,1.296450138092041
1782778904695471000,3.90247119140625,-7.498756408691406,4.998950958251953,0.02472066879272461
1782778904705450200,3.9124501953125,-7.366211414337158,3.8353183269500732,-1.8949105739593506
1782778904715460000,3.922460205078125,-5.807624816894531,2.4018654823303223,-1.9160113334655762
1782778904725469700,3.9324697265625,-1.880849838256836,2.2763235569000244,-1.9991569519042969
1782778904735449000,3.942448974609375,1.1219215393066406,2.072835683822632,-2.6616721153259277
1782778904745459000,3.952458984375,2.816767692565918,1.804337739944458,-3.1330528259277344
1782778904755468500,3.962468505859375,3.0484848022460938,1.8260910511016846,-3.6943399906158447
1782778904765447700,3.97244775390625,1.7231884002685547,1.9044749736785889,-4.3304057121276855
1782778904775457500,3.98245751953125,-0.5820932388305664,2.0358686447143555,-4.90395450592041
1782778904785467400,3.99246728515625,-2.8804616928100586,2.259582757949829,-5.232059001922607
1782778904795477000,4.00247705078125,-4.934093475341797,2.1053977012634277,-5.417555332183838
1782778904805396700,4.012396728515625,-6.303232192993164,2.1620779037475586,-5.38003396987915
1782778904815801900,4.0228017578125,-7.772274017333984,2.2396628856658936,-5.594460964202881
1782778904825594000,4.032593994140625,-8.914719581604004,2.2385976314544678,-6.278049945831299
1782778904835455200,4.042455322265625,-9.726432800292969,2.1533756256103516,-7.205203056335449
1782778904845464800,4.05246484375,-10.081416130065918,2.042109966278076,-7.872975826263428
1782778904855474700,4.062474609375,-9.796619415283203,1.9219746589660645,-8.073436737060547
1782778904865453800,4.072453857421875,-9.1917724609375,1.8973278999328613,-7.758360862731934
1782778904875463700,4.082463623046875,-8.418539047241211,2.0553245544433594,-7.076873302459717
1782778904885473500,4.0924736328125,-7.623399257659912,2.339000701904297,-6.570838928222656
1782778904895452700,4.10245263671875,-6.983270645141602,2.5449395179748535,-6.323441505432129
1782778904905462500,4.112462646484375,-6.404877662658691,2.519130229949951,-6.169574737548828
1782778904915472400,4.122472412109375,-6.0406904220581055,2.4519333839416504,-6.116953372955322
1782778904925451500,4.132451416015625,-6.035469055175781,2.3709754943847656,-6.122239589691162
1782778904935461400,4.14246142578125,-6.245430946350098,2.1660869121551514,-6.039088249206543
1782778904945471000,4.152470947265625,-6.461524963378906,2.034492015838623,-5.713372707366943
1782778904955450000,4.1624501953125,-6.4921064376831055,2.120159149169922,-5.393939018249512
1782778904965460000,4.1724599609375,-6.327393531799316,2.2020745277404785,-5.0685858726501465
1782778904975469800,4.1824697265625,-6.196285247802734,2.0495426654815674,-4.773377418518066
1782778904985449000,4.192448974609375,-6.139159679412842,1.7978192567825317,-4.572312831878662
1782778904995458800,4.202458740234375,-5.740057945251465,1.717374324798584,-4.361603736877441
1782778905005468700,4.21246875,-5.548120975494385,1.7512620687484741,-3.717729091644287
1782778905015447800,4.22244775390625,-5.977472305297852,1.6315371990203857,-2.8262827396392822
1782778905025457700,4.232457763671875,-6.934470176696777,1.1350317001342773,-2.791508436203003
1782778905035467300,4.24246728515625,-7.85113000869751,0.7522978782653809,-3.279797315597534
1782778905045477000,4.25247705078125,-8.556330680847168,0.6479232311248779,-3.7045280933380127
1782778905055456300,4.262456298828125,-9.007298469543457,0.5630937814712524,-3.920541286468506
1782778905065466000,4.272466064453125,-9.00074291229248,0.4625224769115448,-4.090611457824707
1782778905075310300,4.282310302734375,-8.527008056640625,0.6270542144775391,-3.7455878257751465
1782778905085455000,4.292455078125,-7.720327854156494,1.0707478523254395,-2.643630027770996
1782778905095465000,4.30246484375,-6.137840270996094,1.7009717226028442,-1.6996264457702637
1782778905105474800,4.312474853515625,-2.8987507820129395,2.226196765899658,-1.6632170677185059
1782778905115454000,4.322453857421875,3.5333328247070312,2.5951836109161377,-2.0972061157226562
1782778905125463800,4.3324638671875,10.500147819519043,3.2037150859832764,-3.6992242336273193
1782778905135473400,4.342473388671875,15.397168159484863,3.8453073501586914,-8.474600791931152
1782778905155462400,4.36246240234375,15.356322288513184,6.995290756225586,-8.836003303527832
1782778905165472300,4.37247216796875,13.674418449401855,7.7420973777771,-2.117321729660034
1782778905175451400,4.382451416015625,14.586997032165527,7.068737506866455,1.450427532196045
1782778905185461200,4.392461181640625,16.891340255737305,7.281097888946533,2.347310781478882
1782778905195471000,4.40247119140625,19.82323455810547,8.330180168151855,4.9387922286987305
1782778905205450200,4.4124501953125,22.189212799072266,8.361050605773926,7.4027533531188965
1782778905215460000,4.422460205078125,24.401294708251953,6.99776029586792,5.614764213562012
1782778905225470000,4.432469970703125,26.66195297241211,4.678479194641113,1.1401560306549072
1782778905235449000,4.442448974609375,27.80270004272461,3.4499361515045166,-0.7712560892105103
1782778905245459000,4.452458984375,25.892366409301758,4.102459907531738,0.37590551376342773
1782778905255468500,4.462468505859375,22.69209098815918,5.29376220703125,2.8538496494293213
1782778905265447700,4.47244775390625,19.66582679748535,5.655936241149902,4.067409992218018
1782778905275457500,4.48245751953125,16.26877784729004,5.6030192375183105,3.451143980026245
1782778905285467400,4.49246728515625,12.364927291870117,6.054651260375977,2.386016368865967
1782778905295477200,4.502477294921875,8.172037124633789,7.076601028442383,2.356410264968872
1782778905305456400,4.512456298828125,3.820344924926758,7.794757843017578,2.788921594619751
1782778905315466200,4.52246630859375,-0.2082986831665039,7.7411651611328125,3.142103910446167
1782778905325476000,4.53247607421875,-2.949347496032715,7.167278289794922,2.645622968673706
1782778905336596700,4.5435966796875,-2.6039695739746094,5.809178352355957,1.1007111072540283
1782778905355474700,4.562474609375,-0.43765830993652344,3.661500930786133,-2.612062692642212
1782778905365453800,4.572453857421875,-0.0002765655517578125,2.66760516166687,-4.124189376831055
1782778905375463700,4.582463623046875,0.22904014587402344,2.3096189498901367,-5.227226257324219
1782778905385473500,4.5924736328125,-0.1386880874633789,2.1062920093536377,-6.348056316375732
1782778905395393000,4.60239306640625,-1.5893988609313965,1.902857780456543,-7.117433547973633
1782778905405523500,4.6125234375,-3.3841567039489746,1.7440736293792725,-7.465359210968018
1782778905415472400,4.622472412109375,-5.416579246520996,2.0177435874938965,-6.681122779846191
1782778905425391900,4.632391845703125,-7.66275691986084,2.333789110183716,-5.354522705078125
1782778905435522300,4.642522216796875,-9.471502304077148,2.4935812950134277,-4.0835957527160645
1782778905445471000,4.652470947265625,-11.047667503356934,2.6300978660583496,-3.5176641941070557
1782778905455450000,4.6624501953125,-12.113702774047852,2.5926859378814697,-3.4364981651306152
1782778905465460000,4.6724599609375,-12.559693336486816,2.3812880516052246,-3.660106658935547
1782778905475469800,4.6824697265625,-12.378374099731445,2.25846791267395,-3.90377140045166
1782778905485449200,4.69244921875,-12.030132293701172,2.104619026184082,-4.367238521575928
1782778905495458800,4.702458740234375,-11.681245803833008,1.7723197937011719,-4.716651916503906
1782778905505468700,4.71246875,-11.342354774475098,1.456117033958435,-4.977935791015625
1782778905515447800,4.72244775390625,-11.002612113952637,1.3299691677093506,-5.216512680053711
1782778905525457700,4.732457763671875,-10.50277328491211,1.3209089040756226,-5.414991855621338
1782778905535467300,4.74246728515625,-9.912229537963867,1.1932748556137085,-5.356841087341309
1782778905545477000,4.75247705078125,-9.592268943786621,1.108170509338379,-4.8820013999938965
1782778905555456300,4.762456298828125,-9.375843048095703,1.0203566551208496,-4.162946701049805
1782778905565406500,4.772406494140625,-9.084207534790039,0.922400712966919,-3.700767993927002
1782778905575140600,4.782140625,-8.60763931274414,0.7697947025299072,-3.611928939819336
1782778905585455000,4.792455078125,-8.271905899047852,0.6987671852111816,-3.822634696960449
1782778905595465000,4.80246484375,-7.996884346008301,0.6611428260803223,-4.0925140380859375
1782778905605415200,4.812415283203125,-7.666905403137207,0.42341524362564087,-4.5260725021362305
1782778905615728600,4.822728759765625,-7.413589954376221,0.18523496389389038,-4.817710876464844
1782778905625404000,4.83240380859375,-7.163151741027832,0.17112022638320923,-4.649920463562012
1782778905635534600,4.84253466796875,-7.01544189453125,0.07707452774047852,-4.083329200744629
1782778905645452800,4.852452880859375,-7.265639305114746,0.1792583465576172,-3.735328197479248
1782778905655462400,4.86246240234375,-7.6500139236450195,0.42335498332977295,-3.277571201324463
1782778905665472300,4.87247216796875,-8.337384223937988,0.42818546295166016,-2.547954559326172
1782778905675451400,4.882451416015625,-9.032801628112793,0.2344798445701599,-2.3284432888031006
1782778905685461200,4.892461181640625,-9.655656814575195,0.07576382160186768,-2.324411153793335
1782778905697096000,4.904095947265625,-9.91169261932373,-0.019139409065246582,-2.270390510559082
1782778905715233500,4.922233642578125,-10.232243537902832,-0.022166073322296143,-2.21207594871521
1782778905725439500,4.932439453125,-9.213762283325195,-0.45068368315696716,-2.3886256217956543
1782778905735449000,4.942448974609375,-6.0124592781066895,-0.12287402153015137,-2.7667531967163086
1782778905745459000,4.952458984375,10.04310417175293,2.3231260776519775,-4.0889787673950195
1782778905755468500,4.962468505859375,19.316469192504883,3.6768317222595215,-2.7044527530670166
1782778905765447700,4.97244775390625,23.93598747253418,4.673130035400391,-3.5395801067352295
1782778905775457500,4.98245751953125,24.285884857177734,4.26396369934082,-4.522064685821533
1782778905795477200,5.002477294921875,19.70624542236328,3.175492763519287,-7.472009658813477
1782778905805456400,5.012456298828125,18.29248809814453,3.3429794311523438,-4.803180694580078
1782778905815466200,5.02246630859375,17.364883422851562,4.88290548324585,-1.8922111988067627
1782778905825476000,5.03247607421875,16.405017852783203,6.794484615325928,-0.29590725898742676
1782778905835455200,5.042455322265625,15.739106178283691,7.627350807189941,0.4112396240234375
1782778905845464800,5.05246484375,13.724881172180176,7.7272796630859375,1.5064568519592285
1782778905857046800,5.064046875,9.026668548583984,7.517626762390137,4.792203426361084
1782778905875463700,5.082463623046875,10.107514381408691,5.036887168884277,6.232019424438477
1782778905885473500,5.0924736328125,13.783284187316895,3.211803913116455,4.075411796569824
1782778905895452700,5.10245263671875,15.7738618850708,2.766611099243164,2.300224542617798
1782778905905462500,5.112462646484375,13.605816841125488,3.2930359840393066,1.8618359565734863
1782778905915412500,5.12241259765625,9.865575790405273,3.6333422660827637,1.537797212600708
1782778905925543200,5.132543212890625,6.304168701171875,3.8323450088500977,1.2290050983428955
1782778905935461000,5.142461181640625,2.782526969909668,4.067327499389648,1.4930620193481445
1782778905945471000,5.152470947265625,-0.6129827499389648,4.076132297515869,1.5571038722991943
1782778905955450000,5.1624501953125,-3.329073905944824,3.7109880447387695,1.1936135292053223
1782778905965460000,5.1724599609375,-3.9229512214660645,3.257934093475342,-0.06910538673400879
1782778905975469800,5.1824697265625,-3.7487854957580566,2.713749408721924,-1.6026787757873535
1782778905985449000,5.192448974609375,-3.164764881134033,1.948806643486023,-3.523855686187744
1782778905995458800,5.202458740234375,-2.7514400482177734,1.5561639070510864,-5.710245132446289
1782778906005468700,5.21246875,-2.704550266265869,1.9986913204193115,-6.931251525878906
1782778906015448000,5.222447998046875,-2.860565662384033,2.8252155780792236,-6.760798454284668
1782778906025457700,5.232457763671875,-3.3649425506591797,3.5050175189971924,-6.262847900390625
1782778906035467300,5.24246728515625,-4.109874725341797,3.8622500896453857,-6.143764019012451
1782778906045476900,5.252476806640625,-5.037266731262207,4.440671443939209,-5.511778354644775
1782778906055456300,5.262456298828125,-6.240262031555176,4.769396781921387,-4.3270182609558105
1782778906065466000,5.272466064453125,-7.465191841125488,4.815034866333008,-3.3485536575317383
1782778906075476000,5.28247607421875,-8.492606163024902,4.871037006378174,-3.1333327293395996
1782778906085564400,5.292564453125,-9.359663009643555,4.65126895904541,-3.3872628211975098
1782778906095465000,5.30246484375,-9.747161865234375,4.324322700500488,-3.85483980178833
1782778906105474800,5.312474853515625,-9.69236946105957,4.126632213592529,-4.188546657562256
1782778906115471600,5.3224716796875,-9.161685943603516,3.8432416915893555,-4.3349785804748535
1782778906125463600,5.332463623046875,-8.196361541748047,3.5174150466918945,-4.43290376663208
1782778906135247000,5.3422470703125,-7.115288257598877,3.234687328338623,-4.7403459548950195
1782778906145452800,5.352452880859375,-6.325376510620117,3.151228189468384,-4.921554088592529
1782778906155462400,5.36246240234375,-5.615405559539795,3.129483938217163,-4.8272247314453125
1782778906165472300,5.37247216796875,-4.687547206878662,2.889890670776367,-4.549747943878174
1782778906175451400,5.382451416015625,-3.2936224937438965,2.7282886505126953,-4.473893165588379
1782778906185461200,5.392461181640625,-2.5875539779663086,2.6075990200042725,-4.614184379577637
1782778906195471000,5.40247119140625,-2.7846789360046387,2.5759565830230713,-4.658758163452148
1782778906205450200,5.4124501953125,-3.398662567138672,2.635629415512085,-4.267305850982666
1782778906215460000,5.422460205078125,-4.062297344207764,2.7140703201293945,-3.8611221313476562
1782778906225470000,5.432469970703125,-4.551456451416016,2.7750656604766846,-3.7830350399017334
1782778906235449000,5.442448974609375,-5.030440330505371,2.768655776977539,-3.9187769889831543
1782778906245429800,5.4524296875,-5.398950576782227,2.770669937133789,-4.062215805053711
1782778906256199700,5.46319970703125,-5.838136672973633,2.640801429748535,-3.979076385498047
1782778906275457500,5.48245751953125,-6.727212905883789,2.782331705093384,-3.810337543487549
1782778906285407700,5.49240771484375,-7.201287269592285,2.7577385902404785,-3.6536779403686523
1782778906295382000,5.502382080078125,-6.548614025115967,2.7489476203918457,-3.4462783336639404
1782778906305456400,5.512456298828125,-5.101658821105957,2.718804359436035,-2.6850829124450684
1782778906315466200,5.52246630859375,-3.965026378631592,2.722399950027466,-1.5596657991409302
1782778906325476000,5.53247607421875,-3.2737784385681152,2.951728105545044,-0.7793676853179932
1782778906335455200,5.542455322265625,-1.0826339721679688,3.219782829284668,-0.6125712394714355
1782778906355474700,5.562474609375,6.305170059204102,3.39534330368042,-3.5703439712524414
1782778906365453800,5.572453857421875,11.013526916503906,4.82830286026001,-5.350767135620117
1782778906375463700,5.582463623046875,14.312166213989258,5.569207191467285,-5.03294563293457
1782778906385473500,5.5924736328125,14.709095001220703,5.895045280456543,-3.2707109451293945
1782778906395452700,5.60245263671875,15.498507499694824,6.929569721221924,-2.540506362915039
1782778906405462500,5.612462646484375,16.454452514648438,6.987841606140137,-2.07239031791687
1782778906415472400,5.622472412109375,16.38018035888672,6.530599594116211,-0.37894535064697266
1782778906425451500,5.632451416015625,15.761772155761719,7.2210917472839355,1.846712350845337
1782778906435461000,5.642461181640625,14.502513885498047,8.66862964630127,3.3053760528564453
1782778906445471000,5.652470947265625,14.317009925842285,8.521306037902832,3.3630688190460205
1782778906455450000,5.6624501953125,14.942952156066895,7.386542320251465,1.6272647380828857
1782778906465460000,5.6724599609375,15.168813705444336,6.314846992492676,0.3430325984954834
1782778906475469800,5.6824697265625,14.505743026733398,4.569642066955566,0.28274309635162354
1782778906485449000,5.692448974609375,13.648035049438477,3.58662748336792,0.9427890777587891
1782778906495458800,5.702458740234375,14.458355903625488,3.7385919094085693,1.9882712364196777
1782778906505468700,5.71246875,15.327010154724121,4.048582553863525,1.8532733917236328
1782778906515388200,5.72238818359375,15.057305335998535,4.863064765930176,1.4110386371612549
1782778906525549300,5.73254931640625,13.384445190429688,5.805490016937256,1.3378400802612305
1782778906535467300,5.74246728515625,10.629800796508789,6.495418548583984,1.1801581382751465
1782778906545477000,5.75247705078125,6.922244071960449,6.850911617279053,0.7943122386932373
1782778906555456300,5.762456298828125,2.9259567260742188,6.979317665100098,0.5969893932342529
1782778906565466000,5.772466064453125,-0.31682872772216797,6.711331367492676,0.04541182518005371
1782778906575476000,5.78247607421875,-2.872951030731201,6.164000988006592,-0.7652542591094971
1782778906585455000,5.792455078125,-4.790709018707275,5.521022319793701,-2.552482843399048
1782778906595367400,5.802367431640625,-6.237154960632324,4.419830322265625,-3.089711904525757
1782778906605476000,5.81247607421875,-6.5430402755737305,3.5147688388824463,-4.368628025054932
1782778906616462800,5.823462890625,-6.241703033447266,3.078230381011963,-5.838373184204102
1782778906635473400,5.842473388671875,-5.1351318359375,3.326885938644409,-4.828184127807617
1782778906645452800,5.852452880859375,-4.584214210510254,3.8576085567474365,-3.9487061500549316
1782778906655462400,5.86246240234375,-4.711356163024902,4.081100940704346,-3.552645444869995
1782778906665472300,5.87247216796875,-5.334027290344238,4.211184024810791,-3.2367658615112305
1782778906675451400,5.882451416015625,-6.567315578460693,4.296049118041992,-3.1134350299835205
1782778906685461200,5.892461181640625,-8.100360870361328,4.227567672729492,-3.2096197605133057
1782778906695471000,5.90247119140625,-9.752156257629395,3.854526996612549,-3.3974738121032715
1782778906705559600,5.9125595703125,-10.845484733581543,3.1624536514282227,-3.9814276695251465
1782778906715460000,5.922460205078125,-11.55352783203125,2.5992231369018555,-4.80962610244751
1782778906725470000,5.932469970703125,-11.966241836547852,2.024298906326294,-5.535177230834961
1782778906735389200,5.94238916015625,-12.273776054382324,1.6693272590637207,-5.839108467102051
1782778906745519900,5.952519775390625,-12.431368827819824,1.5577187538146973,-5.488269805908203
1782778906755468500,5.962468505859375,-12.301433563232422,1.5005279779434204,-4.958115577697754
1782778906765388000,5.972387939453125,-11.766996383666992,1.4385271072387695,-4.532684326171875
1782778906775793400,5.98279345703125,-10.545616149902344,1.286160945892334,-4.448901176452637
1782778906785467400,5.99246728515625,-9.60621452331543,1.126334547996521,-4.6673383712768555
1782778906795477200,6.002477294921875,-9.046407699584961,1.119539499282837,-4.629685401916504
1782778906805456400,6.012456298828125,-8.729198455810547,0.9135586023330688,-4.4875993728637695
1782778906815466200,6.02246630859375,-8.634599685668945,0.7265287041664124,-4.312160015106201
1782778906825476000,6.03247607421875,-8.746759414672852,0.8279985189437866,-3.878206491470337
1782778906835455200,6.042455322265625,-9.170218467712402,0.9256389141082764,-3.015199661254883
1782778906845573000,6.052572998046875,-9.754088401794434,0.9605629444122314,-1.9059686660766602
1782778906855444000,6.06244384765625,-9.822954177856445,1.1708216667175293,-1.0856844186782837
1782778906865453800,6.072453857421875,-9.283432960510254,1.3809834718704224,-0.7216249704360962
1782778906875236400,6.082236328125,-8.35625171661377,0.7388100028038025,-1.3930145502090454
1782778906885442800,6.09244287109375,-7.482975959777832,0.3020893335342407,-2.4624438285827637
1782778906895452700,6.10245263671875,-7.079780578613281,0.5248989462852478,-2.8153610229492188
1782778906905462500,6.112462646484375,-6.780666351318359,0.2672630548477173,-2.2331244945526123
1782778906915472400,6.122472412109375,-5.74056339263916,0.3675692081451416,-1.2791322469711304
1782778906925451500,6.132451416015625,-1.2028379440307617,0.4325138330459595,-1.662216067314148
1782778906935461000,6.142461181640625,9.157282829284668,-0.15518879890441895,-1.3757823705673218
1782778906945471000,6.152470947265625,16.754409790039062,0.026787638664245605,-3.434237480163574
1782778906955450000,6.1624501953125,21.47384262084961,1.3702480792999268,-3.9681196212768555
1782778906965460000,6.1724599609375,19.955360412597656,2.2923405170440674,-3.7441768646240234
1782778906975469800,6.1824697265625,12.850421905517578,2.971376895904541,-2.857431411743164
1782778906995458800,6.202458740234375,4.965201377868652,5.933910846710205,-3.436713933944702
1782778907005468700,6.21246875,8.942180633544922,5.881399154663086,-3.0608794689178467
1782778907015447800,6.22244775390625,15.937029838562012,6.546991348266602,-2.056157112121582
1782778907025457700,6.232457763671875,20.798389434814453,7.103728771209717,-3.190990447998047
1782778907035467300,6.24246728515625,21.73523712158203,7.462176322937012,-2.170140266418457
1782778907045476900,6.252476806640625,19.509780883789062,8.578550338745117,1.4152743816375732
1782778907055456300,6.262456298828125,17.117164611816406,9.176167488098145,5.360208034515381
1782778907065466000,6.272466064453125,17.283645629882812,8.938828468322754,7.365328311920166
1782778907075476000,6.28247607421875,19.149242401123047,7.801577568054199,6.229986667633057
1782778907085455000,6.292455078125,20.511112213134766,6.274480819702148,3.047002077102661
1782778907095465000,6.30246484375,19.969921112060547,5.312792778015137,-0.22051382064819336
1782778907105474800,6.312474853515625,17.649044036865234,5.396550178527832,-1.5013624429702759
1782778907115454000,6.322453857421875,13.386906623840332,6.05191707611084,-1.2254014015197754
1782778907125463600,6.332463623046875,9.25499439239502,6.317409038543701,-0.35199546813964844
1782778907135473400,6.342473388671875,5.54990291595459,6.3073835372924805,0.654932975769043
1782778907145452800,6.352452880859375,2.028148651123047,6.059618949890137,1.6576218605041504
1782778907155462400,6.36246240234375,-1.076970100402832,5.474429130554199,1.607877492904663
1782778907165472300,6.37247216796875,-2.9136061668395996,4.434754371643066,0.21230292320251465
1782778907175451400,6.382451416015625,-3.4520602226257324,3.3888022899627686,-2.07197904586792
1782778907185461200,6.392461181640625,-3.317483901977539,2.651550054550171,-3.921159029006958
1782778907195471000,6.40247119140625,-3.539193630218506,2.4211812019348145,-4.851081371307373
1782778907205450200,6.4124501953125,-4.1169538497924805,2.1772115230560303,-5.241657733917236
1782778907215460000,6.422460205078125,-5.168008327484131,2.368974208831787,-4.980740547180176
1782778907225470000,6.432469970703125,-6.215210437774658,2.7281713485717773,-4.471133708953857
1782778907235449000,6.442448974609375,-7.260100841522217,3.071681261062622,-2.855677604675293
1782778907245459000,6.452458984375,-8.002881050109863,3.2578964233398438,-2.4993796348571777
1782778907255468500,6.462468505859375,-8.753595352172852,3.4991202354431152,-3.300265312194824
1782778907265448000,6.472447998046875,-9.553854942321777,3.6140644550323486,-3.992860794067383
1782778907275457500,6.48245751953125,-10.127629280090332,3.282349109649658,-4.689701080322266
1782778907285467400,6.49246728515625,-10.619980812072754,2.793924331665039,-5.215877056121826
1782778907295477000,6.50247705078125,-11.191584587097168,2.3795950412750244,-5.5522589683532715
1782778907305456400,6.512456298828125,-11.487043380737305,1.8680522441864014,-5.897707939147949
1782778907315466200,6.52246630859375,-11.635427474975586,1.7610560655593872,-5.999323844909668
1782778907325476000,6.53247607421875,-11.746042251586914,2.0399789810180664,-5.325623512268066
1782778907335455200,6.542455322265625,-11.734071731567383,1.9835457801818848,-4.726576805114746
1782778907345464800,6.55246484375,-11.600647926330566,1.9711668491363525,-4.375887870788574
1782778907355474700,6.562474609375,-11.249659538269043,2.045243740081787,-3.981487989425659
1782778907365453800,6.572453857421875,-10.753158569335938,2.057009696960449,-3.617403745651245
1782778907375463700,6.582463623046875,-10.262543678283691,1.9827344417572021,-3.1987695693969727
1782778907385473500,6.5924736328125,-9.65997314453125,1.8121036291122437,-2.9925475120544434
1782778907395317800,6.60231787109375,-9.009336471557617,1.5834277868270874,-3.194382905960083
1782778907405462500,6.612462646484375,-8.40974235534668,1.2603211402893066,-3.425861358642578
1782778907415472400,6.622472412109375,-8.181327819824219,1.0180777311325073,-2.946070671081543
1782778907425451500,6.632451416015625,-8.549396514892578,1.155900478363037,-2.299665927886963
1782778907435614000,6.642614013671875,-8.673144340515137,1.0657976865768433,-2.0339651107788086
1782778907445580000,6.652580078125,-8.575909614562988,1.202195405960083,-2.321789503097534
1782778907455450000,6.6624501953125,-8.273921966552734,1.2547301054000854,-2.523864984512329
1782778907465460000,6.6724599609375,-7.963879108428955,1.8131237030029297,-2.786112070083618
1782778907475469800,6.6824697265625,-9.642488479614258,1.601536512374878,-2.0091705322265625
1782778907485449000,6.692448974609375,-7.360583305358887,0.9509996175765991,-0.6999770402908325
1782778907495458800,6.702458740234375,-4.964794635772705,1.5009528398513794,-0.3897327184677124
1782778907505468700,6.71246875,-3.2578001022338867,1.2503700256347656,-0.9685404300689697
1782778907515448000,6.722447998046875,-3.8581981658935547,0.4804884195327759,-1.059631109237671
1782778907525457700,6.732457763671875,-5.489184379577637,0.17980951070785522,-2.1283469200134277
1782778907535467500,6.742467529296875,-5.189990043640137,-0.49650418758392334,-4.345036506652832
1782778907545477000,6.75247705078125,-3.2109689712524414,0.28142064809799194,-4.084440231323242
1782778907555456300,6.762456298828125,-0.581817626953125,2.425693988800049,-0.0820467472076416
1782778907565466000,6.772466064453125,7.290752410888672,5.227779388427734,2.7894482612609863
1782778907575476000,6.78247607421875,14.751258850097656,6.895277976989746,2.0080902576446533
1782778907585455000,6.792455078125,19.310287475585938,6.582602500915527,0.020667076110839844
1782778907595465000,6.80246484375,20.23743438720703,6.992804527282715,-1.7043755054473877
1782778907605474800,6.812474853515625,18.923114776611328,7.509781360626221,-2.3273890018463135
1782778907615454000,6.822453857421875,16.20833969116211,7.258333683013916,-2.064779281616211
1782778907625463800,6.8324638671875,13.606070518493652,7.007809162139893,0.7106938362121582
1782778907635473400,6.842473388671875,11.367653846740723,8.211262702941895,2.910134792327881
1782778907645452800,6.852452880859375,13.036799430847168,7.525634288787842,4.136263370513916
1782778907655462400,6.86246240234375,17.20615005493164,6.038414478302002,6.030572891235352
1782778907665472300,6.87247216796875,21.74551773071289,4.132015228271484,5.945406913757324
1782778907675451400,6.882451416015625,24.774742126464844,1.7600091695785522,3.1906492710113525
1782778907685461200,6.892461181640625,25.772863388061523,0.4870426654815674,-0.3517310619354248
1782778907695471000,6.90247119140625,24.709823608398438,0.30876970291137695,-2.1269969940185547
1782778907705390600,6.912390625,21.611160278320312,1.1597187519073486,-2.7809157371520996
1782778907715521000,6.92252099609375,16.3846435546875,2.678882122039795,-1.4150457382202148
1782778907725470000,6.932469970703125,10.292488098144531,3.832871913909912,0.25352907180786133
1782778907735449000,6.942448974609375,4.759076118469238,4.1967549324035645,0.7769672870635986
1782778907745459000,6.952458984375,0.6537437438964844,3.552089214324951,-0.13743352890014648
1782778907755468500,6.962468505859375,-1.8833966255187988,2.6467485427856445,-0.8802011013031006
1782778907765447700,6.97244775390625,-1.5667710304260254,1.351114273071289,-2.3619155883789062
1782778907775457500,6.98245751953125,-0.26338672637939453,0.5197869539260864,-4.2345709800720215
1782778907785467400,6.99246728515625,0.8204574584960938,0.38081789016723633,-5.308063983917236
1782778907795477000,7.00247705078125,0.9964303970336914,0.355948805809021,-6.112878322601318
1782778907805456400,7.012456298828125,-0.2281789779663086,0.753223180770874,-5.9394330978393555
1782778907815466200,7.02246630859375,-2.09194278717041,1.3895145654678345,-5.039222240447998
1782778907825476000,7.03247607421875,-3.803757667541504,2.295764446258545,-4.8953857421875
1782778907835455200,7.042455322265625,-5.580118179321289,2.736387252807617,-3.07995343208313
1782778907845465000,7.052465087890625,-7.233736038208008,3.4110159873962402,-1.9054452180862427
1782778907855474700,7.062474609375,-9.210201263427734,3.693570375442505,-2.380629539489746
1782778907865453800,7.072453857421875,-10.689874649047852,3.6738409996032715,-3.0029420852661133
1782778907875463700,7.082463623046875,-11.438664436340332,3.535727024078369,-3.581341505050659
1782778907885473500,7.0924736328125,-11.75635814666748,3.3582921028137207,-4.311906337738037
1782778907895393000,7.10239306640625,-11.725788116455078,2.9910101890563965,-4.779966831207275
1782778907905463800,7.1124638671875,-11.354696273803711,2.4651594161987305,-5.1162004470825195
1782778907915533300,7.122533203125,-11.079913139343262,1.876650333404541,-5.438575744628906
1782778907925451500,7.132451416015625,-10.928618431091309,1.5680615901947021,-5.311794281005859
1782778907935461400,7.14246142578125,-10.776100158691406,1.5015865564346313,-4.92769718170166
1782778907945471000,7.152470947265625,-10.584319114685059,1.6785942316055298,-4.151553153991699
1782778907955450000,7.1624501953125,-10.390223503112793,1.6165964603424072,-3.1722967624664307
1782778907965460000,7.1724599609375,-9.717392921447754,1.4082386493682861,-2.653306484222412
1782778907975579100,7.1825791015625,-8.898565292358398,1.1421815156936646,-2.539663076400757
1782778907985449200,7.19244921875,-8.42317008972168,0.7601781487464905,-2.865335464477539
1782778907995458800,7.202458740234375,-7.996927261352539,0.6390105485916138,-3.141341209411621
1782778908005409000,7.212408935546875,-7.6739654541015625,0.386854887008667,-3.151693105697632
1782778908015539500,7.22253955078125,-8.03532600402832,0.3931198716163635,-2.8786654472351074
1782778908025353200,7.232353271484375,-7.8222246170043945,-0.05380292236804962,-2.7098751068115234
1782778908035467500,7.242467529296875,-5.602052211761475,-0.4541374742984772,-2.823479652404785
1782778908045477000,7.25247705078125,-8.475234985351562,0.5414864420890808,-3.062655448913574
1782778908055456300,7.262456298828125,-10.173809051513672,-0.3923620581626892,-3.0826101303100586
1782778908065466000,7.272466064453125,-9.888260841369629,-0.31116747856140137,-2.2336626052856445
1782778908075476000,7.28247607421875,-9.014511108398438,0.06563960015773773,-0.5126500129699707
1782778908085455000,7.292455078125,-8.601449012756348,-0.21329881250858307,-0.45885777473449707
1782778908095465000,7.30246484375,-8.523846626281738,0.31578561663627625,-0.9233031272888184
1782778908105474800,7.312474853515625,-7.500184059143066,0.10538214445114136,-1.6052112579345703
1782778908115454000,7.322453857421875,-5.434610366821289,-0.9499843120574951,-3.560800552368164
1782778908125463600,7.332463623046875,-5.396924018859863,-0.17262431979179382,-6.337768077850342
1782778908135473400,7.342473388671875,-5.77153205871582,0.7126737833023071,-5.904847145080566
