time,seconds_elapsed,z,y,x
1782778617904756200,0.194756103515625,0.00427605677396059,0.01466076634824276,0.006108652334660292
1782778617914610000,0.20460986328125,0.00427605677396059,0.01466076634824276,0.006108652334660292
1782778617924635600,0.2146357421875,0.00427605677396059,0.01466076634824276,0.006108652334660292
1782778617934738700,0.22473876953125,0.3787364661693573,0.11484266817569733,0.20341812074184418
1782778617944625400,0.23462548828125,0.38667771220207214,0.2015855312347412,0.12034045159816742
1782778617954619000,0.244618896484375,0.4147774875164032,0.2822197377681732,0.05375614017248154
1782778617964480500,0.25448046875,0.41599923372268677,0.2968805134296417,0.015271631069481373
1782778617974608000,0.26460791015625,0.38117989897727966,0.27122417092323303,-0.03481931984424591
1782778617984640500,0.274640625,0.27977627515792847,0.22602014243602753,-0.056810468435287476
1782778617994627300,0.28462744140625,0.1014036312699318,0.04886921867728233,-0.05497787147760391
1782778618004657700,0.29465771484375,-0.060475658625364304,-0.2321287989616394,-0.019547687843441963
1782778618014616300,0.3046162109375,-0.1508837193250656,-0.5015203952789307,0.05497787147760391
1782778618024648000,0.31464794921875,-0.15332718193531036,-0.6780604124069214,0.21807889640331268
1782778618034635800,0.3246357421875,-0.06108652427792549,-0.6194173693656921,0.5748242139816284
1782778618044636400,0.334636474609375,0.1612684279680252,-0.3121521472930908,1.1899654865264893
1782778618054625000,0.344625,0.43615779280662537,-0.1319468915462494,1.7971655130386353
1782778618064658000,0.354657958984375,0.6957755088806152,-0.21502456068992615,1.8545868396759033
1782778618074614000,0.364614013671875,0.9065240025520325,-0.02015855349600315,1.4813482761383057
1782778618084645000,0.37464501953125,0.9902125597000122,0.24129177629947662,0.6114761233329773
1782778618094633500,0.384633544921875,0.8497135639190674,0.03420845419168472,-0.8851437568664551
1782778618104635400,0.394635498046875,0.42149701714515686,-0.4538728892803192,-2.7898216247558594
1782778618114622500,0.40462255859375,-0.24495697021484375,-0.8808676600456238,-4.461148738861084
1782778618124653600,0.414653564453125,-0.6597344875335693,-0.4807509481906891,-5.053077220916748
1782778618134642200,0.42464208984375,-0.4715879559516907,0.37079519033432007,-4.210694313049316
1782778618144642600,0.434642578125,-0.021991148591041565,0.6065891981124878,-2.453845739364624
1782778618154631200,0.444631103515625,0.3090978264808655,-0.03726277872920036,-0.6688974499702454
1782778618164661500,0.45466162109375,0.23457226157188416,-0.8338310718536377,0.46547931432724
1782778618174620200,0.4646201171875,-0.10384709388017654,-1.214400053024292,0.9071348905563354
1782778618184652300,0.47465234375,-0.39217549562454224,-1.1594222784042358,0.8710938692092896
1782778618194639600,0.4846396484375,-0.598647952079773,-0.8448266386985779,0.36224308609962463
1782778618204642300,0.494642333984375,-0.616973876953125,-0.523511528968811,-0.646906316280365
1782778618214628600,0.504628662109375,-0.3732386529445648,-0.21441370248794556,-1.8942930698394775
1782778618224659500,0.514659423828125,-0.04153883829712868,0.1215621829032898,-2.9413161277770996
1782778618234617600,0.52461767578125,0.17470745742321014,0.4056145250797272,-3.4269540309906006
1782778618244648400,0.5346484375,0.2932153046131134,0.4593706727027893,-3.2449162006378174
1782778618254637300,0.54463720703125,0.37201693654060364,0.251676470041275,-2.4489588737487793
1782778618264637000,0.554636962890625,0.3830125033855438,-0.08246681094169617,-1.1655309200286865
1782778618274626300,0.564626220703125,0.20891591906547546,-0.41599923372268677,0.2626720666885376
1782778618284656600,0.57465673828125,-0.02932153269648552,-0.7061602473258972,1.4104878902435303
1782778618294615300,0.584615234375,-0.08918632566928864,-0.7354817390441895,2.109928607940674
1782778618304648400,0.5946484375,-0.018936822190880775,-0.4954117238521576,2.1783454418182373
1782778618314634800,0.604634765625,0.009162978269159794,0.21563543379306793,1.4074335098266602
1782778618324635000,0.614634765625,-0.14477506279945374,0.5949827432632446,0.6340781450271606
1782778618334623700,0.624623779296875,-0.27000242471694946,0.7623597979545593,-0.13439035415649414
1782778618344656100,0.63465625,-0.25045475363731384,0.6621779203414917,-0.6866125464439392
1782778618354612700,0.64461279296875,-0.1459967941045761,0.3543018400669098,-0.9260717034339905
1782778618364643000,0.65464306640625,-0.059864792972803116,0.10384709388017654,-0.9169087409973145
1782778618374632400,0.664632568359375,-0.015882495790719986,-0.06719517707824707,-0.7538077235221863
1782778618384662500,0.67466259765625,-0.06108652427792549,-0.13439035415649414,-0.5491678714752197
1782778618394621400,0.684621337890625,-0.1466076523065567,-0.07208210229873657,-0.35246923565864563
1782778618404652500,0.694652587890625,-0.2217440903186798,0.12095131725072861,-0.16432274878025055
1782778618414641000,0.704640869140625,-0.31520646810531616,0.41233405470848083,-0.019547687843441963
1782778618424640500,0.714640625,-0.4288274049758911,0.6346889734268188,0.0861319974064827
1782778618434630000,0.7246298828125,-0.5082398653030396,0.6249151229858398,0.11178833991289139
1782778618444781000,0.734781005859375,-0.5448917746543884,0.5149593949317932,0.08307767659425735
1782778618454619000,0.744618896484375,-0.485027015209198,0.4349360466003418,0.029932396486401558
1782778618464653600,0.754653564453125,-0.3640756905078888,0.45875978469848633,-0.018325956538319588
1782778618474638300,0.764638427734375,-0.23396138846874237,0.5540547966957092,0.048258353024721146
1782778618484596500,0.774596435546875,-0.08002334833145142,0.6414085030555725,0.1716531366109848
1782778618494627600,0.784627685546875,0.0354301854968071,0.6902777552604675,0.2724458873271942
1782778618504658400,0.794658447265625,0.11056660860776901,0.6878342628479004,0.3481931984424591
1782778618514206500,0.80420654296875,0.14966198801994324,0.66584312915802,0.39095374941825867
1782778618524647000,0.81464697265625,0.09529497474431992,0.6511823534965515,0.3793473243713379
1782778618534635800,0.8246357421875,0.0006108652451075613,0.6163630485534668,0.33169981837272644
1782778618544637000,0.834636962890625,-0.05864306539297104,0.5479460954666138,0.2590068578720093
1782778618554625000,0.844625,-0.08491026610136032,0.44715335965156555,0.14049901068210602
1782778618564656400,0.854656494140625,-0.10690141469240189,0.3194825351238251,0
1782778618574614000,0.864614013671875,-0.11423180252313614,0.21502456068992615,-0.14049901068210602
1782778618584644400,0.874644287109375,-0.11178833991289139,0.18814650177955627,-0.2742784917354584
1782778618594633500,0.884633544921875,-0.07819075137376785,0.2174680233001709,-0.34636059403419495
1782778618604436700,0.894436767578125,0.01710422709584236,0.36590829491615295,-0.3341432809829712
1782778618614622500,0.90462255859375,0.1062905490398407,0.494189977645874,-0.34697145223617554
1782778618624654800,0.91465478515625,0.19914206862449646,0.6096435189247131,-0.35735616087913513
1782778618634642000,0.924641845703125,0.32009339332580566,0.8185594081878662,-0.375071257352829
1782778618644642000,0.93464208984375,0.4300491213798523,1.0848966836929321,-0.3738495409488678
1782778618654631200,0.944631103515625,0.41233405470848083,1.2198978662490845,-0.34208452701568604
1782778618664661000,0.954660888671875,0.33108896017074585,1.2565498352050781,-0.27061331272125244
1782778618674620200,0.9646201171875,0.26939156651496887,1.2834278345108032,-0.18875735998153687
1782778618684650200,0.974650146484375,0.21074850857257843,1.243721604347229,-0.1319468915462494
1782778618694639600,0.9846396484375,0.21502456068992615,1.1172724962234497,-0.048258353024721146
1782778618704639200,0.99463916015625,0.2736676335334778,0.797789990901947,0.07941248267889023
1782778618714628600,1.004628662109375,0.4355469346046448,0.6029239892959595,0.28466320037841797
1782778618724660200,1.01466015625,0.5974262356758118,0.6120869517326355,0.5314527750015259
1782778618734617600,1.02461767578125,0.6988298296928406,0.6957755088806152,0.7648032903671265
1782778618744648000,1.03464794921875,0.7806857824325562,0.7721336483955383,0.8747590184211731
1782778618754637300,1.04463720703125,0.8820894360542297,0.3903428912162781,0.5845980644226074
1782778618764638000,1.054637939453125,0.9334021210670471,0.24007004499435425,0.4789183437824249
1782778618774626300,1.064626220703125,0.827111542224884,0.5229006409645081,0.8998045325279236
1782778618784657200,1.0746572265625,0.7538077235221863,0.2125810980796814,1.4129313230514526
1782778618794615300,1.084615234375,0.6224716901779175,-0.6188064813613892,1.4880677461624146
1782778618804646100,1.094646240234375,0.4282165467739105,-1.2223412990570068,1.0690141916275024
1782778618814634800,1.104634765625,0.32620203495025635,-1.6255123615264893,0.32681289315223694
1782778618824634400,1.11463427734375,0.4343251883983612,-1.5387696027755737,-0.21013765037059784
1782778618834623200,1.124623291015625,0.79840087890625,-1.1203268766403198,-0.31520646810531616
1782778618844654300,1.134654296875,0.9358455538749695,-0.5955936312675476,-0.19975294172763824
1782778618854612500,1.144612548828125,0.5791002511978149,0.2822197377681732,0.18448130786418915
1782778618864643600,1.1546435546875,0.21807889640331268,0.37629300355911255,0.5656611919403076
1782778618874631700,1.164631591796875,0.10812314599752426,-0.44287729263305664,0.6279694437980652
1782778618884662500,1.17466259765625,-0.05925392732024193,-1.376279354095459,0.4715879559516907
1782778618894620700,1.18462060546875,-0.08491026610136032,-1.8777997493743896,0.1722639948129654
1782778618904654000,1.194654052734375,-0.04459316283464432,-2.4300220012664795,-0.37079519033432007
1782778618914640400,1.204640380859375,-0.04398229718208313,-2.9553661346435547,-1.0085384845733643
1782778618924645000,1.21464501953125,-0.051312681287527084,-3.316387414932251,-1.606575608253479
1782778618934629600,1.224629638671875,-0.02626720629632473,-3.8478400707244873,-2.1649065017700195
1782778618944660200,1.23466015625,0.20525072515010834,-4.483139991760254,-2.5271494388580322
1782778618954619000,1.244618896484375,0.6927211880683899,-3.953519821166992,-2.557692766189575
1782778618964649200,1.254649169921875,0.8228355050086975,-2.7152960300445557,-2.4837779998779297
1782778618974638300,1.264638427734375,0.6664539575576782,-1.6236798763275146,-2.1117610931396484
1782778618984639000,1.274638916015625,0.11056660860776901,0.4153883755207062,-1.2608258724212646
1782778618994627600,1.284627685546875,-0.2528982162475586,1.2999212741851807,-0.22846360504627228
1782778619004659700,1.29465966796875,0.11789698898792267,0.006108652334660292,0.242513507604599
1782778619014616300,1.3046162109375,0.2981022298336029,-1.037249207496643,0.3683517575263977
1782778619024646700,1.314646728515625,0.2583959996700287,-1.3243558406829834,0.6493497490882874
1782778619034636000,1.324635986328125,0.2217440903186798,-1.1087204217910767,1.0103710889816284
1782778619044637700,1.3346376953125,0.1459967941045761,-0.8216137290000916,1.1459832191467285
1782778619054624800,1.344624755859375,-0.04153883829712868,-0.3536909818649292,1.043968677520752
1782778619064766700,1.3547666015625,-0.15271630883216858,0.0555887371301651,0.8442157506942749
1782778619074614000,1.364614013671875,-0.30054569244384766,0.3830125033855438,0.6108652353286743
1782778619084644400,1.374644287109375,-0.22357667982578278,0.5907067060470581,0.5955936312675476
1782778619094633700,1.3846337890625,-0.2968805134296417,0.8649851679801941,0.5723807215690613
1782778619104635400,1.394635498046875,-0.3439171314239502,1.1410962343215942,0.3689626157283783
1782778619114622500,1.40462255859375,-0.16371189057826996,1.1814134120941162,0.07880161702632904
1782778619124654800,1.41465478515625,-0.03481931984424591,1.1056660413742065,-0.19547687470912933
1782778619134642000,1.424641845703125,-0.02932153269648552,0.8710938692092896,-0.42760565876960754
1782778619144644000,1.43464404296875,0.012828170321881771,0.6346889734268188,-0.5161811113357544
1782778619154631000,1.444630859375,0.12461651116609573,0.5442809462547302,-0.43737950921058655
1782778619164662800,1.454662841796875,0.2822197377681732,0.7458664774894714,-0.05864306539297104
1782778619174620200,1.4646201171875,0.22907446324825287,1.0500773191452026,0.22479841113090515
1782778619184650200,1.474650146484375,0.1368338167667389,1.1380419731140137,0.3646865487098694
1782778619194639600,1.4846396484375,0.1820378452539444,1.047023057937622,0.34758231043815613
1782778619204640000,1.494639892578125,0.19792033731937408,1.004873275756836,0.24862214922904968
1782778619214707000,1.50470703125,0.16371189057826996,0.9621127843856812,0.10690141469240189
1782778619224630300,1.51463037109375,0.10384709388017654,0.921184778213501,-0.02382374368607998
1782778619234617600,1.52461767578125,0.06475171446800232,0.8918632864952087,-0.11423180252313614
1782778619244360000,1.53435986328125,0.08735372871160507,0.8729264140129089,-0.2278527319431305
1782778619254606600,1.544606689453125,0.18936823308467865,0.9053022861480713,-0.37690386176109314
1782778619264639000,1.554638916015625,0.2272418737411499,1.018923282623291,-0.5180137157440186
1782778619274626300,1.564626220703125,0.21135938167572021,1.1288789510726929,-0.5870414972305298
1782778619284656400,1.574656494140625,0.18997909128665924,1.1679743528366089,-0.5192354321479797
1782778619294723800,1.584723876953125,0.1508837193250656,1.1337659358978271,-0.35735616087913513
1782778619304645400,1.594645263671875,0.13316862285137177,1.0891727209091187,-0.19303341209888458
1782778619314634800,1.604634765625,0.1160643994808197,1.0696250200271606,-0.08918632566928864
1782778619324636700,1.61463671875,0.05192354694008827,1.014647126197815,0
1782778619334623700,1.624623779296875,-0.005497787147760391,1.0775662660598755,0.1722639948129654
1782778619344654000,1.634654052734375,0.1313360333442688,1.4300355911254883,0.4245513379573822
1782778619354612700,1.64461279296875,0.5748242139816284,1.9834794998168945,0.5503895878791809
1782778619364645000,1.65464501953125,1.2589932680130005,2.794708490371704,0.44715335965156555
1782778619374660900,1.664660888671875,1.9602665901184082,3.7116172313690186,0.22479841113090515
1782778619384664600,1.67466455078125,2.3267858028411865,4.488637924194336,0.0806342139840126
1782778619394621400,1.684621337890625,2.0512855052948,4.561941623687744,0.07696902006864548
1782778619404653800,1.69465380859375,1.3298536539077759,3.670689344406128,0.1612684279680252
1782778619414641000,1.704640869140625,0.7684684991836548,2.286468505859375,0.29016098380088806
1782778619424641300,1.714641357421875,0.4184426963329315,0.5809328556060791,0.30482175946235657
1782778619434630000,1.7246298828125,0.1667662113904953,-0.8069530129432678,0.13805554807186127
1782778619444662800,1.734662841796875,-0.015271631069481373,-2.2675318717956543,-0.44287729263305664
1782778619454619000,1.744618896484375,-0.18081611394882202,-3.9932260513305664,-1.2260065078735352
1782778619464649700,1.754649658203125,-0.16493362188339233,-5.073235988616943,-1.4856243133544922
1782778619474638300,1.764638427734375,-0.042760565876960754,-5.1410417556762695,-1.2235630750656128
1782778619484639000,1.774638916015625,-0.0659734457731247,-4.186259746551514,-0.8600982427597046
1782778619494627300,1.78462744140625,-0.1062905490398407,-2.359161615371704,-0.9089674949645996
1782778619504658400,1.794658447265625,-0.20341812074184418,-0.7434229850769043,-0.817337691783905
1782778619514616600,1.804616455078125,-0.2168571650981903,0.2993239760398865,-0.7855727076530457
1782778619524647400,1.8146474609375,-0.34025195240974426,0.8881980776786804,-0.817948579788208
1782778619534635800,1.8246357421875,-0.4502076804637909,0.7470881938934326,-0.8136724829673767
1782778619544636400,1.834636474609375,-0.5815436840057373,0.025656340643763542,-0.685390830039978
1782778619554625000,1.844625,-0.675006091594696,-0.7037167549133301,-0.5290092825889587
1782778619564656000,1.85465625,-0.8717046976089478,-1.5387696027755737,-0.588874101638794
1782778619574614000,1.864614013671875,-1.0280861854553223,-2.1093177795410156,-0.5345070958137512
1782778619584645400,1.874645263671875,-0.6676757335662842,-1.5986343622207642,0.01466076634824276
1782778619594633500,1.884633544921875,-0.34636059403419495,-0.9896016716957092,0.32681289315223694
1782778619604633900,1.8946337890625,-0.16859880089759827,-0.7837401032447815,0.5119050741195679
1782778619614622500,1.90462255859375,-0.16920967400074005,-0.9706648588180542,0.5778785347938538
1782778619624653300,1.9146533203125,-0.26511552929878235,-1.1771373748779297,0.5027421116828918
1782778619634642000,1.924641845703125,-0.29504790902137756,-1.1814134120941162,0.1411098688840866
1782778619644644000,1.93464404296875,-0.21074850857257843,-0.7580837607383728,-0.43799036741256714
1782778619654631200,1.944631103515625,-0.18509216606616974,-0.059864792972803116,-0.9993755221366882
1782778619664663600,1.95466357421875,-0.33719760179519653,0.4392121136188507,-1.330464482307434
1782778619674620200,1.9646201171875,-0.5277875661849976,0.5797111392021179,-1.1612548828125
1782778619684651500,1.974651611328125,-0.4300491213798523,0.5833762884140015,-0.394618958234787
1782778619694639600,1.9846396484375,-0.13255776464939117,0.4153883755207062,0.4593706727027893
1782778619704641500,1.9946416015625,0.059864792972803116,0.16982053220272064,1.0042624473571777
1782778619714628600,2.004628662109375,0.05925392732024193,0.08552113175392151,1.1453723907470703
1782778619724659000,2.014658935546875,0.0024434609804302454,0.22602014243602753,0.9718865752220154
1782778619734617600,2.02461767578125,-0.010995574295520782,0.4001167416572571,0.6151412725448608
1782778619744648200,2.034648193359375,-0.031154127791523933,0.5290092825889587,0.18936823308467865
1782778619754637000,2.044636962890625,-0.1160643994808197,0.5815436840057373,-0.20525072515010834
1782778619764637000,2.054636962890625,-0.25595253705978394,0.5283984541893005,-0.485027015209198
1782778619774626300,2.064626220703125,-0.3995058834552765,0.4502076804637909,-0.6921103000640869
1782778619784656400,2.074656494140625,-0.4239404797554016,0.43737950921058655,-0.8436049222946167
1782778619794615300,2.084615234375,-0.33536502718925476,0.47769662737846375,-0.901637077331543
1782778619804647700,2.094647705078125,-0.2278527319431305,0.5174028873443604,-0.8625417351722717
1782778619814635000,2.104635009765625,-0.1368338167667389,0.5534439086914062,-0.7434229850769043
1782778619824633300,2.11463330078125,-0.0555887371301651,0.5998696684837341,-0.5876523852348328
1782778619834623200,2.124623291015625,0.00366519158706069,0.6414085030555725,-0.43615779280662537
1782778619844653300,2.1346533203125,0.005497787147760391,0.6420193910598755,-0.3188716471195221
1782778619854612200,2.1446123046875,0.01771509274840355,0.6640105247497559,-0.2431243658065796
1782778619864642600,2.154642578125,0.048258353024721146,0.7263187766075134,-0.22907446324825287
1782778619874631700,2.164631591796875,0.09957103431224823,0.769079327583313,-0.23640485107898712
1782778619884664800,2.174664794921875,0.16493362188339233,0.7513642311096191,-0.21807889640331268
1782778619894186500,2.1841865234375,0.2272418737411499,0.6481280326843262,-0.1466076523065567
1782778619904663300,2.194663330078125,0.27061331272125244,0.5265658497810364,0.02871066704392433
1782778619914640400,2.204640380859375,0.27000242471694946,0.394618958234787,0.28649580478668213
1782778619924642600,2.214642578125,0.22479841113090515,0.24617868661880493,0.5461135506629944
1782778619934630000,2.2246298828125,0.14966198801994324,0.12889257073402405,0.6902777552604675
1782778619944662300,2.234662353515625,0.04948008432984352,0.04642575979232788,0.6499606370925903
1782778619954619000,2.244618896484375,-0.06230825558304787,-0.02382374368607998,0.47708576917648315
1782778619964649200,2.254649169921875,-0.15760323405265808,-0.07269296050071716,0.2773328125476837
1782778619974638300,2.264638427734375,-0.21074850857257843,-0.17104226350784302,0.13255776464939117
1782778619984638500,2.274638427734375,-0.21563543379306793,-0.3793473243713379,0.03726277872920036
1782778619994627600,2.284627685546875,-0.21624629199504852,-0.607200026512146,-0.0354301854968071
1782778620004659000,2.294658935546875,-0.12217304855585098,-1.018923282623291,-0.17043140530586243
1782778620014616300,2.3046162109375,-0.0806342139840126,-1.1563678979873657,-0.303600013256073
1782778620024646700,2.314646728515625,-0.10445795953273773,-1.1215485334396362,-0.4593706727027893
1782778620034635800,2.3246357421875,-0.1966986060142517,-0.9627236127853394,-0.5479460954666138
1782778620044636000,2.334635986328125,-0.32070425152778625,-0.759916365146637,-0.5613851547241211
1782778620054625000,2.344625,-0.3854559659957886,-0.403781920671463,-0.5265658497810364
1782778620064656100,2.35465625,-0.3433062732219696,0.0757472887635231,-0.5155702829360962
1782778620074614000,2.364614013671875,-0.22479841113090515,0.3830125033855438,-0.5387831330299377
1782778620084645400,2.374645263671875,-0.07208210229873657,0.39156460762023926,-0.5241223573684692
1782778620094633500,2.384633544921875,0.013439035043120384,0.15821409225463867,-0.3836233615875244
1782778620104634600,2.394634521484375,0.08796459436416626,0.06291911751031876,-0.060475658625364304
1782778620114622500,2.40462255859375,0.1368338167667389,0.32681289315223694,0.23273965716362
1782778620124653600,2.414653564453125,0.17898350954055786,0.6951646208763123,0.20463985204696655
1782778620134642000,2.424641845703125,0.2272418737411499,0.7220427393913269,-0.24678955972194672
1782778620144643000,2.43464306640625,0.21563543379306793,0.22663100063800812,-0.7849618196487427
1782778620154631000,2.444630859375,0.25106561183929443,-0.21135938167572021,-0.770301103591919
1782778620164662500,2.45466259765625,0.35124751925468445,-0.36163222789764404,-0.3390302062034607
1782778620174620200,2.4646201171875,0.3176499307155609,-0.3787364661693573,-0.029932396486401558
1782778620184651500,2.474651611328125,0.22113321721553802,-0.36102136969566345,-0.04337143152952194
1782778620194639600,2.4846396484375,0.10690141469240189,-0.1771509200334549,-0.1014036312699318
1782778620204640800,2.494640869140625,-0.00855211354792118,-0.0910189226269722,-0.08185594528913498
1782778620214628600,2.504628662109375,-0.08857546001672745,-0.21502456068992615,-0.08857546001672745
1782778620224660200,2.51466015625,-0.009162978269159794,-0.4538728892803192,-0.1215621829032898
1782778620234617900,2.524617919921875,0.18020524084568024,-0.7812966704368591,-0.20891591906547546
1782778620244648000,2.53464794921875,0.2125810980796814,-0.9663888216018677,-0.32620203495025635
1782778620254637000,2.544636962890625,0.0507018156349659,-0.7849618196487427,-0.4098905920982361
1782778620264637000,2.554636962890625,-0.1563815027475357,-0.5296201705932617,-0.5021312236785889
1782778620274626000,2.5646259765625,-0.22479841113090515,-0.3396410644054413,-0.4092797040939331
1782778620284657700,2.57465771484375,-0.22602014243602753,-0.23029619455337524,-0.08124507963657379
1782778620294615300,2.584615234375,-0.16493362188339233,-0.34697145223617554,0.3237585723400116
1782778620304646100,2.594646240234375,-0.07941248267889023,-0.5711590051651001,0.6133087277412415
1782778620314634800,2.604634765625,0.001832595793530345,-0.988990843296051,0.5925393104553223
1782778620324636700,2.61463671875,-0.031154127791523933,-1.4410310983657837,0.3127630054950714
1782778620334623700,2.624623779296875,-0.0959058403968811,-1.722640037536621,-0.0555887371301651
1782778620344654000,2.634654052734375,-0.05742133408784866,-1.6780468225479126,-0.33597588539123535
1782778620354612700,2.64461279296875,-0.03481931984424591,-1.1252137422561646,-0.43127086758613586
1782778620364643000,2.65464306640625,-0.14294247329235077,-0.24373523890972137,-0.38728857040405273
1782778620374632200,2.664632080078125,-0.2742784917354584,0.5283984541893005,-0.192422553896904
1782778620384662500,2.67466259765625,-0.3029891550540924,0.9437867999076843,0.06780604273080826
1782778620394621400,2.684621337890625,-0.15515977144241333,1.0366383790969849,0.34025195240974426
1782778620404651500,2.694651611328125,0.021991148591041565,0.930347740650177,0.6585127115249634
1782778620414641200,2.70464111328125,0.08307767659425735,0.7055493593215942,0.9346238374710083
1782778620424642600,2.714642578125,0.08429940044879913,0.44165557622909546,1.0115928649902344
1782778620434629600,2.724629638671875,0.10018189996480942,0.2981022298336029,0.8344419002532959
1782778620444660200,2.73466015625,0.08796459436416626,0.4056145250797272,0.5900958180427551
1782778620454619000,2.744618896484375,0.036651913076639175,0.5522221922874451,0.2541199326515198
1782778620464649200,2.754649169921875,-0.042760565876960754,0.6646214127540588,-0.1215621829032898
1782778620474638300,2.764638427734375,-0.16310101747512817,0.656680166721344,-0.44837507605552673
1782778620484640500,2.774640625,-0.27122417092323303,0.5674937963485718,-0.6823364496231079
1782778620494627600,2.784627685546875,-0.3121521472930908,0.4813618063926697,-0.7855727076530457
1782778620504659700,2.79465966796875,-0.27550023794174194,0.44776421785354614,-0.7672467231750488
1782778620514616300,2.8046162109375,-0.2076941877603531,0.47280970215797424,-0.665232241153717
1782778620524646700,2.814646728515625,-0.11667526513338089,0.5491678714752197,-0.504574716091156
1782778620534635800,2.8246357421875,0.009162978269159794,0.6701191663742065,-0.30543261766433716
1782778620544636000,2.834635986328125,0.12950342893600464,0.8100073337554932,-0.10812314599752426
1782778620554625000,2.844625,0.22968533635139465,0.93095862865448,0.0757472887635231
1782778620564655400,2.8546552734375,0.29504790902137756,1.0042624473571777,0.23579397797584534
1782778620574614000,2.864614013671875,0.34758231043815613,0.9926560521125793,0.3292563557624817
1782778620584644000,2.87464404296875,0.3897320330142975,0.9358455538749695,0.3628539443016052
1782778620594633700,2.8846337890625,0.4098905920982361,0.8283332586288452,0.3530801236629486
1782778620604563000,2.89456298828125,0.423329621553421,0.7422012686729431,0.3536909818649292
1782778620614622500,2.90462255859375,0.4440990388393402,0.6774495840072632,0.39156460762023926
1782778620624654800,2.91465478515625,0.4612032473087311,0.637132465839386,0.46853363513946533
1782778620634642000,2.924641845703125,0.4434881806373596,0.5540547966957092,0.5711590051651001
1782778620644827000,2.934826904296875,0.39706242084503174,0.4153883755207062,0.6676757335662842
1782778620654631200,2.944631103515625,0.34208452701568604,0.2773328125476837,0.7031059265136719
1782778620664661500,2.95466162109375,0.2871066629886627,0.1661553531885147,0.6646214127540588
1782778620674620200,2.9646201171875,0.20891591906547546,0.07941248267889023,0.5900958180427551
1782778620684650500,2.974650390625,0.13011430203914642,0.00366519158706069,0.4954117238521576
1782778620694639600,2.9846396484375,0.08979719132184982,-0.016493361443281174,0.3982841372489929
1782778620704639200,2.99463916015625,0.10323622822761536,0.07757988572120667,0.26939156651496887
1782778620714628900,3.00462890625,0.10995574295520782,0.2070833146572113,0.1111774742603302
1782778620724659000,3.014658935546875,0.07819075137376785,0.31459560990333557,-0.009162978269159794
1782778620734617900,3.024617919921875,0.09651670604944229,0.43188172578811646,-0.10751228034496307
1782778620744648200,3.034648193359375,0.11239920556545258,0.5180137157440186,-0.26572638750076294
1782778620754637000,3.044636962890625,0.09040805697441101,0.4996877610683441,-0.35124751925468445
1782778620764748000,3.054748046875,0.1014036312699318,0.3805690407752991,-0.3121521472930908
1782778620774626300,3.064626220703125,0.19303341209888458,0.2730567753314972,-0.27000242471694946
1782778620784658700,3.07465869140625,0.3543018400669098,0.1918116807937622,-0.33292156457901
1782778620794615300,3.084615234375,0.5064072608947754,0.07635815441608429,-0.4691445231437683
1782778620804647000,3.09464697265625,0.6224716901779175,0.033597588539123535,-0.607200026512146
1782778620814635000,3.104635009765625,0.6988298296928406,0.10445795953273773,-0.6194173693656921
1782778620824633600,3.114633544921875,0.7910705208778381,0.2822197377681732,-0.4440990388393402
1782778620834623500,3.12462353515625,0.9572258591651917,0.5400048494338989,-0.22968533635139465
1782778620844653800,3.13465380859375,1.1459832191467285,0.5858197808265686,-0.21013765037059784
1782778620854612200,3.1446123046875,1.2150110006332397,-0.07880161702632904,-0.40133845806121826
1782778620864643600,3.1546435546875,1.215621829032898,-0.6688974499702454,-0.40194934606552124
1782778620874631700,3.164631591796875,1.0250319242477417,-1.3231340646743774,-0.6542366743087769
1782778620884662000,3.174662109375,0.5564982295036316,-2.0109684467315674,-1.3267992734909058
1782778620894621000,3.184620849609375,-0.07024950534105301,-2.394591808319092,-2.0170769691467285
1782778620904652500,3.194652587890625,-0.5167919993400574,-1.8600846529006958,-2.102598190307617
1782778620914640400,3.204640380859375,-0.41233405470848083,-0.8503243923187256,-1.6401731967926025
1782778620924642000,3.21464208984375,0.07880161702632904,0.12339477986097336,-0.8106181621551514
1782778620934629600,3.224629638671875,0.4795292317867279,0.42577308416366577,-0.12095131725072861
1782778620944661500,3.23466162109375,0.5406157374382019,0.17043140530586243,0.323147714138031
1782778620954619000,3.244618896484375,0.29504790902137756,-0.34636059403419495,0.5998696684837341
1782778620964650200,3.254650146484375,0.004886921960860491,-0.930347740650177,0.8136724829673767
1782778620974638300,3.264638427734375,-0.19486601650714874,-1.2394455671310425,0.9004153609275818
1782778620984638000,3.274637939453125,-0.31459560990333557,-1.1184942722320557,0.7605272531509399
1782778620994627300,3.28462744140625,-0.4190535545349121,-0.5955936312675476,0.39217549562454224
1782778621004657700,3.29465771484375,-0.504574716091156,-0.09162978827953339,-0.06352998316287994
1782778621014616800,3.304616943359375,-0.6010913848876953,0.1258382350206375,-0.24007004499435425
1782778621024648200,3.314648193359375,-0.6426302194595337,-0.0006108652451075613,0.012217304669320583
1782778621034635800,3.3246357421875,-0.5595525503158569,-0.24678955972194672,0.5913175344467163
1782778621044636000,3.334635986328125,-0.3842342495918274,-0.37751471996307373,1.2760975360870361
1782778621054625000,3.344625,-0.23884831368923187,-0.3695734739303589,1.7544050216674805
1782778621064657400,3.354657470703125,-0.11362093687057495,-0.24923302233219147,2.012800931930542
1782778621074614000,3.364614013671875,-0.03237585723400116,0.0012217304902151227,1.9480493068695068
1782778621084645400,3.374645263671875,-0.018325956538319588,0.38667771220207214,1.5399912595748901
1782778621094633500,3.384633544921875,-0.04153883829712868,0.7055493593215942,1.1087204217910767
1782778621104633300,3.39463330078125,-0.1007927656173706,0.8100073337554932,0.930347740650177
1782778621114622500,3.40462255859375,-0.1313360333442688,0.6206390857696533,0.9046914577484131
1782778621124652800,3.41465283203125,-0.11667526513338089,0.4306600093841553,0.9181304574012756
1782778621134642000,3.424641845703125,-0.07819075137376785,0.40622538328170776,0.9156870245933533
1782778621144642000,3.43464208984375,-0.06902777403593063,0.413555771112442,0.7825183868408203
1782778621154631000,3.444630859375,-0.0659734457731247,0.3597996234893799,0.5082398653030396
1782778621164661500,3.45466162109375,-0.039706241339445114,0.313373863697052,0.17776179313659668
1782778621174620200,3.4646201171875,-0.0507018156349659,0.21563543379306793,-0.1612684279680252
1782778621184652800,3.47465283203125,-0.1007927656173706,0.16249015927314758,-0.40194934606552124
1782778621194640000,3.484639892578125,-0.11239920556545258,0.20586158335208893,-0.5308418869972229
1782778621204639200,3.49463916015625,-0.09224065393209457,0.2021963894367218,-0.5943718552589417
1782778621214628600,3.504628662109375,-0.028099801391363144,0.1362229436635971,-0.5455026626586914
1782778621224661000,3.514660888671875,0.07757988572120667,0.06230825558304787,-0.3897320330142975
1782778621234617600,3.52461767578125,0.21868975460529327,0.04886921867728233,-0.19486601650714874
1782778621244649500,3.5346494140625,0.3543018400669098,0.11239920556545258,-0.00733038317412138
1782778621254637000,3.544636962890625,0.4239404797554016,0.22540926933288574,0.12339477986097336
1782778621264639200,3.55463916015625,0.3744603991508484,0.35613444447517395,0.20830504596233368
1782778621274626000,3.5646259765625,0.29077184200286865,0.4098905920982361,0.252287358045578
1782778621284658700,3.57465869140625,0.22602014243602753,0.2871066629886627,0.34758231043815613
1782778621294615300,3.584615234375,0.18631389737129211,0.16432274878025055,0.45326200127601624
1782778621304615200,3.594615234375,0.12461651116609573,0.05497787147760391,0.5619960427284241
1782778621314615000,3.604614990234375,0.01160643994808197,0.0006108652451075613,0.6450737118721008
1782778621324636400,3.614636474609375,-0.1111774742603302,-0.01160643994808197,0.6676757335662842
1782778621334583600,3.62458349609375,-0.2174680233001709,-0.028099801391363144,0.646906316280365
1782778621345570000,3.635570068359375,-0.2871066629886627,-0.04764748737215996,0.6285803318023682
1782778621364645000,3.65464501953125,-0.40622538328170776,-0.2028072625398636,0.5516113042831421
1782778621374657300,3.6646572265625,-0.47342056035995483,-0.2822197377681732,0.4954117238521576
1782778621384673000,3.674673095703125,-0.4911356568336487,-0.26145032048225403,0.44837507605552673
1782778621394621400,3.684621337890625,-0.6414085030555725,0.11484266817569733,0.303600013256073
1782778621404654000,3.694654052734375,-0.6426302194595337,0.27061331272125244,0.30054569244384766
1782778621414749400,3.70474951171875,-0.5271766781806946,0.23518311977386475,0.4184426963329315
1782778621424644900,3.714644775390625,-0.41599923372268677,0.21441370248794556,0.5393940210342407
1782778621434630100,3.724630126953125,-0.38240164518356323,0.1869247704744339,0.607810914516449
1782778621444649700,3.734649658203125,-0.41599923372268677,0.152105450630188,0.6670648455619812
1782778621454619000,3.744618896484375,-0.4306600093841553,0.17898350954055786,0.7580837607383728
1782778621464651300,3.7546513671875,-0.403781920671463,0.19486601650714874,0.8643743395805359
1782778621474638600,3.764638671875,-0.3488040566444397,0.18509216606616974,0.9816604256629944
1782778621484638000,3.774637939453125,-0.2742784917354584,0.182648703455925,1.0555751323699951
1782778621494627600,3.784627685546875,-0.17959438264369965,0.31031954288482666,1.0555751323699951
1782778621504657700,3.79465771484375,-0.04703662544488907,0.3481931984424591,0.9621127843856812
1782778621514616300,3.8046162109375,0.242513507604599,-0.13377949595451355,0.8448266386985779
1782778621524648700,3.814648681640625,0.6200281977653503,-0.7489207983016968,0.7043276429176331
1782778621534635800,3.8246357421875,0.9181304574012756,-1.2522737979888916,0.4905247986316681
1782778621544638500,3.834638427734375,1.0971139669418335,-1.5375478267669678,0.3066543638706207
1782778621564657700,3.85465771484375,0.4758640229701996,-0.07635815441608429,-0.47708576917648315
1782778621574614000,3.864614013671875,0.06780604273080826,0.27488934993743896,-0.9169087409973145
1782778621584644000,3.87464404296875,-0.0507018156349659,-0.26939156651496887,-1.4110987186431885
1782778621594633500,3.884633544921875,-0.1472185254096985,-1.0793988704681396,-2.241264581680298
1782778621604633000,3.894633056640625,-0.3634648323059082,-0.7855727076530457,-2.842355966567993
1782778621614622500,3.90462255859375,-0.4954117238521576,-0.10384709388017654,-2.7953193187713623
1782778621624654000,3.914654052734375,-0.3396410644054413,0.837496280670166,-2.0195205211639404
1782778621634642000,3.924641845703125,0.2119702398777008,1.397048830986023,-0.8203920125961304
1782778621644642600,3.934642578125,0.8155050873756409,1.1679743528366089,0.2119702398777008
1782778621654631200,3.944631103515625,1.1264355182647705,0.30970868468284607,0.8668177723884583
1782778621664664300,3.954664306640625,1.0604621171951294,-1.156978726387024,1.1496484279632568
1782778621674620200,3.9646201171875,0.626747727394104,-2.9987375736236572,1.027475357055664
1782778621684650200,3.974650146484375,0.20525072515010834,-4.198476791381836,0.6896668672561646
1782778621694639600,3.9846396484375,-0.07696902006864548,-4.392121315002441,0.11301007121801376
1782778621705494300,3.995494384765625,-0.4398229718208313,-2.0622811317443848,-1.6420058012008667
1782778621724659000,4.014658935546875,-1.3811663389205933,-0.33292156457901,-3.4104607105255127
1782778621734617900,4.024617919921875,-1.7409659624099731,0.3530801236629486,-3.98895001411438
1782778621744649500,4.0346494140625,-1.8887953758239746,1.2040153741836548,-4.318817138671875
1782778621754637000,4.044636962890625,-1.701259732246399,2.2235496044158936,-4.522846221923828
1782778621764637700,4.0546376953125,-1.4184291362762451,2.4440717697143555,-4.505131244659424
1782778621774626300,4.064626220703125,-1.0641272068023682,1.4746286869049072,-4.368297576904297
1782778621784656400,4.074656494140625,-0.6298020482063293,-0.05497787147760391,-4.130059719085693
1782778621794615300,4.084615234375,-0.1508837193250656,-0.7012733221054077,-3.570507287979126
1782778621804647000,4.09464697265625,0.32559117674827576,-0.3488040566444397,-2.6896395683288574
1782778621814635000,4.104635009765625,0.7568620443344116,0.23396138846874237,-1.660942554473877
1782778621824633600,4.114633544921875,1.0458012819290161,0.788016140460968,-0.5729916095733643
1782778621834623200,4.124623291015625,0.9871582388877869,1.470963478088379,0.4813618063926697
1782778621844656000,4.13465625,0.43799036741256714,1.6969836950302124,1.2657127380371094
1782778621854612500,4.144612548828125,-0.18570303916931152,1.2577714920043945,1.635897159576416
1782778621864642300,4.154642333984375,-0.40072759985923767,0.6359107494354248,1.8112154006958008
1782778621874632000,4.1646318359375,-0.42577308416366577,0.15821409225463867,1.9407188892364502
1782778621884664300,4.174664306640625,-0.44654250144958496,-0.0006108652451075613,1.9462167024612427
1782778621894620700,4.18462060546875,-0.39095374941825867,-0.12095131725072861,1.8368717432022095
1782778621904653300,4.1946533203125,-0.17898350954055786,-0.1661553531885147,1.6505578756332397
1782778621914640400,4.204640380859375,0.09468411654233932,-0.005497787147760391,1.4489723443984985
1782778621924642000,4.21464208984375,0.27977627515792847,0.26022860407829285,1.2736539840698242
1782778621934630000,4.2246298828125,0.35674530267715454,0.6230825781822205,1.1246029138565063
1782778621944661500,4.23466162109375,0.4098905920982361,0.9957103729248047,1.0140362977981567
1782778621954619000,4.244618896484375,0.42760565876960754,1.2198978662490845,0.9847147464752197
1782778621964649500,4.2546494140625,0.4337143301963806,1.2516628503799438,1.0714576244354248
1782778621974638600,4.264638671875,0.3897320330142975,1.3096951246261597,1.2760975360870361
1782778621984638200,4.27463818359375,0.3017674386501312,1.5375478267669678,1.5424346923828125
1782778621994627600,4.284627685546875,0.2938261926174164,1.6969836950302124,1.7812830209732056
1782778622004660000,4.294659912109375,0.3952298164367676,1.7831156253814697,1.9602665901184082
1782778622014616300,4.3046162109375,0.616973876953125,1.9040669202804565,2.10809588432312
1782778622024648700,4.314648681640625,0.8967501521110535,2.03540301322937,2.314568519592285
1782778622034635800,4.3246357421875,1.215621829032898,2.1429152488708496,2.4996604919433594
1782778622044638000,4.334637939453125,1.5888605117797852,2.0219640731811523,2.56257963180542
1782778622054625000,4.344625,1.9706512689590454,1.7873916625976562,2.4361305236816406
1782778622064655400,4.3546552734375,2.216830015182495,1.8777997493743896,2.0476202964782715
1782778622074614000,4.364614013671875,2.3408355712890625,2.596177339553833,1.3506230115890503
1782778622084646400,4.374646484375,2.3206770420074463,2.858238458633423,0.9150761365890503
1782778622094633500,4.384633544921875,2.1282544136047363,2.7140743732452393,0.6646214127540588
1782778622104633000,4.394633056640625,1.7806721925735474,2.291966438293457,0.5271766781806946
1782778622114622500,4.40462255859375,1.463022232055664,1.6578882932662964,0.5064072608947754
1782778622124652800,4.41465283203125,1.1704177856445312,1.1985175609588623,0.7312057018280029
1782778622134642000,4.424641845703125,0.7916813492774963,1.1655309200286865,0.9560040831565857
1782778622144641800,4.434641845703125,0.29077184200286865,0.6829473376274109,1.1899654865264893
1782778622154631200,4.444631103515625,-0.3084869384765625,-0.3390302062034607,1.3530665636062622
1782778622164663600,4.45466357421875,-0.8930850028991699,-1.6676621437072754,1.4862351417541504
1782778622174620200,4.4646201171875,-1.3280210494995117,-2.75500226020813,1.6090190410614014
1782778622184650200,4.474650146484375,-1.4813482761383057,-3.519805431365967,1.7757853269577026
1782778622194639600,4.4846396484375,-1.2003501653671265,-3.3396003246307373,1.9834794998168945
1782778622204639500,4.494639404296875,-0.3689626157283783,-1.0366383790969849,2.166738986968994
1782778622214628600,4.504628662109375,0.3494149148464203,0.8949176073074341,2.2925772666931152
1782778622224659000,4.514658935546875,0.5937610268592834,1.0604621171951294,2.0616703033447266
1782778622234617600,4.52461767578125,0.6933320760726929,1.2919800281524658,1.8417587280273438
1782778622244650000,4.53464990234375,0.7916813492774963,1.3170254230499268,1.6096298694610596
1782778622254637000,4.544636962890625,0.8051204085350037,0.8491026759147644,1.188132882118225
1782778622264637000,4.554636962890625,0.5082398653030396,0.2834414839744568,0.48319441080093384
1782778622284656400,4.574656494140625,-0.7006624341011047,0.5100724697113037,-1.4110987186431885
1782778622294615300,4.584615234375,-1.3658946752548218,0.3543018400669098,-2.375654935836792
1782778622304646100,4.594646240234375,-1.768454909324646,-0.45326200127601624,-3.1758882999420166
1782778622314635000,4.604635009765625,-1.8582520484924316,-0.978606104850769,-3.935804843902588
1782778622324637400,4.614637451171875,-1.6218472719192505,-1.7049249410629272,-4.1612138748168945
1782778622334623700,4.624623779296875,-1.4257594347000122,-2.41413950920105,-3.8001925945281982
1782778622344655400,4.6346552734375,-1.5289957523345947,-2.838690757751465,-3.138014793395996
1782778622354612700,4.64461279296875,-1.4037683010101318,-2.1673498153686523,-2.2937989234924316
1782778622364644400,4.654644287109375,-1.1087204217910767,-1.1612548828125,-1.642616629600525
1782778622374632200,4.664632080078125,-0.9676105380058289,-0.9395107626914978,-1.6120734214782715
1782778622384662500,4.67466259765625,-0.8729264140129089,-1.7544050216674805,-2.1697933673858643
1782778622394621400,4.684621337890625,-0.6713408827781677,-2.917492389678955,-2.7904324531555176
1782778622404652800,4.69465283203125,-0.42638394236564636,-3.3878586292266846,-3.0500502586364746
1782778622414641000,4.704640869140625,-0.30604347586631775,-2.981633186340332,-2.899777412414551
1782778622424640800,4.714640869140625,-0.6059783101081848,-2.2174408435821533,-2.5082128047943115
1782778622434630000,4.7246298828125,-1.0812314748764038,-1.6047430038452148,-2.1429152488708496
1782778622444661500,4.73466162109375,-1.387274980545044,-1.3457361459732056,-1.8808541297912598
1782778622454619100,4.744619140625,-1.38849675655365,-1.2455542087554932,-1.5528194904327393
1782778622464649200,4.754649169921875,-1.2522737979888916,-1.4104878902435303,-1.1264355182647705
1782778622474638300,4.764638427734375,-1.0922271013259888,-1.6670511960983276,-0.6969972252845764
1782778622484638200,4.77463818359375,-0.8539896011352539,-1.9834794998168945,-0.3597996234893799
1782778622494627600,4.784627685546875,-0.47830748558044434,-2.1343631744384766,-0.11423180252313614
1782778622504657700,4.79465771484375,0.05497787147760391,-1.8570303916931152,0.06108652427792549
1782778622514616600,4.804616455078125,0.48808133602142334,-1.0739010572433472,0.18814650177955627
1782778622524646700,4.814646728515625,0.5900958180427551,-0.02932153269648552,0.22357667982578278
1782778622534635800,4.8246357421875,0.4440990388393402,0.7959573864936829,0.1313360333442688
1782778622544636000,4.834635986328125,0.11056660860776901,1.3048081398010254,-0.015882495790719986
1782778622554625000,4.844625,-0.39706242084503174,1.1527026891708374,-0.1661553531885147
1782778622564655600,4.854655517578125,-0.5723807215690613,0.618195652961731,-0.11789698898792267
1782778622574614000,4.864614013671875,-0.5296201705932617,0.18997909128665924,0.11850785464048386
1782778622584646700,4.874646728515625,-0.38606682419776917,-0.03848451003432274,0.38728857040405273
1782778622594657500,4.884657470703125,-0.13316862285137177,-0.11667526513338089,0.4996877610683441
1782778622604659700,4.89465966796875,0.19364428520202637,0.1313360333442688,0.4355469346046448
1782778622614646800,4.904646728515625,0.42271876335144043,0.5510004758834839,0.35124751925468445
1782778622624679000,4.914678955078125,0.44593164324760437,0.9126327037811279,0.2785545587539673
1782778622634666500,4.92466650390625,0.2785545587539673,1.0824532508850098,0.19364428520202637
1782778622644665900,4.934665771484375,0.06902777403593063,1.0684033632278442,0.10323622822761536
1782778622654655200,4.9446552734375,-0.10384709388017654,0.931569516658783,-0.003054326167330146
1782778622664687600,4.9546875,-0.32070425152778625,0.7104362845420837,-0.10445795953273773
1782778622674644200,4.964644287109375,-0.4331034719944,0.5571091175079346,-0.12095131725072861
1782778622684674800,4.9746748046875,-0.38179078698158264,0.5564982295036316,-0.00855211354792118
1782778622694664000,4.984663818359375,-0.20402899384498596,0.7226535677909851,0.26939156651496887
1782778622704663600,4.99466357421875,0.030543262138962746,0.9101892113685608,0.5900958180427551
1782778622714653000,5.00465283203125,0.24190263450145721,0.9553932547569275,0.8124507665634155
1782778622724685300,5.014685302734375,0.34025195240974426,0.8607091307640076,0.8497135639190674
1782778622734642000,5.024641845703125,0.2718350291252136,0.7525860071182251,0.7476990818977356
1782778622744674300,5.03467431640625,0.09773843735456467,0.6401867866516113,0.6352998614311218
1782778622754661400,5.044661376953125,-0.14355333149433136,0.5833762884140015,0.6017022728919983
1782778622764662500,5.05466259765625,-0.28649580478668213,0.5827654600143433,0.656680166721344
1782778622774650400,5.064650390625,-0.2541199326515198,0.6114761233329773,0.7397578358650208
1782778622784682800,5.074682861328125,-0.11423180252313614,0.6401867866516113,0.7867944240570068
1782778622794639400,5.084639404296875,0.02626720629632473,0.6646214127540588,0.7898487448692322
1782778622804670700,5.094670654296875,0.15515977144241333,0.8668177723884583,0.8148942589759827
1782778622814659000,5.1046591796875,0.2119702398777008,1.1832460165023804,0.8619308471679688
1782778622824658400,5.114658447265625,0.1368338167667389,1.2712105512619019,0.9199630618095398
1782778622834647300,5.124647216796875,0.015271631069481373,1.062294602394104,1.018923282623291
1782778622844679000,5.134678955078125,-0.0555887371301651,0.6414085030555725,1.0867292881011963
1782778622854636300,5.14463623046875,-0.025045474991202354,0.08918632566928864,1.0641272068023682
1782778622864667400,5.15466748046875,0.018936822190880775,-0.304210901260376,1.0598511695861816
1782778622874656000,5.164656005859375,0.0024434609804302454,-0.5241223573684692,1.166752576828003
1782778622884686800,5.174686767578125,0.0806342139840126,-0.4251621961593628,1.4282029867172241
1782778622894645000,5.18464501953125,0.13439035415649414,-0.06780604273080826,1.652390480041504
1782778622904675800,5.19467578125,0.1007927656173706,0.18997909128665924,1.645671010017395
1782778622924665600,5.21466552734375,-0.10384709388017654,0.6395758986473083,1.0879509449005127
1782778622934654200,5.224654296875,-0.10323622822761536,0.6163630485534668,0.6188064813613892
1782778622944684800,5.234684814453125,-0.07880161702632904,0.3805690407752991,0.07024950534105301
1782778622954643000,5.244642822265625,-0.11239920556545258,-0.045204028487205505,-0.4202753007411957
1782778622964674000,5.254674072265625,-0.09346238523721695,-0.36163222789764404,-0.5839871764183044
1782778622974662400,5.264662353515625,0.1411098688840866,-0.8045095205307007,-0.5283984541893005
1782778622984663000,5.2746630859375,0.15393804013729095,-1.0592403411865234,-0.5369505286216736
1782778622994651600,5.284651611328125,-0.012828170321881771,-1.0855075120925903,-0.7263187766075134
1782778623004682500,5.2946826171875,-0.39645153284072876,-1.2113457918167114,-0.9382890462875366
1782778623014640600,5.304640625,-0.7092145681381226,-1.2272282838821411,-0.7965682744979858
1782778623024671700,5.314671630859375,-0.7263187766075134,-1.0598511695861816,-0.5155702829360962
1782778623034660000,5.32466015625,-0.5558874011039734,-0.9663888216018677,-0.3439171314239502
1782778623044660700,5.33466064453125,-0.3585779070854187,-1.0042624473571777,-0.3194825351238251
1782778623054649000,5.344649169921875,-0.2076941877603531,-1.0500773191452026,-0.5192354321479797
1782778623064680000,5.354679931640625,-0.13072516024112701,-1.0476338863372803,-0.8295549750328064
1782778623074638000,5.36463818359375,-0.1417207419872284,-0.969443142414093,-1.0891727209091187
1782778623084669700,5.374669677734375,-0.1569923609495163,-0.8784242272377014,-1.2101240158081055
1782778623094657800,5.38465771484375,-0.1258382350206375,-0.816726803779602,-1.0800096988677979
1782778623104658700,5.39465869140625,-0.012217304669320583,-0.6585127115249634,-0.788627028465271
1782778623114646800,5.404646728515625,0.18936823308467865,-0.3793473243713379,-0.5106833577156067
1782778623124678100,5.41467822265625,0.36713001132011414,-0.036651913076639175,-0.33536502718925476
1782778623134666200,5.424666259765625,0.4129449129104614,0.3280346393585205,-0.2877175211906433
1782778623144667400,5.43466748046875,0.3384193480014801,0.5375614166259766,-0.3677408695220947
1782778623154655200,5.4446552734375,0.313373863697052,0.49357911944389343,-0.4605923891067505
1782778623164686300,5.454686279296875,0.33047810196876526,0.35246923565864563,-0.42149701714515686
1782778623174644200,5.464644287109375,0.27122417092323303,0.375071257352829,-0.24373523890972137
1782778623184675000,5.474675048828125,0.152105450630188,0.45326200127601624,-0.039095375686883926
1782778623194663700,5.48466357421875,0.13316862285137177,0.46303585171699524,0.1508837193250656
1782778623204665900,5.494665771484375,0.18631389737129211,0.3988949954509735,0.29138273000717163
1782778623214761200,5.50476123046875,0.2431243658065796,0.3084869384765625,0.2981022298336029
1782778623224654800,5.51465478515625,0.2840523421764374,0.24129177629947662,0.13316862285137177
1782778623234642000,5.524641845703125,0.2926044464111328,0.2223549485206604,-0.10995574295520782
1782778623244658700,5.53465869140625,0.27122417092323303,0.2076941877603531,-0.34208452701568604
1782778623254631000,5.544630859375,0.2376265823841095,0.15393804013729095,-0.5161811113357544
1782778623264661000,5.554660888671875,0.21013765037059784,0.09957103431224823,-0.5833762884140015
1782778623274650000,5.564650146484375,0.2125810980796814,0.03176499158143997,-0.5180137157440186
1782778623284680700,5.5746806640625,0.242513507604599,-0.029932396486401558,-0.35124751925468445
1782778623294639400,5.584639404296875,0.3090978264808655,-0.06536258012056351,-0.16432274878025055
1782778623304608800,5.59460888671875,0.375071257352829,-0.039095375686883926,-0.01466076634824276
1782778623314720000,5.604719970703125,0.3530801236629486,0.04642575979232788,0.03298672288656235
1782778623324659000,5.614658935546875,0.2638937830924988,0.12400564551353455,0.00855211354792118
1782778623334607600,5.624607666015625,0.1966986060142517,0.20891591906547546,0.02076941914856434
1782778623345471700,5.6354716796875,0.25106561183929443,0.4331034719944,0.14233160018920898
1782778623364667100,5.654667236328125,0.4086688458919525,0.5479460954666138,0.304210901260376
1782778623374393300,5.664393310546875,0.47219884395599365,0.47219884395599365,0.4086688458919525
1782778623384659000,5.674658935546875,0.4746423065662384,0.323147714138031,0.4550946056842804
1782778623394605300,5.684605224609375,0.46670106053352356,0.20830504596233368,0.40072759985923767
1782778623404739000,5.694739013671875,0.46364670991897583,0.29993483424186707,0.33047810196876526
1782778623414665000,5.7046650390625,0.44593164324760437,0.4966334402561188,0.28099802136421204
1782778623424664800,5.714664794921875,0.4086688458919525,0.6615670323371887,0.31031954288482666
1782778623434654200,5.724654296875,0.38606682419776917,0.8106181621551514,0.3799581825733185
1782778623444685000,5.73468505859375,0.3897320330142975,0.8014551997184753,0.4092797040939331
1782778623454643000,5.744642822265625,0.37568211555480957,0.5577199459075928,0.3903428912162781
1782778623464675300,5.75467529296875,0.2541199326515198,0.2174680233001709,0.31581732630729675
1782778623474662700,5.76466259765625,0.0959058403968811,-0.09224065393209457,0.21991148591041565
1782778623484663000,5.7746630859375,0.04581489413976669,-0.27122417092323303,0.17287486791610718
1782778623494651600,5.784651611328125,0.06475171446800232,-0.3854559659957886,0.18814650177955627
1782778623504683000,5.79468310546875,0.08796459436416626,-0.5546656250953674,0.2168571650981903
1782778623514640600,5.804640625,0.13072516024112701,-0.6597344875335693,0.31093040108680725
1782778623524672000,5.814672119140625,0.16859880089759827,-0.5827654600143433,0.43127086758613586
1782778623534660000,5.82466015625,0.1869247704744339,-0.33536502718925476,0.608421802520752
1782778623544660500,5.834660400390625,0.1618792861700058,-0.03481931984424591,0.7971791625022888
1782778623564680200,5.85468017578125,0.04581489413976669,-0.0024434609804302454,0.6670648455619812
1782778623574638000,5.86463818359375,-0.05192354694008827,0.059864792972803116,0.45692721009254456
1782778623584669200,5.874669189453125,-0.11911872029304504,0.015882495790719986,0.2828305959701538
1782778623594657800,5.88465771484375,-0.060475658625364304,0.022602014243602753,0.22846360504627228
1782778623604658200,5.894658203125,-0.029932396486401558,0.05375614017248154,0.11850785464048386
1782778623614646800,5.904646728515625,-0.1814269721508026,0.09407325088977814,-0.26939156651496887
1782778623624677600,5.914677734375,-0.37751471996307373,0.01710422709584236,-0.8118399381637573
1782778623634666200,5.924666259765625,-0.5821545720100403,-0.18936823308467865,-1.3817771673202515
1782778623644667000,5.9346669921875,-0.7159340381622314,-0.40072759985923767,-1.7818939685821533
1782778623654655200,5.9446552734375,-0.8607091307640076,-0.694553792476654,-1.8680258989334106
1782778623664686800,5.954686767578125,-0.9437867999076843,-1.120937705039978,-1.7159204483032227
1782778623674644200,5.964644287109375,-0.7965682744979858,-1.3701707124710083,-1.3225232362747192
1782778623684675800,5.97467578125,-0.4502076804637909,-1.4398094415664673,-0.7287622094154358
1782778623694664000,5.984663818359375,-0.08796459436416626,-1.3524556159973145,0.024434609338641167
1782778623704633000,5.994633056640625,0.08491026610136032,-1.1948524713516235,0.7348709106445312
1782778623714713900,6.0047138671875,-0.025656340643763542,-0.8130616545677185,1.151481032371521
1782778623724683000,6.01468310546875,-0.30970868468284607,-0.3384193480014801,1.19607412815094
1782778623734601500,6.0246015625,-0.5271766781806946,-0.06230825558304787,0.9480628371238708
1782778623745435100,6.03543505859375,-0.7965682744979858,-0.06841690838336945,0.34147366881370544
1782778623764663300,6.054663330078125,-0.6725626587867737,-0.43799036741256714,-0.04764748737215996
1782778623774650400,6.064650390625,-0.4691445231437683,-0.6676757335662842,-0.25534167885780334
1782778623784680700,6.0746806640625,-0.2681698501110077,-0.6151412725448608,-0.45265114307403564
1782778623794639400,6.084639404296875,0.004886921960860491,-0.3023782968521118,-0.5491678714752197
1782778623804669700,6.094669677734375,0.29138273000717163,0.1014036312699318,-0.5302310585975647
1782778623814659000,6.1046591796875,0.5015203952789307,0.4917465150356293,-0.38728857040405273
1782778623824658700,6.11465869140625,0.5516113042831421,0.750142514705658,-0.04642575979232788
1782778623834647300,6.124647216796875,0.5064072608947754,0.7116580009460449,0.1869247704744339
1782778623844680000,6.134679931640625,0.48747047781944275,0.6591235995292664,0.40072759985923767
1782778623854636300,6.14463623046875,0.49785518646240234,0.5815436840057373,0.5711590051651001
1782778623864669400,6.15466943359375,0.44776421785354614,0.5082398653030396,0.66584312915802
1782778623874656000,6.164656005859375,0.40683624148368835,0.48380526900291443,0.665232241153717
1782778623884686800,6.174686767578125,0.41661009192466736,0.5149593949317932,0.5876523852348328
1782778623894645000,6.18464501953125,0.45326200127601624,0.5259549617767334,0.4648684561252594
1782778623904675800,6.19467578125,0.45204028487205505,0.48747047781944275,0.3078760802745819
1782778623914664400,6.20466455078125,0.394008070230484,0.423329621553421,0.13561208546161652
1782778623924665600,6.21466552734375,0.3274237811565399,0.294437050819397,-0.02321287989616394
1782778623934654000,6.224654052734375,0.2791654169559479,0.19975294172763824,-0.09285151958465576
1782778623944686600,6.2346865234375,0.23273965716362,0.1264491081237793,-0.04459316283464432
1782778623954751700,6.244751708984375,0.1722639948129654,0.03176499158143997,0.0555887371301651
1782778623964673500,6.254673583984375,0.13988813757896423,-0.09712757170200348,0.14477506279945374
1782778623974662400,6.264662353515625,0.15760323405265808,-0.15332718193531036,0.20525072515010834
1782778623984666400,6.274666259765625,0.18814650177955627,-0.10506882518529892,0.2376265823841095
1782778623994651400,6.2846513671875,0.2119702398777008,0.03481931984424591,0.24373523890972137
1782778624004455400,6.294455322265625,0.23396138846874237,0.1820378452539444,0.23884831368923187
1782778624014640600,6.304640625,0.21868975460529327,0.20097467303276062,0.1966986060142517
1782778624024673000,6.314673095703125,0.18997909128665924,0.08552113175392151,0.1618792861700058
1782778624034660000,6.32466015625,0.192422553896904,-0.018936822190880775,0.19914206862449646
1782778624044721000,6.334720947265625,0.24617868661880493,-0.06169738993048668,0.31642818450927734
1782778624054757400,6.34475732421875,0.3243694305419922,-0.06169738993048668,0.4184426963329315
1782778624064649500,6.3546494140625,0.33475416898727417,-0.012828170321881771,0.37568211555480957
1782778624074638000,6.36463818359375,0.30543261766433716,0.06169738993048668,0.18570303916931152
1782778624084748500,6.37474853515625,0.26939156651496887,0.15515977144241333,-0.030543262138962746
1782778624094627000,6.384626953125,0.23029619455337524,0.22602014243602753,-0.12522737681865692
1782778624104657400,6.394657470703125,0.2535090744495392,0.2724458873271942,-0.04214970022439957
1782778624114646500,6.404646484375,0.2871066629886627,0.31154128909111023,0.12461651116609573
1782778624124268000,6.41426806640625,0.2773328125476837,0.32986724376678467,0.24129177629947662
1782778624134666500,6.42466650390625,0.23335053026676178,0.3793473243713379,0.2571742534637451
1782778624144676000,6.434676025390625,0.16859880089759827,0.37568211555480957,0.2028072625398636
1782778624154655200,6.4446552734375,0.152105450630188,0.20525072515010834,0.1508837193250656
1782778624164686800,6.454686767578125,0.23457226157188416,-0.05192354694008827,0.2321287989616394
1782778624174644200,6.464644287109375,0.3194825351238251,-0.252287358045578,0.48380526900291443
1782778624184675800,6.47467578125,0.3078760802745819,-0.43676865100860596,0.7159340381622314
1782778624204664300,6.494664306640625,0.2926044464111328,-0.32986724376678467,0.7623597979545593
1782778624214653000,6.50465283203125,0.34758231043815613,-0.19975294172763824,0.4789183437824249
1782778624224683800,6.514683837890625,0.3530801236629486,-0.0910189226269722,0.20891591906547546
1782778624234642000,6.524641845703125,0.34513887763023376,0.006108652334660292,0.14355333149433136
1782778624244673000,6.534673095703125,0.26939156651496887,-0.03237585723400116,0.5381723046302795
1782778624254661400,6.544661376953125,0.19975294172763824,-0.27977627515792847,0.7660250067710876
1782778624264661800,6.554661865234375,0.13011430203914642,-0.5699372887611389,0.6377432942390442
1782778624274650000,6.564650146484375,-0.04886921867728233,-0.8142833709716797,0.0555887371301651
1782778624284681500,6.574681396484375,-0.3219259977340698,-0.807563841342926,-0.6951646208763123
1782778624294639400,6.584639404296875,-0.45692721009254456,-0.6426302194595337,-1.3145819902420044
1782778624304670200,6.594670166015625,-0.3952298164367676,-0.6481280326843262,-1.7024813890457153
1782778624314659000,6.6046591796875,-0.2724458873271942,-0.7049384713172913,-1.835650086402893
1782778624324659700,6.61465966796875,-0.15577064454555511,-0.6860016584396362,-1.7941112518310547
1782778624334648000,6.62464794921875,-0.09162978827953339,-0.48869219422340393,-1.6572774648666382
1782778624344679000,6.634678955078125,-0.12767083942890167,-0.13255776464939117,-1.3781119585037231
1782778624354637000,6.644636962890625,-0.16493362188339233,0.19486601650714874,-0.7922922372817993
1782778624364668000,6.65466796875,-0.19792033731937408,0.20952677726745605,0.04214970022439957
1782778624374656500,6.664656494140625,-0.3017674386501312,-0.01771509274840355,0.8863654732704163
1782778624384687400,6.674687255859375,-0.4251621961593628,-0.42699480056762695,1.4330898523330688
1782778624394645500,6.6846455078125,-0.607810914516449,-0.8191702961921692,1.4782938957214355
1782778624404678400,6.694678466796875,-0.7049384713172913,-0.9712757468223572,1.1044443845748901
1782778624414665000,6.7046650390625,-0.6481280326843262,-0.8662069439888,0.5326744914054871
1782778624424664800,6.714664794921875,-0.47342056035995483,-0.5791002511978149,-0.06536258012056351
1782778624434654200,6.724654296875,-0.20830504596233368,-0.10873401165008545,-0.48197266459465027
1782778624444684500,6.7346845703125,0.018325956538319588,0.3243694305419922,-0.7061602473258972
1782778624454643000,6.744642822265625,0.14233160018920898,0.6200281977653503,-0.7605272531509399
1782778624464673300,6.75467333984375,0.23029619455337524,0.7116580009460449,-0.6065891981124878
1782778624474662400,6.764662353515625,0.1973094791173935,0.6285803318023682,-0.3390302062034607
1782778624484662300,6.774662353515625,0.10506882518529892,0.4807509481906891,-0.08491026610136032
1782778624494770200,6.784770263671875,0.06536258012056351,0.3078760802745819,0.0910189226269722
1782778624504653600,6.794653564453125,0.051312681287527084,0.14477506279945374,0.19058994948863983
1782778624514640600,6.804640625,0.036651913076639175,0.01160643994808197,0.22296582162380219
1782778624524673300,6.81467333984375,-0.05314527451992035,-0.07330382615327835,0.19364428520202637
1782778624534660000,6.82466015625,-0.07880161702632904,-0.012217304669320583,0.15821409225463867
1782778624544660000,6.834659912109375,-0.014049900695681572,0.18020524084568024,0.1514945775270462
1782778624554649300,6.8446494140625,0.08735372871160507,0.37690386176109314,0.17348572611808777
1782778624564681500,6.854681396484375,0.14538592100143433,0.36163222789764404,0.16982053220272064
1782778624574638000,6.86463818359375,0.13927727937698364,0.15027284622192383,0.1514945775270462
1782778624584668700,6.874668701171875,0.09162978827953339,-0.10506882518529892,0.1270599663257599
1782778624594657500,6.884657470703125,0.06169738993048668,-0.24556782841682434,0.08185594528913498
1782778624604659700,6.89465966796875,0.06352998316287994,-0.2742784917354584,0.01038470957428217
1782778624614724600,6.904724609375,0.05864306539297104,-0.2174680233001709,-0.05864306539297104
1782778624624676900,6.9146767578125,0.05925392732024193,-0.13255776464939117,-0.09529497474431992
1782778624634666200,6.924666259765625,0.048258353024721146,-0.07941248267889023,-0.09346238523721695
1782778624644380700,6.934380615234375,0.025045474991202354,-0.11239920556545258,-0.039706241339445114
1782778624654655200,6.9446552734375,0.00733038317412138,-0.1563815027475357,0.05314527451992035
1782778624664691200,6.954691162109375,0.039706241339445114,-0.1062905490398407,0.14294247329235077
1782778624674644200,6.964644287109375,0.09651670604944229,-0.04886921867728233,0.1258382350206375
1782778624684675300,6.97467529296875,0.13072516024112701,-0.01160643994808197,0.08002334833145142
1782778624694772200,6.984772216796875,0.1563815027475357,0.021380282938480377,0.07696902006864548
1782778624704666600,6.99466650390625,0.2064724564552307,0.09834930300712585,0.13927727937698364
1782778624714653000,7.00465283203125,0.21502456068992615,0.1973094791173935,0.19608774781227112
1782778624724702500,7.014702392578125,0.16859880089759827,0.31154128909111023,0.1765400618314743
1782778624734601500,7.0246015625,0.1618792861700058,0.4440990388393402,0.11056660860776901
1782778624749331700,7.039331787109375,0.1875356286764145,0.627358615398407,0.12828169763088226
1782778624764661800,7.054661865234375,0.11728613078594208,0.6805039048194885,0.3182607889175415
1782778624774650400,7.064650390625,0.022602014243602753,0.5491678714752197,0.5027421116828918
1782778624784680400,7.074680419921875,-0.02932153269648552,0.3640756905078888,0.6927211880683899
1782778624794639600,7.0846396484375,-0.021991148591041565,0.2718350291252136,0.846659243106842
1782778624804608800,7.09460888671875,0.012828170321881771,0.3188716471195221,0.901637077331543
1782778624814720000,7.104719970703125,0.06352998316287994,0.4386012554168701,0.8319984674453735
1782778624824628200,7.114628173828125,0.1215621829032898,0.5510004758834839,0.749531626701355
1782778624834708200,7.124708251953125,0.1313360333442688,0.5418374538421631,0.770301103591919
1782778624844678100,7.13467822265625,0.1258382350206375,0.3952298164367676,0.9297369122505188
1782778624854636300,7.14463623046875,0.1319468915462494,0.22968533635139465,1.2027937173843384
1782778624864667400,7.15466748046875,0.08429940044879913,0.15454891324043274,1.4715744256973267
1782778624874656000,7.164656005859375,-0.04092797264456749,0.1514945775270462,1.6071864366531372
1782778624884686800,7.174686767578125,-0.14355333149433136,0.20036379992961884,1.616349458694458
1782778624894645000,7.18464501953125,-0.13255776464939117,0.3243694305419922,1.587027907371521
1782778624904675800,7.19467578125,-0.018936822190880775,0.5229006409645081,1.5045610666275024
1782778624924667400,7.21466748046875,0.19914206862449646,0.5583308339118958,0.8961393237113953
1782778624934613500,7.224613525390625,0.07330382615327835,0.3084869384765625,0.2828305959701538
1782778624945569800,7.23556982421875,-0.16982053220272064,-0.15821409225463867,-0.39706242084503174
1782778624964674000,7.254674072265625,-0.7073819637298584,-0.6908885836601257,-1.3396275043487549
1782778624974662700,7.26466259765625,-0.8026769161224365,-0.8344419002532959,-1.607797384262085
1782778624984663000,7.2746630859375,-0.7531968355178833,-0.9230173826217651,-1.7348573207855225
1782778624994651600,7.284651611328125,-0.5571091175079346,-0.9566149711608887,-1.7146987915039062
1782778625004682500,7.2946826171875,-0.29138273000717163,-0.8698720932006836,-1.4489723443984985
1782778625014640600,7.304640625,-0.1014036312699318,-0.8234463334083557,-0.9853256344795227
1782778625024671700,7.314671630859375,-0.059864792972803116,-0.8784242272377014,-0.5338962078094482
1782778625034660400,7.324660400390625,-0.11911872029304504,-0.9034696817398071,-0.2376265823841095
1782778625044660500,7.334660400390625,-0.3029891550540924,-0.7757988572120667,-0.07513642311096191
1782778625054649000,7.344649169921875,-0.4508185386657715,-0.5797111392021179,-0.019547687843441963
1782778625064680200,7.35468017578125,-0.5161811113357544,-0.42149701714515686,-0.031154127791523933
1782778625074638000,7.36463818359375,-0.5002986192703247,-0.28527405858039856,-0.09407325088977814
1782778625084669200,7.374669189453125,-0.3897320330142975,-0.0806342139840126,-0.26633724570274353
1782778625094657800,7.38465771484375,-0.22968533635139465,0.22357667982578278,-0.7104362845420837
1782778625104657400,7.394657470703125,-0.11362093687057495,0.3078760802745819,-0.8332201838493347
1782778625114646800,7.404646728515625,0.015271631069481373,0.24923302233219147,-0.6334672570228577
1782778625124676900,7.4146767578125,0.10567969083786011,0.12095131725072861,-0.18448130786418915
1782778625134666200,7.424666259765625,0.19425514340400696,0.12889257073402405,0.3139847218990326
1782778625144666600,7.43466650390625,0.1973094791173935,0.10262536257505417,0.5998696684837341
1782778625154655200,7.4446552734375,0.11301007121801376,0.060475658625364304,0.646906316280365
1782778625164686000,7.45468603515625,0.04337143152952194,0.03420845419168472,0.5302310585975647
1782778625174644200,7.464644287109375,-0.007941247895359993,-0.03176499158143997,0.34636059403419495
1782778625184674600,7.474674560546875,-0.02932153269648552,-0.10690141469240189,0.19058994948863983
1782778625194663700,7.48466357421875,0,-0.12278391420841217,0.10445795953273773
1782778625204665900,7.494665771484375,0.05375614017248154,-0.1014036312699318,0.05864306539297104
1782778625214653000,7.50465283203125,0.09773843735456467,-0.11545353382825851,-0.005497787147760391
1782778625224683000,7.51468310546875,0.11056660860776901,-0.192422553896904,-0.06841690838336945
1782778625234642000,7.524641845703125,0.08307767659425735,-0.24495697021484375,-0.10567969083786011
1782778625244793600,7.534793701171875,0.019547687843441963,-0.2638937830924988,-0.1264491081237793
1782778625254631000,7.544630859375,-0.05742133408784866,-0.32620203495025635,-0.1417207419872284
1782778625264663000,7.5546630859375,-0.10690141469240189,-0.394618958234787,-0.12522737681865692
1782778625274650400,7.564650390625,-0.11911872029304504,-0.3854559659957886,-0.09957103431224823
1782778625284331500,7.57433154296875,-0.09162978827953339,-0.35246923565864563,-0.11484266817569733
1782778625294639400,7.584639404296875,-0.06536258012056351,-0.25534167885780334,-0.14416420459747314
1782778625304669400,7.59466943359375,-0.036651913076639175,-0.10812314599752426,-0.1820378452539444
1782778625314658800,7.604658935546875,0.009162978269159794,-0.001832595793530345,-0.21502456068992615
1782778625324660000,7.614659912109375,0.07330382615327835,0.13316862285137177,-0.19364428520202637
1782778625334648000,7.62464794921875,0.11056660860776901,0.15760323405265808,-0.14782938361167908
1782778625344786700,7.63478662109375,0.11178833991289139,0.13011430203914642,-0.08307767659425735
1782778625354596600,7.6445966796875,0.06475171446800232,0.10934487730264664,-0.02687807008624077
1782778625364758800,7.6547587890625,0.02871066704392433,0.12522737681865692,0.033597588539123535
1782778625374681300,7.664681396484375,0.039095375686883926,0.1618792861700058,0.08246681094169617
1782778625384686800,7.674686767578125,0.054367005825042725,0.22907446324825287,0.0806342139840126
1782778625394645500,7.6846455078125,0.09346238523721695,0.2535090744495392,0.025656340643763542
1782778625404924200,7.694924072265625,0.10751228034496307,0.3127630054950714,-0.05803219974040985
1782778625414672600,7.704672607421875,0.056810468435287476,0.5259549617767334,-0.11728613078594208
1782778625424665000,7.7146650390625,-0.01160643994808197,0.6798930168151855,-0.09957103431224823
1782778625434654000,7.724654052734375,-0.015271631069481373,0.7043276429176331,0.004886921960860491
1782778625444685600,7.734685546875,0.01771509274840355,0.6798930168151855,0.18509216606616974
1782778625454643200,7.744643310546875,0.042760565876960754,0.675006091594696,0.3384193480014801
1782778625464674300,7.75467431640625,0.03848451003432274,0.6792821288108826,0.5742133259773254
1782778625474662400,7.764662353515625,0.006719517521560192,0.2669481039047241,0.8032878041267395
1782778625484662300,7.774662353515625,0.00733038317412138,-0.07147123664617538,0.816726803779602
1782778625494651600,7.784651611328125,-0.024434609338641167,-0.10873401165008545,0.6939429044723511
1782778625504682500,7.7946826171875,-0.08674286305904388,0.09529497474431992,0.5125159621238708
1782778625514640600,7.804640625,0.025656340643763542,0.23640485107898712,0.21013765037059784
1782778625524673800,7.814673828125,0.05009094998240471,0.13866640627384186,-0.054367005825042725
1782778625534660400,7.824660400390625,-0.00733038317412138,0.08491026610136032,-0.2076941877603531
1782778625544660500,7.834660400390625,-0.06536258012056351,-0.152105450630188,-0.1417207419872284
