time,seconds_elapsed,z,y,x
1782778444057036500,0.23503662109375,-6.406394958496094,0.6417658925056458,-1.3178505897521973
1782778444067046100,0.245046142578125,-6.786115646362305,0.4178442358970642,-1.639793038368225
1782778444077055700,0.2550556640625,-6.928322792053223,0.7482379674911499,-1.6283488273620605
1782778444087035100,0.26503515625,-6.314184188842773,1.2706632614135742,-0.9149724841117859
1782778444097045000,0.275044921875,-5.409551620483398,0.8988127708435059,-0.2962212562561035
1782778444107054600,0.2850546875,-5.134998321533203,0.24812188744544983,0.23695123195648193
1782778444117034000,0.295033935546875,-4.725521564483643,-0.03619575500488281,0.15946853160858154
1782778444127043600,0.305043701171875,-4.129271030426025,0.26002824306488037,-0.7584205865859985
1782778444137053400,0.315053466796875,-3.9744644165039062,0.396821528673172,-0.5434577465057373
1782778444147032800,0.32503271484375,-3.6083550453186035,1.1782997846603394,-0.9813237190246582
1782778444157042400,0.33504248046875,-2.6117072105407715,3.19972562789917,-2.532142400741577
1782778444167052300,0.34505224609375,0.9611740112304688,5.700119495391846,-6.277311325073242
1782778444177031700,0.35503173828125,9.361258506774902,8.124716758728027,-12.753652572631836
1782778444187041300,0.365041259765625,11.5007963180542,9.984906196594238,-15.160009384155273
1782778444197051100,0.375051025390625,7.718910217285156,14.841609001159668,-13.303126335144043
1782778444207030300,0.3850302734375,-0.28081607818603516,16.319379806518555,-5.905219554901123
1782778444217040100,0.3950400390625,-3.6259756088256836,13.463056564331055,2.4729998111724854
1782778444227049700,0.4050498046875,-0.7220077514648438,11.882001876831055,6.076888561248779
1782778444237029000,0.415029052734375,9.549757957458496,10.569905281066895,6.857878684997559
1782778444247038700,0.425038818359375,22.452333450317383,7.698897838592529,4.477707862854004
1782778444257048600,0.435048583984375,34.44303894042969,6.847760200500488,0.16115665435791016
1782778444267028000,0.445028076171875,39.60919189453125,7.606277942657471,-2.216226816177368
1782778444277037800,0.455037841796875,35.334266662597656,8.605335235595703,-1.909153938293457
1782778444287047400,0.46504736328125,27.576568603515625,10.054852485656738,-1.5288079977035522
1782778444297026600,0.475026611328125,18.665496826171875,10.3525390625,0.6906683444976807
1782778444307036400,0.485036376953125,12.01093864440918,10.83652114868164,2.1527936458587646
1782778444317046000,0.4950458984375,9.108953475952148,10.919771194458008,2.150707721710205
1782778444327056000,0.505055908203125,10.148797988891602,10.13650894165039,1.298915147781372
1782778444337035300,0.51503515625,11.189530372619629,9.60954475402832,0.6696822643280029
1782778444347044900,0.525044921875,9.982216835021973,8.822846412658691,-0.590874195098877
1782778444357054700,0.5350546875,7.3379621505737305,7.579559803009033,-2.0430080890655518
1782778444367034000,0.5450341796875,3.3828468322753906,6.222848892211914,-0.7211182117462158
1782778444377043700,0.555043701171875,-0.5328216552734375,5.925337791442871,0.9047977924346924
1782778444387053600,0.565053466796875,-3.300607204437256,5.132412910461426,1.9434313774108887
1782778444397032700,0.57503271484375,-3.304166793823242,4.418215751647949,0.11146187782287598
1782778444407042300,0.585042236328125,-0.8821883201599121,4.532273292541504,-3.8590919971466064
1782778444417052200,0.59505224609375,1.5410881042480469,4.853945255279541,-6.269406318664551
1782778444427031600,0.605031494140625,2.428701400756836,4.177369117736816,-5.801462173461914
1782778444437041200,0.615041259765625,1.4886903762817383,3.8909707069396973,-4.299103260040283
1782778444447051000,0.625051025390625,0.3153867721557617,3.7422385215759277,-3.2468690872192383
1782778444457030400,0.635030517578125,-0.565955638885498,3.4509825706481934,-4.059351444244385
1782778444467040300,0.645040283203125,-1.865293025970459,3.3992161750793457,-4.514743328094482
1782778444477049900,0.6550498046875,-3.6779961585998535,3.3532583713531494,-4.91239595413208
1782778444487029000,0.665029052734375,-5.170552730560303,2.9821081161499023,-5.840579509735107
1782778444497038800,0.675038818359375,-6.056860446929932,2.7647433280944824,-10.194982528686523
1782778444507048400,0.68504833984375,-5.026184558868408,2.649848222732544,-13.880447387695312
1782778444517027800,0.69502783203125,-4.615142345428467,1.391669511795044,-10.464792251586914
1782778444527037400,0.705037353515625,-6.351814270019531,0.7763426303863525,-8.000648498535156
1782778444537047300,0.71504736328125,-7.0319414138793945,1.4025752544403076,-7.2736945152282715
1782778444547026700,0.725026611328125,-7.392510414123535,1.8121341466903687,-6.690504550933838
1782778444557036500,0.73503662109375,-7.983674049377441,1.4372069835662842,-6.555996894836426
1782778444567155000,0.745155029296875,-8.592707633972168,1.11933434009552,-6.949347496032715
1782778444577025500,0.755025634765625,-9.217957496643066,0.9072021842002869,-7.812865734100342
1782778444587035100,0.76503515625,-10.15392017364502,0.8788979649543762,-7.738630294799805
1782778444597045000,0.775044921875,-10.672513008117676,0.9522040486335754,-6.97123908996582
1782778444607054600,0.7850546875,-10.605489730834961,0.9365094900131226,-6.105029582977295
1782778444617034000,0.795033935546875,-10.502388954162598,0.9924120903015137,-5.368317127227783
1782778444627043600,0.805043701171875,-9.86522388458252,1.065978765487671,-5.462993621826172
1782778444637053400,0.815053466796875,-7.827772617340088,1.7434840202331543,-5.940855026245117
1782778444647032800,0.82503271484375,-6.171891212463379,1.7426238059997559,-4.829842567443848
1782778444657042400,0.83504248046875,-5.167742729187012,1.4857773780822754,-3.596477508544922
1782778444667052300,0.84505224609375,-4.692377090454102,1.7341668605804443,-3.287646532058716
1782778444677031700,0.85503173828125,-5.4469828605651855,1.5549819469451904,-3.2667689323425293
1782778444687041300,0.865041259765625,-6.974327564239502,1.1725952625274658,-3.491509199142456
1782778444697051100,0.875051025390625,-8.852649688720703,1.3349688053131104,-3.413696527481079
1782778444707030300,0.8850302734375,-10.592299461364746,1.5756521224975586,-2.456120252609253
1782778444717039900,0.895039794921875,-10.572568893432617,0.7753546237945557,-3.56246280670166
1782778444727049700,0.9050498046875,-9.870148658752441,0.10136151313781738,-4.509514808654785
1782778444737029000,0.915029052734375,-8.761616706848145,-0.5094099044799805,-5.809951305389404
1782778444747039000,0.9250390625,-7.053982734680176,0.17836928367614746,-6.016208648681641
1782778444757048600,0.935048583984375,-5.598661422729492,1.3253928422927856,-3.0655629634857178
1782778444767028000,0.945028076171875,-4.7147955894470215,3.150954246520996,0.27453017234802246
1782778444777037600,0.95503759765625,-5.3613176345825195,4.2464447021484375,1.9582006931304932
1782778444787047400,0.96504736328125,-6.236309051513672,5.367522239685059,0.5752005577087402
1782778444797026600,0.975026611328125,-6.394518852233887,5.667540073394775,0.1023561954498291
1782778444807036200,0.9850361328125,-6.368385314941406,6.561676025390625,-2.449230432510376
1782778444817046000,0.9950458984375,-4.433178901672363,7.209741592407227,-5.5629048347473145
1782778444827055900,1.005055908203125,1.614130973815918,8.594161987304688,-8.151987075805664
1782778444837035300,1.01503515625,11.626103401184082,10.628623962402344,-7.457921028137207
1782778444847044900,1.025044921875,17.976093292236328,13.483529090881348,-5.046766757965088
1782778444857054700,1.0350546875,18.365827560424805,16.76453399658203,-1.2793108224868774
1782778444867034000,1.0450341796875,17.364070892333984,18.640941619873047,1.2543706893920898
1782778444877043700,1.055043701171875,16.102725982666016,17.917268753051758,2.837994337081909
1782778444887053600,1.065053466796875,15.3855619430542,15.925124168395996,3.416341781616211
1782778444897032700,1.07503271484375,14.28748607635498,14.097272872924805,4.333924293518066
1782778444907042300,1.085042236328125,14.764668464660645,12.761771202087402,6.424924373626709
1782778444917052200,1.09505224609375,18.67528533935547,11.291895866394043,7.149279594421387
1782778444927031600,1.105031494140625,24.13882827758789,8.737651824951172,6.209207534790039
1782778444937041200,1.115041259765625,28.076847076416016,5.235836505889893,3.8080692291259766
1782778444947051000,1.125051025390625,29.033117294311523,2.5167407989501953,1.576256275177002
1782778444957030400,1.135030517578125,27.495590209960938,2.4283430576324463,1.2793750762939453
1782778444967040000,1.1450400390625,26.079116821289062,5.507248401641846,1.703648328781128
1782778444977049900,1.1550498046875,24.756017684936523,6.698657989501953,3.1758008003234863
1782778444987029000,1.165029052734375,20.546295166015625,7.4904327392578125,3.0477612018585205
1782778444997038600,1.17503857421875,14.965418815612793,8.021215438842773,2.3941197395324707
1782778445007048400,1.18504833984375,9.297514915466309,8.62015151977539,2.444953441619873
1782778445017027800,1.19502783203125,4.168280601501465,9.258392333984375,3.0392651557922363
1782778445027037700,1.20503759765625,-0.25101470947265625,9.416916847229004,2.3801519870758057
1782778445037047300,1.21504736328125,-3.466330051422119,8.874116897583008,0.8622374534606934
1782778445047026700,1.225026611328125,-5.733641147613525,7.800000190734863,-0.5531748533248901
1782778445057036300,1.235036376953125,-7.494668006896973,6.3354082107543945,-2.4570796489715576
1782778445067046100,1.245046142578125,-8.93261432647705,4.549067497253418,-4.943994045257568
1782778445077056000,1.255055908203125,-9.155238151550293,3.2719438076019287,-7.140393257141113
1782778445087035100,1.26503515625,-8.341959953308105,2.542060136795044,-8.318893432617188
1782778445097045000,1.275044921875,-7.576416492462158,2.4449448585510254,-7.898372650146484
1782778445107054600,1.2850546875,-7.660547256469727,2.808915376663208,-6.322238922119141
1782778445117034000,1.295033935546875,-8.86383056640625,3.355062484741211,-4.2749810218811035
1782778445127043600,1.305043701171875,-10.913063049316406,3.9730052947998047,-2.3640975952148438
1782778445137053400,1.315053466796875,-11.969736099243164,4.612349987030029,-2.1507058143615723
1782778445147032800,1.32503271484375,-11.535162925720215,4.341182708740234,-2.7732298374176025
1782778445157042400,1.33504248046875,-11.088991165161133,3.762835741043091,-3.727623224258423
1782778445167052300,1.34505224609375,-10.519566535949707,3.5273542404174805,-4.1708574295043945
1782778445177031700,1.35503173828125,-9.968500137329102,3.454726219177246,-4.245271682739258
1782778445187072000,1.365072021484375,-9.96752643585205,3.3874995708465576,-3.9851150512695312
1782778445197159700,1.37515966796875,-10.126324653625488,3.4738242626190186,-3.1294472217559814
1782778445207030300,1.3850302734375,-10.221136093139648,3.6031157970428467,-2.4757845401763916
1782778445217040100,1.3950400390625,-9.737833023071289,3.573406219482422,-1.8930773735046387
1782778445227049700,1.4050498046875,-9.04486083984375,3.519435167312622,-1.4814237356185913
1782778445236985000,1.414985107421875,-8.25587272644043,3.3947272300720215,-1.425070881843567
1782778445247038700,1.425038818359375,-7.6551618576049805,3.278735399246216,-1.4697859287261963
1782778445257048600,1.435048583984375,-7.4849066734313965,3.2985382080078125,-1.4001617431640625
1782778445266617600,1.44461767578125,-7.587213039398193,3.1802072525024414,-1.965238332748413
1782778445277037800,1.455037841796875,-7.585709571838379,3.0928804874420166,-2.3656954765319824
1782778445287047400,1.46504736328125,-7.491326332092285,3.1033029556274414,-2.1483349800109863
1782778445297135400,1.47513525390625,-7.5366129875183105,3.081639528274536,-2.0818445682525635
1782778445307036400,1.485036376953125,-7.630714416503906,3.1040098667144775,-1.752793312072754
1782778445317046000,1.4950458984375,-7.921504497528076,3.1783759593963623,-1.148776888847351
1782778445327164700,1.50516455078125,-8.233429908752441,3.210068464279175,-0.7127424478530884
1782778445337035300,1.51503515625,-8.556038856506348,3.16632080078125,-0.5207308530807495
1782778445347044900,1.525044921875,-9.023284912109375,3.176034927368164,-0.5132828950881958
1782778445356827600,1.53482763671875,-9.69910717010498,3.1571476459503174,-0.3232889175415039
1782778445367034000,1.5450341796875,-10.035842895507812,3.033176898956299,-0.3375363349914551
1782778445377043700,1.555043701171875,-9.5947904586792,2.7012593746185303,-0.6347956657409668
1782778445387053300,1.56505322265625,-8.396455764770508,2.214816093444824,-0.7846540212631226
1782778445397032700,1.57503271484375,-6.9506330490112305,2.0971195697784424,-0.8224369287490845
1782778445407042300,1.585042236328125,-6.20683479309082,2.0139448642730713,-0.35163116455078125
1782778445417052200,1.59505224609375,-6.099957466125488,1.6064757108688354,0.6699470281600952
1782778445427031600,1.605031494140625,-5.772725582122803,1.3864567279815674,1.0560648441314697
1782778445437041200,1.615041259765625,-5.373452663421631,1.6048542261123657,1.915523648262024
1782778445447051000,1.625051025390625,-3.135258197784424,2.4333202838897705,2.932392120361328
1782778445457030400,1.635030517578125,2.4918041229248047,4.372955322265625,2.6249067783355713
1782778445467040300,1.645040283203125,7.786896705627441,7.180943965911865,-0.18803203105926514
1782778445477049900,1.6550498046875,8.761887550354004,9.18692398071289,-2.9471378326416016
1782778445487029000,1.665029052734375,9.083788871765137,10.13968563079834,-2.523789405822754
1782778445497038800,1.675038818359375,12.94186019897461,11.687566757202148,-1.4782803058624268
1782778445507048400,1.68504833984375,15.772518157958984,14.701375961303711,-0.9512287378311157
1782778445517027800,1.69502783203125,14.113368034362793,17.65693473815918,0.6530933380126953
1782778445527037400,1.705037353515625,6.628823280334473,17.817834854125977,4.817794322967529
1782778445537047300,1.71504736328125,-1.661595344543457,17.638731002807617,7.626406669616699
1782778445547026700,1.725026611328125,-3.893315315246582,17.04659652709961,10.367486953735352
1782778445557036500,1.73503662109375,3.5307769775390625,15.216532707214355,12.140552520751953
1782778445567046100,1.745046142578125,16.295700073242188,12.498143196105957,10.77963638305664
1782778445577056000,1.755055908203125,28.28055191040039,9.550392150878906,5.764400482177734
1782778445587035100,1.76503515625,34.33995056152344,6.383683204650879,0.9601840972900391
1782778445597045000,1.775044921875,36.23445129394531,5.234325408935547,-0.6867853403091431
1782778445607054800,1.785054931640625,33.566925048828125,5.8929877281188965,2.019897937774658
1782778445617034000,1.795033935546875,28.840778350830078,7.66993522644043,4.451995849609375
1782778445627043600,1.805043701171875,22.40656280517578,8.570180892944336,5.08430814743042
1782778445637053400,1.815053466796875,14.876062393188477,9.003196716308594,4.2557830810546875
1782778445647032800,1.82503271484375,7.997157096862793,8.954619407653809,2.001702070236206
1782778445657042400,1.83504248046875,2.9914493560791016,8.287431716918945,-0.9710597991943359
1782778445667052300,1.84505224609375,-0.19980335235595703,7.460162162780762,-2.8179259300231934
1782778445677031700,1.85503173828125,-1.74959135055542,7.119032859802246,-3.4150257110595703
1782778445687041300,1.865041259765625,-2.4043164253234863,6.8607001304626465,-2.172226667404175
1782778445697051100,1.875051025390625,-2.937648296356201,6.88637113571167,0.29331350326538086
1782778445707030300,1.8850302734375,-4.1208815574646,6.862961292266846,2.4852442741394043
1782778445717039900,1.895039794921875,-4.973384380340576,6.5328216552734375,3.4993085861206055
1782778445727049700,1.9050498046875,-4.9363508224487305,5.828227519989014,2.499915361404419
1782778445737029000,1.915029052734375,-4.291494846343994,4.886006832122803,0.24236178398132324
1782778445747039000,1.9250390625,-4.090749740600586,4.234078884124756,-2.0224215984344482
1782778445757048600,1.935048583984375,-5.083234786987305,3.787722587585449,-4.683446884155273
1782778445767028000,1.945028076171875,-6.914792060852051,3.2871999740600586,-6.929842948913574
1782778445777037600,1.95503759765625,-9.240848541259766,3.33506441116333,-7.729393482208252
1782778445787047400,1.96504736328125,-11.57559585571289,3.741088628768921,-7.320677757263184
1782778445797026600,1.975026611328125,-13.119948387145996,4.14198637008667,-6.577969551086426
1782778445807036200,1.9850361328125,-13.748571395874023,4.716506004333496,-5.185965538024902
1782778445817046000,1.9950458984375,-13.226766586303711,4.812304973602295,-3.3829917907714844
1782778445827055900,2.005055908203125,-12.393884658813477,4.551458835601807,-3.153465747833252
1782778445837035300,2.01503515625,-11.63929557800293,4.648200988769531,-1.8545337915420532
1782778445847044900,2.025044921875,-10.906693458557129,4.9140825271606445,-0.965634822845459
1782778445857054700,2.0350546875,-10.088565826416016,4.827892303466797,-0.3212164640426636
1782778445867034000,2.0450341796875,-9.685714721679688,4.693171977996826,0.07640528678894043
1782778445877043700,2.055043701171875,-8.893338203430176,4.291311740875244,0.10554981231689453
1782778445887053600,2.065053466796875,-7.971459865570068,3.941495656967163,-0.666130542755127
1782778445896743700,2.07474365234375,-7.9392547607421875,4.0226898193359375,-0.7482163906097412
1782778445907042300,2.085042236328125,-8.756754875183105,3.786874771118164,-0.49359798431396484
1782778445917052200,2.09505224609375,-8.951308250427246,3.4102118015289307,0.22002482414245605
1782778445927123000,2.105123046875,-9.21847152709961,3.6789002418518066,-0.05805683135986328
1782778445937149700,2.115149658203125,-9.256159782409668,3.532835006713867,-0.12611687183380127
1782778445947020500,2.1250205078125,-8.65922737121582,3.464918375015259,0.03313910961151123
1782778445957030400,2.135030517578125,-7.851825714111328,3.182982921600342,-0.5943038463592529
1782778445967148800,2.145148681640625,-7.597531318664551,2.730407238006592,-1.1618913412094116
1782778445977019100,2.15501904296875,-7.7248854637146,2.105471611022949,-1.7535206079483032
1782778445986924300,2.16492431640625,-7.65950345993042,1.819415807723999,-2.4824976921081543
1782778445997038800,2.175038818359375,-7.344455242156982,1.9461393356323242,-2.5700058937072754
1782778446007048400,2.18504833984375,-6.82853889465332,2.211618661880493,-2.131527900695801
1782778446017027800,2.19502783203125,-6.276193141937256,2.2022125720977783,-1.7061717510223389
1782778446027037700,2.20503759765625,-6.287015438079834,2.586580753326416,-1.2968498468399048
1782778446037047300,2.21504736328125,-6.664517402648926,2.9973084926605225,-0.6019076704978943
1782778446047026700,2.225026611328125,-7.116907119750977,3.2134757041931152,0.19973254203796387
1782778446057036300,2.235036376953125,-7.403218746185303,2.8492379188537598,1.0511372089385986
1782778446067046100,2.245046142578125,-7.152482032775879,2.273837089538574,1.3681336641311646
1782778446077056000,2.255055908203125,-7.568806171417236,2.788444995880127,0.5293797254562378
1782778446087035100,2.26503515625,-6.648087978363037,2.1888768672943115,0.36029160022735596
1782778446097045000,2.275044921875,-4.771639347076416,1.7980536222457886,-0.19170784950256348
1782778446107054600,2.2850546875,-4.5374274253845215,2.494136333465576,-0.8977348804473877
1782778446117034000,2.295033935546875,-2.8071799278259277,3.8626065254211426,-1.266225814819336
1782778446127043600,2.305043701171875,3.3367996215820312,4.747128486633301,0.6210392713546753
1782778446137053400,2.315053466796875,13.432988166809082,6.775378704071045,3.7085583209991455
1782778446147032800,2.32503271484375,19.210216522216797,8.93062686920166,2.4126839637756348
1782778446157042400,2.33504248046875,24.1844482421875,10.886903762817383,0.26089155673980713
1782778446167052300,2.34505224609375,24.880996704101562,11.223073959350586,-2.12357234954834
1782778446177031700,2.35503173828125,21.302947998046875,10.829023361206055,-4.725564002990723
1782778446187041300,2.365041259765625,15.790972709655762,10.448667526245117,-4.690650939941406
1782778446197051100,2.375051025390625,9.671052932739258,12.60651969909668,-2.245025634765625
1782778446207030300,2.3850302734375,4.860766410827637,13.881853103637695,2.9541985988616943
1782778446217040100,2.3950400390625,4.296619415283203,14.323285102844238,7.411259651184082
1782778446227049700,2.4050498046875,10.047452926635742,12.430606842041016,8.16553020477295
1782778446237029000,2.415029052734375,19.78740692138672,8.941910743713379,6.373308181762695
1782778446247038700,2.425038818359375,29.142065048217773,4.741335868835449,5.028573036193848
1782778446257048600,2.435048583984375,32.45749282836914,3.3444230556488037,2.5291500091552734
1782778446267028000,2.445028076171875,32.98128128051758,4.12204122543335,-0.5284273624420166
1782778446277037800,2.455037841796875,29.60022735595703,5.656866073608398,-0.5808619260787964
1782778446287047400,2.46504736328125,23.546588897705078,7.177501678466797,1.5992403030395508
1782778446297026600,2.475026611328125,15.039536476135254,8.552868843078613,2.3713154792785645
1782778446307036400,2.485036376953125,6.165938377380371,9.319733619689941,1.2338223457336426
1782778446317046000,2.4950458984375,-0.3375434875488281,8.419872283935547,-4.226162910461426
1782778446327056000,2.505055908203125,-3.8550424575805664,8.366397857666016,-3.6179280281066895
1782778446337035300,2.51503515625,-6.290423393249512,7.999994277954102,-1.9037840366363525
1782778446347044900,2.525044921875,-7.134418487548828,6.59809684753418,-1.6294605731964111
1782778446357054700,2.5350546875,-5.846835136413574,6.2001214027404785,-4.177632808685303
1782778446367034000,2.5450341796875,-4.00410795211792,5.245293140411377,-4.51408576965332
1782778446377043700,2.555043701171875,-2.11175537109375,4.3889312744140625,-3.4587926864624023
1782778446387053600,2.565053466796875,-0.34658050537109375,4.485849380493164,-2.444735050201416
1782778446397032700,2.57503271484375,0.9240798950195312,5.349212169647217,-1.633224368095398
1782778446407042300,2.585042236328125,1.9942874908447266,5.919774532318115,-0.6792367696762085
1782778446417052200,2.59505224609375,2.1451683044433594,6.367550849914551,0.09485995769500732
1782778446427031600,2.605031494140625,1.0601205825805664,6.306519508361816,0.23665618896484375
1782778446437041200,2.615041259765625,-0.9399409294128418,5.866800785064697,-0.5349195003509521
1782778446447051000,2.625051025390625,-3.266632556915283,5.083517074584961,-1.9439671039581299
1782778446457030400,2.635030517578125,-5.815729141235352,4.385300159454346,-3.5538103580474854
1782778446467040300,2.645040283203125,-7.5075602531433105,4.105165481567383,-3.8735270500183105
1782778446477049900,2.6550498046875,-8.680685043334961,3.6797730922698975,-3.329002618789673
1782778446487029000,2.665029052734375,-9.47373104095459,3.6477298736572266,-2.626986026763916
1782778446497038800,2.675038818359375,-9.954096794128418,3.6237077713012695,-1.8552393913269043
1782778446507048400,2.68504833984375,-10.181231498718262,3.464925765991211,-1.330409288406372
1782778446517027800,2.69502783203125,-10.182466506958008,3.71232533454895,-1.0960525274276733
1782778446526841000,2.704841064453125,-10.108819007873535,3.8964622020721436,-0.6511141061782837
1782778446537016800,2.715016845703125,-10.11097526550293,3.8151893615722656,-0.10070490837097168
1782778446547026700,2.725026611328125,-10.176477432250977,3.5385243892669678,0.4781419038772583
1782778446557250000,2.73525,-10.334033966064453,3.2756099700927734,0.7110872268676758
1782778446567154700,2.74515478515625,-10.781627655029297,3.1488754749298096,0.7942939400672913
1782778446577025500,2.755025634765625,-11.414703369140625,2.6504220962524414,0.6094151735305786
1782778446587035100,2.76503515625,-12.094552993774414,1.9661288261413574,-0.06713306903839111
1782778446597045000,2.775044921875,-12.691173553466797,1.7520281076431274,-0.8940142393112183
1782778446607054800,2.785054931640625,-13.444910049438477,1.8002877235412598,-0.694877028465271
1782778446617034000,2.795033935546875,-13.31482982635498,1.6548027992248535,0.3132578730583191
1782778446627043600,2.805043701171875,-12.766170501708984,1.7192045450210571,1.4429092407226562
1782778446637053400,2.815053466796875,-11.609970092773438,1.8776860237121582,2.1204819679260254
1782778446647032800,2.82503271484375,-10.332409858703613,2.149122714996338,2.64733624458313
1782778446657042400,2.83504248046875,-9.23167896270752,2.3240365982055664,3.2907581329345703
1782778446667052300,2.84505224609375,-8.168105125427246,2.2765538692474365,3.5754528045654297
1782778446677031700,2.85503173828125,-7.062973499298096,1.7875573635101318,2.948411226272583
1782778446687041300,2.865041259765625,-6.0231523513793945,1.0683867931365967,2.034963607788086
1782778446697051100,2.875051025390625,-5.969182968139648,0.20405268669128418,1.4571465253829956
1782778446707030300,2.8850302734375,-6.517125129699707,0.07179093360900879,1.3661832809448242
1782778446717039900,2.895039794921875,-7.136965751647949,-0.06446576118469238,1.9394173622131348
1782778446727049700,2.9050498046875,-7.595350742340088,0.013423919677734375,2.3471803665161133
1782778446737029000,2.915029052734375,-6.715226173400879,0.9762194156646729,2.9565722942352295
1782778446747039000,2.9250390625,-5.344841003417969,2.36625599861145,3.376171588897705
1782778446757048600,2.935048583984375,-4.627036094665527,4.307999610900879,3.586711883544922
1782778446767028000,2.945028076171875,-2.1418495178222656,6.375883102416992,3.9476404190063477
1782778446777037600,2.95503759765625,2.44844913482666,7.7278852462768555,3.291106700897217
1782778446787047400,2.96504736328125,5.951900482177734,8.412841796875,2.7678158283233643
1782778446797026600,2.975026611328125,9.51025676727295,8.980335235595703,1.3707263469696045
1782778446807036200,2.9850361328125,13.135360717773438,10.259424209594727,-0.5372684001922607
1782778446817046000,2.9950458984375,14.726048469543457,12.034738540649414,-0.6208755970001221
1782778446827055900,3.005055908203125,13.1150541305542,13.229912757873535,0.1556309461593628
1782778446837035300,3.01503515625,9.700124740600586,15.065563201904297,1.3169336318969727
1782778446847044900,3.025044921875,6.572482109069824,17.030109405517578,3.8441343307495117
1782778446857054700,3.0350546875,8.068665504455566,16.971195220947266,5.536105155944824
1782778446867034000,3.0450341796875,15.147862434387207,15.286465644836426,6.498355865478516
1782778446877043700,3.055043701171875,24.660037994384766,11.98304271697998,6.5133137702941895
1782778446887053600,3.065053466796875,32.79607391357422,8.388263702392578,2.9089303016662598
1782778446897032700,3.07503271484375,33.38423156738281,5.790722846984863,-1.103097915649414
1782778446907042300,3.085042236328125,30.553451538085938,5.22235631942749,-2.602356195449829
1782778446917052200,3.09505224609375,26.463985443115234,6.300300121307373,-1.4514095783233643
1782778446927031600,3.105031494140625,23.31359100341797,8.327826499938965,1.2033698558807373
1782778446937041200,3.115041259765625,17.641582489013672,9.866534233093262,3.402053117752075
1782778446947051000,3.125051025390625,10.123292922973633,11.091923713684082,4.804201126098633
1782778446957030400,3.135030517578125,3.3333730697631836,11.11796760559082,4.856605529785156
1782778446967040000,3.1450400390625,-1.6059703826904297,10.186362266540527,3.5501863956451416
1782778446977049900,3.1550498046875,-4.423465728759766,8.75963306427002,1.3999035358428955
1782778446987029000,3.165029052734375,-5.070939540863037,6.949456214904785,-0.34481021761894226
1782778446997038800,3.175038818359375,-4.207925796508789,5.382717132568359,-1.5825307369232178
1782778447007048400,3.18504833984375,-2.5633034706115723,4.271539688110352,-2.559837818145752
1782778447017027800,3.19502783203125,-0.5534639358520508,3.4564223289489746,-3.041682243347168
1782778447027037700,3.20503759765625,1.0562620162963867,3.047588348388672,-2.746884346008301
1782778447037047300,3.21504736328125,1.3281068801879883,3.0903334617614746,-2.2924418449401855
1782778447047026700,3.225026611328125,0.04192543029785156,3.258725881576538,-2.0911271572113037
1782778447057036300,3.235036376953125,-1.7153115272521973,3.259406805038452,-1.81683349609375
1782778447067046100,3.245046142578125,-3.4385976791381836,3.46604585647583,-1.9539241790771484
1782778447077056000,3.255055908203125,-5.16737174987793,3.6384711265563965,-2.2577807903289795
1782778447087035100,3.26503515625,-6.241116523742676,3.334073066711426,-2.9684667587280273
1782778447097045000,3.275044921875,-8.059160232543945,3.316279888153076,-3.2099807262420654
1782778447107054800,3.285054931640625,-9.654792785644531,3.0906577110290527,-3.2314109802246094
1782778447117034000,3.295033935546875,-10.714298248291016,3.1192409992218018,-3.439110279083252
1782778447127043600,3.305043701171875,-11.275309562683105,3.1873559951782227,-3.3073129653930664
1782778447137053400,3.315053466796875,-11.5077543258667,3.108285903930664,-2.523684024810791
1782778447147032800,3.32503271484375,-11.425053596496582,3.1688709259033203,-1.639608383178711
1782778447157042400,3.33504248046875,-11.13436222076416,3.1991217136383057,-1.2276628017425537
1782778447167052300,3.34505224609375,-10.585949897766113,3.3162128925323486,-0.9232385754585266
1782778447177031700,3.35503173828125,-9.621925354003906,3.449234962463379,-0.599571943283081
1782778447186604300,3.364604248046875,-8.569233894348145,3.4746317863464355,-0.25398558378219604
1782778447197051100,3.375051025390625,-7.2780866622924805,3.4137425422668457,-0.11655306816101074
1782778447207030300,3.3850302734375,-6.127790927886963,3.355177402496338,-0.12366198003292084
1782778447217040100,3.3950400390625,-5.208314418792725,3.323838949203491,-0.11804842948913574
1782778447227049700,3.4050498046875,-4.980570316314697,3.242060661315918,0.060067661106586456
1782778447237029000,3.415029052734375,-5.280594348907471,3.12044095993042,0.3511117994785309
1782778447247038700,3.425038818359375,-6.173809051513672,3.0717098712921143,0.7128980159759521
1782778447257048600,3.435048583984375,-7.28787088394165,3.02101731300354,0.8992303013801575
1782778447267028000,3.445028076171875,-8.265130996704102,3.025923013687134,1.1475274562835693
1782778447276780300,3.4547802734375,-9.046503067016602,3.0130155086517334,1.3436803817749023
1782778447287016700,3.4650166015625,-9.530876159667969,3.0964584350585938,1.5031378269195557
1782778447297026600,3.475026611328125,-9.730489730834961,2.990372896194458,1.7362725734710693
1782778447307036400,3.485036376953125,-9.414527893066406,2.9050023555755615,1.7879271507263184
1782778447317076500,3.495076416015625,-8.574117660522461,2.990959644317627,1.9276340007781982
1782778447327025400,3.505025390625,-7.492984771728516,3.391425371170044,2.408156633377075
1782778447337035300,3.51503515625,-7.399751663208008,3.6071808338165283,3.359579086303711
1782778447347044900,3.525044921875,-8.409656524658203,3.3728713989257812,3.8177895545959473
1782778447357054700,3.5350546875,-9.094704627990723,3.220923662185669,3.558044195175171
1782778447367034000,3.5450341796875,-9.43073558807373,3.1373541355133057,3.2140579223632812
1782778447377043700,3.555043701171875,-8.818758010864258,2.916916608810425,2.9382541179656982
1782778447387053600,3.565053466796875,-7.551802635192871,2.6700639724731445,2.7887368202209473
1782778447397032700,3.57503271484375,-6.788628578186035,2.1651251316070557,1.8646948337554932
1782778447407042300,3.585042236328125,-6.398476600646973,2.2635228633880615,0.062081336975097656
1782778447417052200,3.59505224609375,-4.675479888916016,3.5060200691223145,-1.761454701423645
1782778447427031600,3.605031494140625,-2.245798110961914,4.490222930908203,-2.5909085273742676
1782778447437041200,3.615041259765625,1.1820297241210938,6.1817169189453125,-3.824763298034668
1782778447447051000,3.625051025390625,6.488713264465332,8.595898628234863,-4.101563930511475
1782778447457030400,3.635030517578125,11.015425682067871,9.497243881225586,-2.43929386138916
1782778447467040300,3.645040283203125,13.013784408569336,10.425074577331543,-0.6967778205871582
1782778447477049900,3.6550498046875,12.750650405883789,12.02821159362793,-0.19797492027282715
1782778447487029000,3.665029052734375,10.283007621765137,12.537909507751465,0.27140259742736816
1782778447497038800,3.675038818359375,6.2925872802734375,12.335516929626465,1.113175630569458
1782778447507048400,3.68504833984375,3.024332046508789,13.503223419189453,2.2856497764587402
1782778447517027800,3.69502783203125,3.9387102127075195,15.123310089111328,4.1088032722473145
1782778447527037400,3.705037353515625,11.958909034729004,15.441622734069824,6.915196895599365
1782778447537047300,3.71504736328125,20.303476333618164,13.980249404907227,6.891416549682617
1782778447547026700,3.725026611328125,28.66153335571289,11.428777694702148,4.435207366943359
1782778447557036500,3.73503662109375,32.067283630371094,8.667850494384766,0.8946905136108398
1782778447567046100,3.745046142578125,32.74787902832031,6.680898189544678,-1.7324934005737305
1782778447577056000,3.755055908203125,31.84337043762207,5.698260307312012,-2.215174436569214
1782778447587035100,3.76503515625,27.00927734375,6.7408623695373535,-0.36176830530166626
1782778447597045000,3.775044921875,21.245975494384766,8.669763565063477,2.230362892150879
1782778447607054800,3.785054931640625,15.186407089233398,10.587145805358887,5.3223795890808105
1782778447617034000,3.795033935546875,9.122406959533691,11.050971984863281,6.308409690856934
1782778447627043600,3.805043701171875,2.5224523544311523,10.31553840637207,5.159082412719727
1782778447637053400,3.815053466796875,-2.727665901184082,9.19717025756836,5.375913619995117
1782778447647032800,3.82503271484375,-5.651454925537109,8.253265380859375,4.064531326293945
1782778447657042400,3.83504248046875,-6.650910377502441,7.004344940185547,2.760267496109009
1782778447667052300,3.84505224609375,-6.156959533691406,5.031960487365723,2.23341703414917
1782778447677031700,3.85503173828125,-4.9190263748168945,3.6472978591918945,1.6268876791000366
1782778447687041300,3.865041259765625,-3.818755626678467,3.0354604721069336,-0.1758062243461609
1782778447697051100,3.875051025390625,-2.499093532562256,3.102853536605835,-1.9364423751831055
1782778447707030300,3.8850302734375,-1.879035472869873,4.027865409851074,-1.7452713251113892
1782778447717039900,3.895039794921875,-1.3301458358764648,5.017714977264404,0.062343060970306396
1782778447727049700,3.9050498046875,-0.6197214126586914,5.122952938079834,0.45327234268188477
1782778447737029000,3.915029052734375,-1.3735804557800293,4.197286605834961,-0.4655896723270416
1782778447747039000,3.9250390625,-4.213472843170166,3.3151748180389404,-1.3982000350952148
1782778447757048600,3.935048583984375,-6.944047927856445,3.2084836959838867,-1.4126396179199219
1782778447767028000,3.945028076171875,-8.505905151367188,3.2751760482788086,-1.9128621816635132
1782778447777037600,3.95503759765625,-9.523460388183594,3.1862165927886963,-2.736523389816284
1782778447787047400,3.96504736328125,-10.741781234741211,3.0164403915405273,-3.2525851726531982
1782778447797026600,3.975026611328125,-13.664897918701172,2.0531816482543945,-5.274508476257324
1782778447807036200,3.9850361328125,-17.558731079101562,1.2749403715133667,-7.567379474639893
1782778447817046000,3.9950458984375,-19.51082420349121,0.4140651226043701,-5.771678924560547
1782778447827055900,4.005055908203125,-17.9088077545166,1.2777938842773438,-2.3493120670318604
1782778447837035300,4.01503515625,-14.062631607055664,2.3651130199432373,-0.6160455942153931
1782778447847044900,4.025044921875,-10.90250015258789,2.539224147796631,-0.21251004934310913
1782778447857054700,4.0350546875,-8.10641860961914,2.4881725311279297,-0.3463034927845001
1782778447867034000,4.0450341796875,-5.749106407165527,2.6356041431427,-0.3827034533023834
1782778447877043700,4.055043701171875,-4.374719619750977,2.7837209701538086,-0.3850957155227661
1782778447887053600,4.065053466796875,-3.919896125793457,2.7638399600982666,-0.9527404308319092
1782778447897032700,4.07503271484375,-3.96840763092041,2.679506301879883,-1.4810960292816162
1782778447907042300,4.085042236328125,-4.234983444213867,2.642416000366211,-1.870292067527771
1782778447917052200,4.09505224609375,-4.724870204925537,2.690520763397217,-2.0448567867279053
1782778447927031600,4.105031494140625,-5.3759541511535645,3.091923713684082,-1.5538973808288574
1782778447937041200,4.115041259765625,-6.262042045593262,3.349127769470215,-0.7526651620864868
1782778447947051000,4.125051025390625,-7.415621280670166,3.350949764251709,-0.7408096194267273
1782778447957030400,4.135030517578125,-8.347935676574707,3.476284980773926,-0.7828150987625122
1782778447967159000,4.145158935546875,-9.506357192993164,3.747490882873535,-0.49642741680145264
1782778447977019400,4.155019287109375,-10.106752395629883,3.7980401515960693,-0.48407846689224243
1782778447987029000,4.165029052734375,-10.20271110534668,3.8384017944335938,-0.4572056531906128
1782778447997086500,4.17508642578125,-9.978972434997559,3.9037227630615234,-0.3834308087825775
1782778448007018000,4.18501806640625,-9.472702980041504,3.9451727867126465,-0.29956644773483276
1782778448017027800,4.19502783203125,-8.693739891052246,3.850789785385132,-0.24822232127189636
1782778448027037700,4.20503759765625,-7.990071773529053,3.928373098373413,0.026517033576965332
1782778448036637200,4.21463720703125,-7.631486892700195,3.656177520751953,0.3026529550552368
1782778448047057200,4.22505712890625,-7.23929500579834,2.9718918800354004,0.2974017262458801
1782778448057036300,4.235036376953125,-6.5457634925842285,2.9081525802612305,-0.2742140293121338
1782778448067046100,4.245046142578125,-4.604278087615967,2.7095181941986084,-2.027595281600952
1782778448077056000,4.255055908203125,-1.1406173706054688,2.577157497406006,-2.349637985229492
1782778448087035400,4.265035400390625,1.1994190216064453,2.9899368286132812,-1.7423685789108276
1782778448097045000,4.275044921875,0.1211996078491211,4.782108306884766,-0.3465430736541748
1782778448107054800,4.285054931640625,-3.1083836555480957,7.418297290802002,0.14461171627044678
1782778448117034000,4.295033935546875,-3.4529128074645996,9.63038158416748,0.17089354991912842
1782778448127043600,4.305043701171875,2.1026391983032227,10.962946891784668,1.0238735675811768
1782778448137053400,4.315053466796875,12.886634826660156,11.171314239501953,2.183910846710205
1782778448147032800,4.32503271484375,23.129684448242188,10.425564765930176,3.440223217010498
1782778448157042400,4.33504248046875,30.698406219482422,10.46400260925293,4.949772834777832
1782778448167052300,4.34505224609375,39.114219665527344,10.235034942626953,4.583606719970703
1782778448177031700,4.35503173828125,47.024391174316406,8.925932884216309,5.012117862701416
1782778448197051100,4.375051025390625,39.10291290283203,8.526590347290039,6.07684326171875
1782778448207030300,4.3850302734375,26.7371768951416,8.993958473205566,6.257229328155518
1782778448217040100,4.3950400390625,18.615022659301758,8.326374053955078,6.682371616363525
1782778448227049700,4.4050498046875,14.53137493133545,7.6385698318481445,7.165879249572754
1782778448237029000,4.415029052734375,12.308426856994629,6.780149459838867,6.011740207672119
1782778448247038700,4.425038818359375,11.012486457824707,5.817689895629883,4.183032989501953
1782778448257048600,4.435048583984375,7.783944129943848,5.069764137268066,3.073112964630127
1782778448267028000,4.445028076171875,4.152225494384766,4.509355068206787,2.693065881729126
1782778448277037800,4.455037841796875,2.674038887023926,4.370814323425293,2.994187593460083
1782778448287047400,4.46504736328125,2.3176918029785156,4.457289695739746,3.630342721939087
1782778448297026600,4.475026611328125,2.225802421569824,4.707504749298096,3.87723970413208
1782778448307036400,4.485036376953125,1.1719398498535156,4.386653423309326,2.927196741104126
1782778448327056000,4.505055908203125,-2.95322322845459,3.7117772102355957,0.18199074268341064
1782778448337035300,4.51503515625,-3.8263235092163086,3.358851432800293,-1.781306266784668
1782778448347044900,4.525044921875,-4.176143646240234,3.248791456222534,-3.332514524459839
1782778448357054700,4.5350546875,-4.918467998504639,3.51590895652771,-4.044238567352295
1782778448366650600,4.544650634765625,-6.0840325355529785,3.9737086296081543,-3.899899959564209
1782778448377688000,4.55568798828125,-8.238844871520996,4.195504188537598,-3.2040023803710938
1782778448396649500,4.5746494140625,-12.390768051147461,3.969205379486084,-2.842418670654297
1782778448406659000,4.5846591796875,-12.87967586517334,3.880979061126709,-2.8686485290527344
1782778448416669000,4.5946689453125,-12.774569511413574,3.8763267993927,-2.432888984680176
1782778448426648000,4.60464794921875,-11.962638854980469,4.065285682678223,-2.332308769226074
1782778448436657700,4.61465771484375,-10.134786605834961,4.200539588928223,-2.078948497772217
1782778448446667500,4.62466748046875,-8.523296356201172,4.246870040893555,-1.9345486164093018
1782778448456647000,4.63464697265625,-7.106202602386475,4.131063461303711,-2.2898759841918945
1782778448466656800,4.64465673828125,-5.727935791015625,4.189809799194336,-2.374901533126831
1782778448476666400,4.654666259765625,-4.625215530395508,4.461020469665527,-2.0689172744750977
1782778448486645800,4.664645751953125,-4.084914207458496,4.656844139099121,-1.7535083293914795
1782778448496655600,4.674655517578125,-4.014754772186279,4.8957037925720215,-1.1989960670471191
1782778448506665200,4.684665283203125,-4.436545372009277,5.115670204162598,-0.4377831816673279
1782778448516644600,4.69464453125,-5.122107982635498,5.188966751098633,0.06315302848815918
1782778448526654200,4.704654296875,-5.502264022827148,5.384690761566162,0.2728137969970703
1782778448536664000,4.7146640625,-5.306082725524902,5.364539623260498,0.857991099357605
1782778448546643200,4.724643310546875,-5.752694606781006,4.5243964195251465,0.746058464050293
1782778448556653000,4.734653076171875,-6.210984230041504,3.3120784759521484,1.3039140701293945
1782778448566662700,4.74466259765625,-6.932631492614746,4.009122371673584,-1.4915823936462402
1782778448576672500,4.754672607421875,-6.8191094398498535,4.519331932067871,-3.0057313442230225
1782778448586652000,4.76465185546875,-6.860327243804932,4.152453422546387,-1.5740208625793457
1782778448596661500,4.77466162109375,-7.606237411499023,3.8147449493408203,-0.21380174160003662
1782778448606671400,4.78467138671875,-8.272956848144531,3.90535569190979,0.39580345153808594
1782778448616650800,4.794650634765625,-8.525059700012207,4.155045509338379,0.8295831084251404
1782778448626660400,4.804660400390625,-8.7272310256958,4.406876087188721,1.4174306392669678
1782778448636670200,4.814670166015625,-8.91555118560791,4.47517204284668,2.091794013977051
1782778448646649300,4.8246494140625,-9.153175354003906,4.317624568939209,2.942336082458496
1782778448656659000,4.834658935546875,-9.45044231414795,4.531805992126465,4.105240821838379
1782778448666668800,4.844668701171875,-10.707042694091797,4.159110069274902,5.071870803833008
1782778448676648200,4.854648193359375,-11.091279983520508,3.739732027053833,4.506470203399658
1782778448686657800,4.86465771484375,-10.074429512023926,3.165590763092041,2.242950439453125
1782778448696667600,4.874667724609375,-7.730782508850098,2.2048144340515137,-1.1019703149795532
1782778448706647000,4.88464697265625,-5.804102897644043,1.663973093032837,-2.7599422931671143
1782778448716656600,4.89465673828125,-2.814842700958252,1.9300687313079834,-1.7399228811264038
1782778448726666500,4.90466650390625,-0.2936592102050781,3.139204978942871,1.1121716499328613
1782778448736645600,4.914645751953125,2.6489486694335938,5.051401138305664,3.3898181915283203
1782778448746655500,4.924655517578125,6.984986305236816,6.8748064041137695,3.9007151126861572
1782778448756665000,4.9346650390625,10.10913372039795,8.531753540039062,3.064351797103882
1782778448766644500,4.94464453125,10.652107238769531,9.881900787353516,1.1335320472717285
1782778448776654000,4.954654052734375,9.600475311279297,11.556102752685547,0.5567873120307922
1782778448786664000,4.964663818359375,10.736769676208496,11.909274101257324,0.12236666679382324
1782778448796643300,4.974643310546875,17.084651947021484,10.103734970092773,-1.1936328411102295
1782778448806653000,4.98465283203125,22.88866424560547,10.421191215515137,-2.6338937282562256
1782778448816662800,4.994662841796875,28.29861831665039,11.592432975769043,-3.6185197830200195
1782778448826672600,5.004672607421875,32.367698669433594,10.424468994140625,-4.0828094482421875
1782778448836651800,5.01465185546875,32.30329513549805,8.983755111694336,-3.39512300491333
1782778448846661400,5.024661376953125,29.456283569335938,9.460916519165039,0.09367227554321289
1782778448857572000,5.035572021484375,24.160720825195312,10.766117095947266,6.3158278465271
1782778448876660200,5.05466015625,15.743853569030762,11.964444160461426,9.350632667541504
1782778448886670000,5.064670166015625,11.696574211120605,10.508403778076172,6.613338470458984
1782778448896649500,5.0746494140625,8.245573043823242,9.523195266723633,3.4141480922698975
1782778448906659000,5.0846591796875,5.239131927490234,8.834720611572266,0.6446033716201782
1782778448916669000,5.0946689453125,3.2311601638793945,7.982337474822998,-1.7162284851074219
1782778448926648000,5.10464794921875,1.8558664321899414,6.893200397491455,-3.5870537757873535
1782778448936657700,5.11465771484375,1.2261953353881836,5.877028465270996,-2.393813371658325
1782778448946667500,5.12466748046875,1.1756019592285156,4.992579936981201,-0.3471713960170746
1782778448956647000,5.13464697265625,1.3685665130615234,4.96309757232666,1.2290899753570557
1782778448966656500,5.144656494140625,1.3598642349243164,4.992283344268799,2.424581289291382
1782778448976666400,5.154666259765625,1.0557899475097656,4.5960540771484375,2.9058237075805664
1782778448986645800,5.164645751953125,0.14268779754638672,4.174644947052002,2.593705654144287
1782778448996655400,5.1746552734375,-1.3287367820739746,4.267083168029785,1.6204688549041748
1782778449006665200,5.184665283203125,-3.408292770385742,4.274814605712891,-0.035440146923065186
1782778449016644600,5.19464453125,-5.119513511657715,3.9267895221710205,-2.0000054836273193
1782778449026654200,5.204654296875,-6.578431606292725,3.586003303527832,-3.4439358711242676
1782778449036664000,5.2146640625,-7.582273483276367,3.462833881378174,-4.140003204345703
1782778449046643200,5.224643310546875,-8.340912818908691,3.5039174556732178,-3.8641741275787354
1782778449056652800,5.23465283203125,-9.172730445861816,3.606649875640869,-3.151064157485962
1782778449066662700,5.24466259765625,-9.928254127502441,3.917872428894043,-2.23362135887146
1782778449076672500,5.254672607421875,-10.579607009887695,4.0340423583984375,-1.238898515701294
1782778449086652000,5.26465185546875,-11.466451644897461,3.8833470344543457,-0.38366660475730896
1782778449096661500,5.27466162109375,-11.935583114624023,3.6738522052764893,-0.22764939069747925
1782778449106671400,5.28467138671875,-11.620590209960938,3.5649476051330566,-0.8848019242286682
1782778449116650800,5.294650634765625,-11.536394119262695,2.8492343425750732,-1.4483767747879028
1782778449126660400,5.304660400390625,-11.295650482177734,2.6446070671081543,-1.7294209003448486
1782778449136670200,5.314670166015625,-10.566938400268555,2.812852382659912,-1.6459143161773682
1782778449146649300,5.3246494140625,-9.483256340026855,2.7652664184570312,-1.3423657417297363
1782778449156767700,5.334767822265625,-8.272768020629883,2.6561663150787354,-0.9081028699874878
1782778449166638300,5.344638427734375,-6.979491233825684,2.860466241836548,-0.5114440321922302
1782778449176648200,5.354648193359375,-5.775238990783691,3.3376920223236084,0.14395299553871155
1782778449186657800,5.36465771484375,-4.711329460144043,3.700279951095581,0.872738242149353
1782778449196667600,5.374667724609375,-3.9984798431396484,3.9559326171875,1.2530049085617065
1782778449206647000,5.38464697265625,-3.5738348960876465,4.312427520751953,1.4783142805099487
1782778449216657000,5.394656982421875,-3.369853973388672,4.301210880279541,1.208082914352417
1782778449226666500,5.40466650390625,-3.675571918487549,4.118919372558594,0.5629118084907532
1782778449236645600,5.414645751953125,-4.339641571044922,4.372406005859375,0.1742987334728241
1782778449246655200,5.4246552734375,-5.047728061676025,4.659704208374023,0.1511974036693573
1782778449256665000,5.4346650390625,-5.613025665283203,4.788381099700928,0.504696249961853
1782778449266644500,5.44464453125,-6.481235980987549,4.930624961853027,1.2156383991241455
1782778449276654300,5.454654296875,-7.080060958862305,4.943225383758545,1.2492740154266357
1782778449286664000,5.464663818359375,-7.4561238288879395,4.885980606079102,0.965049684047699
1782778449296643300,5.474643310546875,-7.767806529998779,4.721371650695801,0.663812518119812
1782778449306334500,5.48433447265625,-8.006178855895996,4.726832389831543,0.7454462647438049
1782778449316662800,5.494662841796875,-8.301848411560059,4.603386402130127,1.078342080116272
1782778449326672400,5.50467236328125,-8.770110130310059,4.03748893737793,1.0690076351165771
1782778449336651800,5.51465185546875,-9.304418563842773,3.75575852394104,0.8111840486526489
1782778449346661400,5.524661376953125,-9.31093978881836,3.711668014526367,0.6150896549224854
1782778449356780000,5.534780029296875,-8.062736511230469,3.2891809940338135,0.6627379059791565
1782778449366650600,5.544650634765625,-6.710975646972656,3.0599193572998047,1.4665238857269287
1782778449376660200,5.55466015625,-5.333454132080078,3.652024030685425,2.0996217727661133
1782778449386670000,5.564670166015625,-3.4504504203796387,4.279263496398926,2.031200408935547
1782778449396649500,5.5746494140625,-1.5986876487731934,4.657223701477051,1.3371596336364746
1782778449406659000,5.5846591796875,0.14606380462646484,6.533242225646973,1.102419376373291
1782778449416669000,5.5946689453125,3.471072196960449,8.667129516601562,0.629625141620636
1782778449426648000,5.60464794921875,13.15591812133789,9.522497177124023,0.5856923460960388
1782778449436657700,5.61465771484375,19.34413719177246,9.488189697265625,2.279404401779175
1782778449446667500,5.62466748046875,20.421728134155273,10.838252067565918,1.5656898021697998
1782778449456647000,5.63464697265625,20.209739685058594,9.56561279296875,0.8441866040229797
1782778449466656800,5.64465673828125,18.92644691467285,7.994285583496094,-0.05775487422943115
1782778449476666400,5.654666259765625,17.885921478271484,7.955554962158203,-1.5107215642929077
1782778449486645800,5.664645751953125,18.565834045410156,8.242100715637207,0.10569882392883301
1782778449496655600,5.674655517578125,20.259639739990234,8.310504913330078,2.622892379760742
1782778449506665200,5.684665283203125,21.613006591796875,9.072540283203125,5.7576189041137695
1782778449516644600,5.69464453125,22.303848266601562,10.879838943481445,9.921359062194824
1782778449526654200,5.704654296875,20.644935607910156,12.513903617858887,12.536895751953125
1782778449536664000,5.7146640625,17.634002685546875,12.762504577636719,12.462180137634277
1782778449546643200,5.724643310546875,15.408391952514648,11.351236343383789,8.265188217163086
1782778449556653000,5.734653076171875,14.088553428649902,8.43734359741211,1.553468108177185
1782778449566662700,5.74466259765625,11.354093551635742,6.628159523010254,-3.7532215118408203
1782778449576672500,5.754672607421875,8.141375541687012,6.028782844543457,-4.838921070098877
1782778449586652000,5.76465185546875,4.251437187194824,6.121447563171387,-3.5030322074890137
1782778449596661500,5.77466162109375,0.5243053436279297,5.639278888702393,-1.2619349956512451
1782778449606671400,5.78467138671875,-2.1377363204956055,4.9343438148498535,0.19765233993530273
1782778449616650800,5.794650634765625,-3.6348342895507812,4.687462329864502,1.3068121671676636
1782778449626660400,5.804660400390625,-3.9388160705566406,4.813157081604004,2.8237228393554688
1782778449636670200,5.814670166015625,-2.2770161628723145,5.009945869445801,4.43516206741333
1782778449646649300,5.8246494140625,-0.9308567047119141,4.63897705078125,4.322023391723633
1782778449656659000,5.834658935546875,-0.5784711837768555,3.8128631114959717,1.6645991802215576
1782778449666668800,5.844668701171875,-0.2424173355102539,3.252040147781372,-0.9468620419502258
1782778449676648200,5.854648193359375,0.13923358917236328,3.060817003250122,-2.431358814239502
1782778449686657800,5.86465771484375,0.3386039733886719,3.180772542953491,-3.464813232421875
1782778449696667600,5.874667724609375,-0.6491909027099609,3.5438408851623535,-3.5243377685546875
1782778449706647000,5.88464697265625,-2.5481138229370117,4.099431991577148,-3.125903606414795
1782778449716656600,5.89465673828125,-4.804225444793701,4.51048469543457,-2.2208919525146484
1782778449726666500,5.90466650390625,-6.756903648376465,4.894962787628174,-1.1761360168457031
1782778449736645600,5.914645751953125,-8.1864652633667,5.36393928527832,-0.6518164873123169
1782778449746655500,5.924655517578125,-9.193788528442383,5.384702205657959,-0.26411867141723633
1782778449756787200,5.934787109375,-9.799930572509766,4.902111053466797,-0.9067617058753967
1782778449766753300,5.944753173828125,-10.146639823913574,4.786706447601318,-1.7738115787506104
1782778449776654000,5.954654052734375,-9.942989349365234,4.237276077270508,-2.1937601566314697
1782778449786664000,5.964663818359375,-9.456076622009277,3.820556640625,-2.425137758255005
1782778449796643300,5.974643310546875,-8.622143745422363,3.7374565601348877,-2.39150333404541
1782778449806653000,5.98465283203125,-7.684216022491455,3.6840357780456543,-1.853265404701233
1782778449816662800,5.994662841796875,-6.333139419555664,3.650245189666748,-1.3644750118255615
1782778449826672600,6.004672607421875,-5.469332695007324,3.7467174530029297,-0.8480948209762573
1782778449836651800,6.01465185546875,-5.286431312561035,3.8789916038513184,-0.4922409653663635
1782778449846661400,6.024661376953125,-5.461516380310059,3.97145676612854,-0.14228782057762146
1782778449856671200,6.034671142578125,-6.000131607055664,3.9529714584350586,-0.009247283451259136
1782778449866650600,6.044650634765625,-6.662956714630127,3.904869318008423,-0.06885945796966553
1782778449876660200,6.05466015625,-7.144291877746582,3.845409393310547,-0.15681378543376923
1782778449886670000,6.064670166015625,-7.382737159729004,3.7325286865234375,-0.1743031144142151
1782778449896649500,6.0746494140625,-7.6404876708984375,3.9736087322235107,0.23152080178260803
1782778449906659000,6.0846591796875,-8.123814582824707,4.227484703063965,1.2327830791473389
1782778449916686000,6.09468603515625,-8.904374122619629,4.1566314697265625,1.747654676437378
1782778449926648000,6.10464794921875,-9.610137939453125,4.225064754486084,1.6014114618301392
1782778449936658000,6.114657958984375,-9.869115829467773,4.156041145324707,1.3949816226959229
1782778449946667500,6.12466748046875,-9.669158935546875,4.02039098739624,1.2881417274475098
1782778449956209700,6.134209716796875,-9.121979713439941,3.9786324501037598,1.0047383308410645
1782778449966656500,6.144656494140625,-8.8319673538208,4.005696773529053,1.0431618690490723
1782778449976775000,6.15477490234375,-9.008208274841309,3.995448589324951,1.494026780128479
1782778449986645800,6.164645751953125,-8.942801475524902,3.9260916709899902,1.8004000186920166
1782778449996655400,6.1746552734375,-8.472028732299805,3.6257779598236084,1.4994194507598877
1782778450006773800,6.184773681640625,-8.014700889587402,3.31825590133667,0.7840441465377808
1782778450016644600,6.19464453125,-7.443574905395508,3.3327138423919678,0.6590596437454224
1782778450026654200,6.204654296875,-6.2152419090271,3.094087600708008,0.7123121023178101
1782778450036664000,6.2146640625,-4.3015265464782715,3.02431058883667,0.3424432873725891
1782778450046643200,6.224643310546875,-3.2954959869384766,3.2509820461273193,0.6678709387779236
1782778450056652800,6.23465283203125,-2.771237850189209,3.8972678184509277,1.0407872200012207
1782778450066662700,6.24466259765625,-1.4028558731079102,4.928738594055176,0.04558098316192627
1782778450076672500,6.254672607421875,0.6821155548095703,6.890449523925781,-0.8823024034500122
1782778450086652000,6.26465185546875,1.6711645126342773,7.906189441680908,-1.1663522720336914
1782778450096661500,6.27466162109375,1.7460012435913086,9.353202819824219,-0.4032706022262573
1782778450106671400,6.28467138671875,3.7691478729248047,11.208417892456055,0.9105653762817383
1782778450116650800,6.294650634765625,8.150404930114746,11.463371276855469,2.8528881072998047
1782778450126660400,6.304660400390625,11.923232078552246,9.792667388916016,4.9475555419921875
1782778450136670200,6.314670166015625,16.582626342773438,8.13724136352539,5.061802864074707
1782778450146649300,6.3246494140625,23.453392028808594,7.670458793640137,5.508649826049805
1782778450156659000,6.334658935546875,30.608551025390625,7.5898542404174805,7.011628150939941
1782778450166668800,6.344668701171875,35.055938720703125,7.132065773010254,7.750953197479248
1782778450176648200,6.354648193359375,33.167198181152344,6.831293106079102,7.213247299194336
1782778450186657800,6.36465771484375,26.12908935546875,6.519591331481934,6.040318012237549
1782778450196667600,6.374667724609375,18.142051696777344,5.60859489440918,5.208709716796875
1782778450206647000,6.38464697265625,11.249561309814453,5.269986152648926,6.915108680725098
1782778450216657000,6.394656982421875,13.367426872253418,5.091651439666748,9.239313125610352
1782778450226666500,6.40466650390625,19.226024627685547,4.285456657409668,8.8224458694458
1782778450236645600,6.414645751953125,24.84528350830078,3.541146993637085,6.417567729949951
1782778450246655200,6.4246552734375,27.215675354003906,3.338815450668335,4.107134819030762
1782778450256665000,6.4346650390625,26.626832962036133,4.385474681854248,4.567784309387207
1782778450266644500,6.44464453125,23.653911590576172,5.830361843109131,6.368628978729248
1782778450276654300,6.454654296875,19.32155990600586,7.078370094299316,6.247527122497559
1782778450286664000,6.464663818359375,13.192917823791504,7.876508712768555,5.554856300354004
1782778450296643300,6.474643310546875,6.067617416381836,7.578922748565674,3.7644100189208984
1782778450306653200,6.484653076171875,-0.40182018280029297,6.849118232727051,0.5838815569877625
1782778450316662800,6.494662841796875,-5.261837959289551,5.722276210784912,-2.5767295360565186
1782778450326672400,6.50467236328125,-7.6242570877075195,4.721254348754883,-7.004943370819092
1782778450336651800,6.51465185546875,-8.98130989074707,4.325969219207764,-5.812529563903809
1782778450346661400,6.524661376953125,-9.216365814208984,4.736034870147705,-2.3441717624664307
1782778450356671200,6.534671142578125,-10.02975845336914,5.518962860107422,-0.07595526427030563
1782778450366650600,6.544650634765625,-11.684664726257324,5.464707374572754,0.5717825293540955
1782778450376660200,6.55466015625,-12.250514030456543,5.029768466949463,-0.4818633496761322
1782778450386670000,6.564670166015625,-11.85103988647461,4.752167701721191,-2.092136859893799
1782778450396649500,6.5746494140625,-11.337416648864746,4.1591901779174805,-2.740022897720337
1782778450406659000,6.5846591796875,-10.910317420959473,3.8460512161254883,-2.5208559036254883
1782778450416669000,6.5946689453125,-10.796431541442871,3.755624532699585,-2.0099260807037354
1782778450426648000,6.60464794921875,-10.827329635620117,3.4744768142700195,-1.4090317487716675
1782778450436658000,6.614657958984375,-10.699851989746094,3.250580072402954,-0.9795627593994141
1782778450446667500,6.62466748046875,-10.703232765197754,3.2793917655944824,-0.3907400369644165
1782778450456647000,6.63464697265625,-10.85702133178711,3.2489612102508545,0.31211405992507935
1782778450466656800,6.64465673828125,-11.03866958618164,3.1038613319396973,0.7714316844940186
1782778450476348000,6.654347900390625,-11.353331565856934,3.082606554031372,0.7622733116149902
1782778450486645800,6.664645751953125,-11.535894393920898,2.829826593399048,0.5565223097801208
1782778450496655600,6.674655517578125,-11.832454681396484,2.472287654876709,0.6425743699073792
1782778450506665200,6.684665283203125,-11.94034194946289,2.078526258468628,0.6933737397193909
1782778450516644600,6.69464453125,-12.080938339233398,1.7452969551086426,0.6657025218009949
1782778450526654200,6.704654296875,-11.91659927368164,1.5791678428649902,0.8110059499740601
1782778450536664000,6.7146640625,-11.654720306396484,1.6133852005004883,1.2686494588851929
1782778450546643200,6.724643310546875,-11.568398475646973,1.820637822151184,2.0891475677490234
1782778450556653000,6.734653076171875,-11.284627914428711,1.7390576601028442,2.760863780975342
1782778450566557700,6.7445576171875,-10.972064971923828,1.7189126014709473,2.949267625808716
1782778450576642000,6.75464208984375,-10.633857727050781,1.8193784952163696,2.8665080070495605
1782778450586652000,6.76465185546875,-10.007244110107422,1.463566541671753,2.5890111923217773
1782778450596936200,6.774936279296875,-9.662961959838867,1.438715934753418,2.2633652687072754
1782778450606671400,6.78467138671875,-9.23125171661377,1.5838301181793213,2.6831624507904053
1782778450616759300,6.79475927734375,-8.32448673248291,1.7880018949508667,3.3837294578552246
1782778450626660400,6.804660400390625,-7.415688514709473,1.789793610572815,3.841515064239502
1782778450636670200,6.814670166015625,-5.857312202453613,1.6532313823699951,3.8119280338287354
1782778450646649300,6.8246494140625,-8.134971618652344,1.096837043762207,1.7516255378723145
1782778450656659000,6.834658935546875,-8.956628799438477,0.4613535404205322,0.07869672775268555
1782778450666668800,6.844668701171875,-8.517060279846191,1.2988231182098389,1.13361656665802
1782778450676648200,6.854648193359375,-7.241035461425781,2.0141561031341553,3.789398193359375
1782778450686657800,6.86465771484375,-5.6478376388549805,2.327805519104004,4.605461597442627
1782778450696667600,6.874667724609375,-3.8094301223754883,3.554511547088623,2.9338579177856445
1782778450706647000,6.88464697265625,-1.0947904586791992,4.689881324768066,1.9314144849777222
1782778450716656600,6.89465673828125,-0.9952154159545898,4.7126383781433105,0.1530613899230957
