time,seconds_elapsed,z,y,x
1782778820817071600,0.180071533203125,0.36102136969566345,0.5516113042831421,0.8973610401153564
1782778820827065600,0.190065673828125,0.36102136969566345,0.5516113042831421,0.8973610401153564
1782778820837091000,0.200091064453125,0.36102136969566345,0.5516113042831421,0.8973610401153564
1782778820847054600,0.2100546875,-0.40256020426750183,-1.7446311712265015,-1.7287486791610718
1782778820857079800,0.220079833984375,-0.6951646208763123,-1.351233959197998,-1.2412781715393066
1782778820867074300,0.23007421875,-0.79840087890625,-0.8539896011352539,-1.38849675655365
1782778820877069600,0.240069580078125,-0.769079327583313,-0.5485569834709167,-1.2651019096374512
1782778820887063000,0.25006298828125,-0.6866125464439392,-0.27550023794174194,-0.9468411207199097
1782778820897093600,0.26009375,-0.5619960427284241,0.048258353024721146,-0.5094616413116455
1782778820907052300,0.27005224609375,-0.37690386176109314,0.32070425152778625,-0.012828170321881771
1782778820917085200,0.280085205078125,-0.14844025671482086,0.5345070958137512,0.4538728892803192
1782778820927072300,0.290072265625,0.04092797264456749,0.6536257863044739,0.7849618196487427
1782778820937074200,0.30007421875,0.1563815027475357,0.6065891981124878,0.9059131741523743
1782778820947061200,0.310061279296875,0.182648703455925,0.4691445231437683,0.7422012686729431
1782778820957091300,0.32009130859375,-0.0354301854968071,0.4703662395477295,0.16920967400074005
1782778820967050200,0.33005029296875,-0.23640485107898712,0.4184426963329315,-0.2541199326515198
1782778820977082600,0.34008251953125,-0.2590068578720093,0.34086281061172485,-0.6261368989944458
1782778820987069700,0.350069580078125,-0.16493362188339233,0.192422553896904,-0.8619308471679688
1782778820997100300,0.360100341796875,-0.03481931984424591,0.07941248267889023,-0.8515461683273315
1782778821007058700,0.37005859375,0.10262536257505417,0.13561208546161652,-0.7079927921295166
1782778821017089300,0.38008935546875,0.21991148591041565,0.25534167885780334,-0.5155702829360962
1782778821027047700,0.390047607421875,0.2938261926174164,0.4447098970413208,-0.2669481039047241
1782778821037079300,0.400079345703125,0.31459560990333557,0.5876523852348328,0.012217304669320583
1782778821047067400,0.4100673828125,0.303600013256073,0.5858197808265686,0.2834414839744568
1782778821057068300,0.420068359375,0.2883284091949463,0.47830748558044434,0.5229006409645081
1782778821067056400,0.430056396484375,0.28955012559890747,0.36102136969566345,0.6774495840072632
1782778821077088000,0.440087890625,0.2816088795661926,0.2822197377681732,0.7037167549133301
1782778821087075800,0.450075927734375,0.29077184200286865,0.28038713335990906,0.6261368989944458
1782778821097075500,0.460075439453125,0.31642818450927734,0.34636059403419495,0.5290092825889587
1782778821107065000,0.470065185546875,0.35063666105270386,0.43676865100860596,0.4740314185619354
1782778821117084400,0.48008447265625,0.3854559659957886,0.5100724697113037,0.46670106053352356
1782778821127053800,0.4900537109375,0.4178318381309509,0.5650503635406494,0.4758640229701996
1782778821137084200,0.500084228515625,0.42577308416366577,0.6316346526145935,0.5027421116828918
1782778821147073500,0.510073486328125,0.38606682419776917,0.7061602473258972,0.5662720799446106
1782778821157350100,0.52035009765625,0.33719760179519653,0.7238753437995911,0.6224716901779175
1782778821167070500,0.530070556640625,0.2968805134296417,0.6872233748435974,0.6450737118721008
1782778821177092600,0.540092529296875,0.24923302233219147,0.6053674817085266,0.6389650702476501
1782778821187051300,0.55005126953125,0.19425514340400696,0.4960225820541382,0.6047565937042236
1782778821197081600,0.56008154296875,0.13805554807186127,0.37629300355911255,0.5473352670669556
1782778821207070700,0.57007080078125,0.07269296050071716,0.28649580478668213,0.49357911944389343
1782778821217073000,0.580072998046875,0.04398229718208313,0.2376265823841095,0.46792277693748474
1782778821227060000,0.59006005859375,0.06536258012056351,0.21868975460529327,0.4508185386657715
1782778821236894500,0.59989453125,0.09407325088977814,0.22602014243602753,0.4349360466003418
1782778821247049000,0.610049072265625,0.12461651116609573,0.2938261926174164,0.44165557622909546
1782778821257080000,0.620080078125,0.1820378452539444,0.4758640229701996,0.45204028487205505
1782778821267068400,0.630068359375,0.252287358045578,0.7214318513870239,0.4386012554168701
1782778821277069600,0.640069580078125,0.3243694305419922,0.9431759119033813,0.45875978469848633
1782778821287057700,0.6500576171875,0.45142942667007446,1.06657075881958,0.5320636034011841
1782778821297087700,0.660087646484375,0.5687155723571777,1.0836749076843262,0.5595525503158569
1782778821307046400,0.67004638671875,0.6291912198066711,0.9297369122505188,0.5595525503158569
1782778821317079600,0.68007958984375,0.6444628238677979,0.44593164324760437,0.5149593949317932
1782778821327066000,0.690066162109375,0.6542366743087769,-0.2785545587539673,0.32070425152778625
1782778821337097200,0.70009716796875,0.5992587804794312,-0.7189884185791016,0.09407325088977814
1782778821347055000,0.71005517578125,0.3536909818649292,-0.827111542224884,-0.0959058403968811
1782778821357085200,0.720085205078125,0.030543262138962746,-0.8729264140129089,-0.4715879559516907
1782778821367074600,0.730074462890625,-0.1563815027475357,-0.6151412725448608,-0.9920451641082764
1782778821377074400,0.740074462890625,-0.21074850857257843,-0.3274237811565399,-1.6701055765151978
1782778821397095400,0.760095458984375,-0.342695415019989,0.05619960278272629,-1.2302825450897217
1782778821407052500,0.770052490234375,-0.15943582355976105,0.04581489413976669,-0.4544837474822998
1782778821417084200,0.780084228515625,0.13805554807186127,-0.26633724570274353,0.2968805134296417
1782778821427072300,0.790072265625,0.2877175211906433,-0.770301103591919,0.7391469478607178
1782778821437072000,0.80007177734375,0.22968533635139465,-1.168585181236267,0.8753699064254761
1782778821447061200,0.810061279296875,0.08918632566928864,-1.4282029867172241,0.7904596328735352
1782778821457091300,0.82009130859375,-0.07635815441608429,-1.567480206489563,0.6249151229858398
1782778821467050200,0.83005029296875,-0.2431243658065796,-1.6242907047271729,0.42638394236564636
1782778821477080600,0.84008056640625,-0.36224308609962463,-1.5583171844482422,0.18875735998153687
1782778821487069700,0.850069580078125,-0.4538728892803192,-1.33168625831604,-0.06414084881544113
1782778821497069600,0.860069580078125,-0.5436700582504272,-1.035416603088379,-0.303600013256073
1782778821507058700,0.87005859375,-0.6450737118721008,-0.7660250067710876,-0.48258355259895325
1782778821517089300,0.88008935546875,-0.7428121566772461,-0.5247332453727722,-0.6017022728919983
1782778821527048000,0.8900478515625,-0.7843509912490845,-0.2834414839744568,-0.6768386960029602
1782778821537078300,0.900078369140625,-0.7348709106445312,-0.014049900695681572,-0.7110471725463867
1782778821547067400,0.9100673828125,-0.6548475623130798,0.26083946228027344,-0.7098253965377808
1782778821557068300,0.920068359375,-0.607810914516449,0.4917465150356293,-0.6664539575576782
1782778821567056400,0.930056396484375,-0.646295428276062,0.5650503635406494,-0.5375614166259766
1782778821577088800,0.9400888671875,-0.646906316280365,0.46547931432724,-0.19914206862449646
1782778821587075800,0.950075927734375,-0.4948008358478546,0.41172316670417786,0.3384193480014801
1782778821597078000,0.960078125,-0.2785545587539673,0.3530801236629486,0.8912523984909058
1782778821607064800,0.97006494140625,-0.12461651116609573,0.24068090319633484,1.3451253175735474
1782778821617095200,0.98009521484375,-0.05742133408784866,0.15760323405265808,1.6786576509475708
1782778821627053800,0.9900537109375,-0.05009094998240471,0.06963863968849182,1.8380935192108154
1782778821637086500,1.00008642578125,-0.09468411654233932,0.0024434609804302454,1.7623462677001953
1782778821647073500,1.010073486328125,-0.08368854224681854,0.04092797264456749,1.42637038230896
1782778821657075500,1.020075439453125,-0.06536258012056351,0.19975294172763824,0.9633345007896423
1782778821667062500,1.0300625,-0.007941247895359993,0.3396410644054413,0.46547931432724
1782778821677095200,1.04009521484375,0.12522737681865692,0.375071257352829,-0.021991148591041565
1782778821687051500,1.050051513671875,0.2938261926174164,0.384845107793808,-0.44165557622909546
1782778821697081900,1.060081787109375,0.4282165467739105,0.4080579876899719,-0.7409795522689819
1782778821707071000,1.070071044921875,0.5326744914054871,0.4538728892803192,-0.8845328688621521
1782778821717070800,1.08007080078125,0.6328563690185547,0.4605923891067505,-0.9150761365890503
1782778821727060000,1.09006005859375,0.6933320760726929,0.4331034719944,-0.8875871896743774
1782778821737092400,1.10009228515625,0.6902777552604675,0.4355469346046448,-0.7831292152404785
1782778821747049000,1.110049072265625,0.6591235995292664,0.5338962078094482,-0.5693264007568359
1782778821757079600,1.12007958984375,0.618195652961731,0.6640105247497559,-0.31093040108680725
1782778821767068700,1.130068603515625,0.5791002511978149,0.7849618196487427,-0.1258382350206375
1782778821777068300,1.140068359375,0.543059229850769,0.8998045325279236,-0.03481931984424591
1782778821786627600,1.149627685546875,0.5155702829360962,0.9999864101409912,-0.02382374368607998
1782778821797096000,1.160095947265625,0.5626068711280823,1.0855075120925903,-0.13805554807186127
1782778821807046700,1.170046630859375,0.6291912198066711,1.0977247953414917,-0.24129177629947662
1782778821817185500,1.180185546875,0.6499606370925903,1.1007791757583618,-0.3323107063770294
1782778821827065600,1.190065673828125,0.6035348773002625,1.0971139669418335,-0.3927863538265228
1782778821837098200,1.20009814453125,0.5290092825889587,1.053742527961731,-0.4147774875164032
1782778821847163000,1.210162841796875,0.4288274049758911,0.921184778213501,-0.45631635189056396
1782778821857087200,1.220087158203125,0.2919935882091522,0.7214318513870239,-0.5119050741195679
1782778821867074000,1.230073974609375,0.2064724564552307,0.5564982295036316,-0.5070181488990784
1782778821877074400,1.240074462890625,0.21135938167572021,0.49785518646240234,-0.4440990388393402
1782778821887063000,1.25006298828125,0.26939156651496887,0.4337143301963806,-0.34513887763023376
1782778821897094400,1.260094482421875,0.35185837745666504,0.1875356286764145,-0.19120082259178162
1782778821907052300,1.27005224609375,0.5106833577156067,-0.23090706765651703,0.04642575979232788
1782778821917084200,1.280084228515625,0.8216137290000916,-0.484416127204895,0.3445279896259308
1782778821927072300,1.290072265625,1.2046263217926025,-0.3787364661693573,0.5363397002220154
1782778821937072600,1.30007275390625,1.4868459701538086,0.09773843735456467,0.5791002511978149
1782778821947061200,1.310061279296875,1.522887110710144,0.720820963382721,0.5815436840057373
1782778821957092400,1.32009228515625,1.3946053981781006,0.8600982427597046,0.5558874011039734
1782778821967050200,1.33005029296875,1.2412781715393066,0.40194934606552124,0.3793473243713379
1782778821977080600,1.34008056640625,1.1594222784042358,-0.22418753802776337,-0.024434609338641167
1782778821987069700,1.350069580078125,1.0024298429489136,-0.7067710757255554,-0.5351179838180542
1782778821997069800,1.36006982421875,0.7360926270484924,-0.6963863968849182,-0.8991936445236206
1782778822007058700,1.37005859375,0.4893030524253845,-0.694553792476654,-1.102611780166626
1782778822017089300,1.38008935546875,0.1716531366109848,-1.0115928649902344,-1.1380419731140137
1782778822037079300,1.400079345703125,-0.25473082065582275,-1.4526375532150269,-0.43799036741256714
1782778822047067400,1.4100673828125,-0.02932153269648552,-1.197906732559204,0.2571742534637451
1782778822057068300,1.420068359375,0.2877175211906433,-0.9553932547569275,0.7678576111793518
1782778822067056400,1.430056396484375,0.38667771220207214,-0.8582656979560852,0.8454375267028809
1782778822077086700,1.440086669921875,0.3219259977340698,-0.8063421249389648,0.6059783101081848
1782778822087075800,1.450075927734375,0.17104226350784302,-0.8399397134780884,0.2474004179239273
1782778822097075700,1.46007568359375,-0.0555887371301651,-0.9926560521125793,-0.09651670604944229
1782778822107065000,1.470065185546875,-0.3121521472930908,-1.160033106803894,-0.3885102868080139
1782778822117095200,1.48009521484375,-0.48197266459465027,-1.2394455671310425,-0.6151412725448608
1782778822127053800,1.4900537109375,-0.588263213634491,-1.1728612184524536,-0.8112290501594543
1782778822137084200,1.500084228515625,-0.7299839854240417,-1.045190453529358,-1.0054842233657837
1782778822147073300,1.5100732421875,-0.8820894360542297,-0.9810495972633362,-1.166752576828003
1782778822157073000,1.520072998046875,-0.9456194043159485,-0.9944885969161987,-1.1838568449020386
1782778822167062500,1.5300625,-0.8943067193031311,-0.9053022861480713,-0.9847147464752197
1782778822177094000,1.540093994140625,-0.7709119319915771,-0.7018841505050659,-0.6524040699005127
1782778822187051500,1.550051513671875,-0.6224716901779175,-0.4043927788734436,-0.2828305959701538
1782778822197083100,1.560083251953125,-0.4996877610683441,-0.05619960278272629,0.054367005825042725
1782778822207070700,1.57007080078125,-0.38117989897727966,0.27977627515792847,0.3335324227809906
1782778822217070800,1.58007080078125,-0.32681289315223694,0.6914994716644287,0.4813618063926697
1782778822227060000,1.59006005859375,-0.4043927788734436,0.9004153609275818,0.38606682419776917
1782778822237090300,1.60009033203125,-0.49846604466438293,0.9859365224838257,0.20952677726745605
1782778822247049000,1.610049072265625,-0.5595525503158569,0.8747590184211731,0.006719517521560192
1782778822257079300,1.620079345703125,-0.5797111392021179,0.6322455406188965,-0.17776179313659668
1782778822267068400,1.630068359375,-0.5760459303855896,0.39767327904701233,-0.32620203495025635
1782778822277070800,1.64007080078125,-0.5271766781806946,0.17287486791610718,-0.4306600093841553
1782778822287057400,1.650057373046875,-0.4404338300228119,0.036651913076639175,-0.49785518646240234
1782778822297088000,1.660087890625,-0.35735616087913513,-0.022602014243602753,-0.5436700582504272
1782778822307046700,1.670046630859375,-0.27000242471694946,0.00855211354792118,-0.5693264007568359
1782778822317076500,1.680076416015625,-0.17959438264369965,0.07330382615327835,-0.5638286471366882
1782778822327065900,1.69006591796875,-0.08368854224681854,0.10262536257505417,-0.5302310585975647
1782778822337096400,1.700096435546875,-0.015882495790719986,0.03848451003432274,-0.5271766781806946
1782778822347055000,1.71005517578125,0.00427605677396059,-0.02626720629632473,-0.5259549617767334
1782778822357195500,1.720195556640625,-0.01710422709584236,-0.05375614017248154,-0.5106833577156067
1782778822367044400,1.73004443359375,-0.07452555745840073,-0.0806342139840126,-0.4954117238521576
1782778822377075000,1.740074951171875,-0.14966198801994324,-0.11301007121801376,-0.45753806829452515
1782778822387063600,1.7500634765625,-0.21319197118282318,-0.13011430203914642,-0.39584067463874817
1782778822397095200,1.76009521484375,-0.2535090744495392,-0.13988813757896423,-0.32009339332580566
1782778822407052500,1.770052490234375,-0.25106561183929443,-0.1160643994808197,-0.2217440903186798
1782778822417083100,1.780083251953125,-0.19364428520202637,-0.05253441259264946,-0.09285151958465576
1782778822427072300,1.790072265625,-0.08368854224681854,0.04214970022439957,0.06475171446800232
1782778822437073400,1.800073486328125,0.021991148591041565,0.11911872029304504,0.21930062770843506
1782778822447061200,1.810061279296875,0.07024950534105301,0.2021963894367218,0.35185837745666504
1782778822457091300,1.82009130859375,0.04886921867728233,0.31459560990333557,0.4502076804637909
1782778822467050200,1.83005029296875,-0.02015855349600315,0.44837507605552673,0.5308418869972229
1782778822477080600,1.84008056640625,-0.09834930300712585,0.5876523852348328,0.5949827432632446
1782778822487087400,1.85008740234375,-0.1661553531885147,0.6249151229858398,0.6041457056999207
1782778822497222100,1.86022216796875,-0.23151792585849762,0.5064072608947754,0.504574716091156
1782778822507058700,1.87005859375,-0.27122417092323303,0.32131510972976685,0.3084869384765625
1782778822517091000,1.880091064453125,-0.24984388053417206,0.27977627515792847,0.1062905490398407
1782778822527047700,1.890047607421875,-0.19975294172763824,0.3439171314239502,-0.042760565876960754
1782778822537078800,1.900078857421875,-0.15393804013729095,0.3799581825733185,-0.13988813757896423
1782778822547067400,1.9100673828125,-0.06414084881544113,0.4251621961593628,-0.18448130786418915
1782778822557068300,1.920068359375,0.08552113175392151,0.5167919993400574,-0.1667662113904953
1782778822567056400,1.930056396484375,0.26939156651496887,0.5613851547241211,0.03237585723400116
1782778822577087700,1.940087646484375,0.4056145250797272,0.5448917746543884,0.34147366881370544
1782778822597077000,1.960076904296875,0.44287729263305664,0.7049384713172913,0.7531968355178833
1782778822607065000,1.970065185546875,0.3488040566444397,0.5174028873443604,0.5949827432632446
1782778822617096200,1.98009619140625,0.2877175211906433,0.36163222789764404,0.15821409225463867
1782778822627053800,1.9900537109375,0.3530801236629486,0.475253164768219,-0.26633724570274353
1782778822637085400,2.00008544921875,0.5772676467895508,0.9871582388877869,-0.39645153284072876
1782778822647073500,2.010073486328125,0.8796459436416626,0.9767735004425049,-0.1313360333442688
1782778822657074400,2.020074462890625,0.799011766910553,0.07024950534105301,0.054367005825042725
1782778822667062500,2.0300625,0.5314527750015259,-1.3781119585037231,0.11911872029304504
1782778822677092600,2.040092529296875,0.24007004499435425,-2.629163980484009,0.05864306539297104
1782778822687051500,2.050051513671875,-0.10384709388017654,-3.2375857830047607,0.051312681287527084
1782778822697081900,2.060081787109375,-0.5265658497810364,-3.0140092372894287,0.09957103431224823
1782778822707071000,2.070071044921875,-0.8985827565193176,-1.9785925149917603,-0.022602014243602753
1782778822717070600,2.080070556640625,-1.0109820365905762,-0.6035348773002625,-0.3646865487098694
1782778822727060000,2.09006005859375,-0.8894197940826416,0.5387831330299377,-0.7122688889503479
1782778822737091600,2.100091552734375,-0.7214318513870239,0.9352346658706665,-0.8429940342903137
1782778822747049000,2.110049072265625,-0.5210680365562439,0.6609562039375305,-0.7605272531509399
1782778822757079600,2.12007958984375,-0.4331034719944,0.18509216606616974,-0.5803219676017761
1782778822767068700,2.130068603515625,-0.5424483418464661,-0.1814269721508026,-0.4147774875164032
1782778822777068500,2.140068603515625,-0.7519751191139221,-0.3341432809829712,-0.323147714138031
1782778822787057700,2.1500576171875,-0.8875871896743774,-0.3170390725135803,-0.2968805134296417
1782778822797089300,2.16008935546875,-0.8906415104866028,-0.18448130786418915,-0.2974913716316223
1782778822807046700,2.170046630859375,-0.8020660877227783,0.02626720629632473,-0.2791654169559479
1782778822817076000,2.180075927734375,-0.6774495840072632,0.21930062770843506,-0.21624629199504852
1782778822827065600,2.190065673828125,-0.5412266254425049,0.3701843321323395,-0.09896016865968704
1782778822837098200,2.20009814453125,-0.38179078698158264,0.48685958981513977,0.06841690838336945
1782778822847054800,2.210054931640625,-0.21074850857257843,0.5522221922874451,0.24984388053417206
1782778822857085000,2.2200849609375,-0.06780604273080826,0.5406157374382019,0.39584067463874817
1782778822867074000,2.230073974609375,0.01160643994808197,0.5345070958137512,0.5418374538421631
1782778822877076700,2.24007666015625,-0.03298672288656235,0.5442809462547302,0.6878342628479004
1782778822887063000,2.25006298828125,-0.182648703455925,0.5222898125648499,0.759916365146637
1782778822897093600,2.26009375,-0.32681289315223694,0.48319441080093384,0.740368664264679
1782778822907052300,2.27005224609375,-0.4202753007411957,0.43615779280662537,0.6676757335662842
1782778822917083000,2.280082763671875,-0.4660901725292206,0.3683517575263977,0.5577199459075928
1782778822927072300,2.290072265625,-0.47708576917648315,0.34147366881370544,0.4282165467739105
1782778822937072000,2.300072021484375,-0.4709770977497101,0.3830125033855438,0.20341812074184418
1782778822947061200,2.310061279296875,-0.43127086758613586,0.47219884395599365,-0.09896016865968704
1782778822957091300,2.32009130859375,-0.3988949954509735,0.5259549617767334,-0.4129449129104614
1782778822967050200,2.33005029296875,-0.3933972120285034,0.503963828086853,-0.6713408827781677
1782778822977080300,2.340080322265625,-0.3842342495918274,0.4495968222618103,-0.8234463334083557
1782778822987069700,2.350069580078125,-0.3488040566444397,0.3952298164367676,-0.8594874143600464
1782778822997098800,2.3600986328125,-0.3023782968521118,0.31093040108680725,-0.7910705208778381
1782778823007058700,2.37005859375,-0.23518311977386475,0.2168571650981903,-0.616973876953125
1782778823017091300,2.38009130859375,-0.15454891324043274,0.1869247704744339,-0.3646865487098694
1782778823027047700,2.390047607421875,-0.0861319974064827,0.2174680233001709,-0.10934487730264664
1782778823037080300,2.400080322265625,-0.02321287989616394,0.26511552929878235,0.1007927656173706
1782778823047067400,2.4100673828125,0.02871066704392433,0.31520646810531616,0.242513507604599
1782778823057067000,2.42006689453125,0.051312681287527084,0.34697145223617554,0.3194825351238251
1782778823067239400,2.430239501953125,0.0403171069920063,0.3170390725135803,0.3378084897994995
1782778823077196000,2.440196044921875,0.05925392732024193,0.2638937830924988,0.2974913716316223
1782778823087045600,2.450045654296875,0.11484266817569733,0.21930062770843506,0.23273965716362
1782778823097075700,2.46007568359375,0.182648703455925,0.18936823308467865,0.19303341209888458
1782778823107064800,2.47006494140625,0.2626720666885376,0.1563815027475357,0.2021963894367218
1782778823117145600,2.4801455078125,0.3481931984424591,0.13316862285137177,0.25534167885780334
1782778823127053800,2.4900537109375,0.4147774875164032,0.08979719132184982,0.3494149148464203
1782778823137084200,2.500084228515625,0.4202753007411957,0.07452555745840073,0.4801400899887085
1782778823147073500,2.510073486328125,0.3536909818649292,0.12217304855585098,0.607200026512146
1782778823156694000,2.519694091796875,0.25045475363731384,0.19853121042251587,0.6713408827781677
1782778823167021800,2.530021728515625,0.15760323405265808,0.3170390725135803,0.6243042945861816
1782778823177952000,2.540951904296875,0.10567969083786011,0.4599815309047699,0.47280970215797424
1782778823197081600,2.56008154296875,0.001832595793530345,0.6817256212234497,0.15882496535778046
1782778823207030300,2.5700302734375,0.029932396486401558,0.6896668672561646,0.10690141469240189
1782778823217653000,2.580653076171875,0.20341812074184418,0.7434229850769043,0.19914206862449646
1782778823237153500,2.600153564453125,0.9633345007896423,0.46547931432724,0.14416420459747314
1782778823247049000,2.610049072265625,1.4007140398025513,-0.04764748737215996,-0.2883284091949463
1782778823257080000,2.620080078125,1.5454890727996826,-0.8442157506942749,-1.091616153717041
1782778823267068700,2.630068603515625,1.4080443382263184,-1.4220943450927734,-1.8112154006958008
1782778823277069600,2.640069580078125,1.1997393369674683,-1.2278391122817993,-1.9810359477996826
1782778823287057700,2.6500576171875,1.0684033632278442,-0.9040805697441101,-1.693318486213684
1782778823297087700,2.660087646484375,0.8918632864952087,-0.8332201838493347,-1.2687671184539795
1782778823317076700,2.68007666015625,0.47769662737846375,-1.4550809860229492,-0.8228355050086975
1782778823327066000,2.690066162109375,0.4605923891067505,-1.4245377779006958,-0.5021312236785889
1782778823337096400,2.700096435546875,0.4660901725292206,-1.0769554376602173,-0.09468411654233932
1782778823347055000,2.71005517578125,0.3933972120285034,-0.7134906053543091,0.192422553896904
1782778823357085200,2.720085205078125,0.1716531366109848,-0.4911356568336487,0.2376265823841095
1782778823367074800,2.73007470703125,-0.1612684279680252,-0.3897320330142975,0.10018189996480942
1782778823377074400,2.740074462890625,-0.5174028873443604,-0.37751471996307373,-0.09407325088977814
1782778823387063800,2.750063720703125,-0.8423831462860107,-0.4355469346046448,-0.242513507604599
1782778823397094100,2.76009423828125,-1.0280861854553223,-0.5681046843528748,-0.28955012559890747
1782778823407052500,2.770052490234375,-1.0512990951538086,-0.7751879692077637,-0.28099802136421204
1782778823417083100,2.780083251953125,-1.004873275756836,-1.0500773191452026,-0.2571742534637451
1782778823427072000,2.790072021484375,-0.9578366875648499,-1.3836097717285156,-0.20402899384498596
1782778823437073200,2.8000732421875,-0.9077457785606384,-1.6963727474212646,-0.09346238523721695
1782778823447061200,2.810061279296875,-0.8112290501594543,-1.7415767908096313,0.08307767659425735
1782778823457092400,2.82009228515625,-0.7220427393913269,-1.5613715648651123,0.25961771607398987
1782778823467050200,2.83005029296875,-0.6707300543785095,-1.2443325519561768,0.4337143301963806
1782778823477080600,2.84008056640625,-0.6615670323371887,-0.8338310718536377,0.6291912198066711
1782778823487069700,2.850069580078125,-0.7165449261665344,-0.2565633952617645,0.8283332586288452
1782778823497071600,2.860071533203125,-0.7055493593215942,-0.015882495790719986,0.8558222055435181
1782778823507059000,2.870058837890625,-0.6291912198066711,0.06291911751031876,0.8307767510414124
1782778823517089000,2.880089111328125,-0.5357288122177124,0.016493361443281174,0.7898487448692322
1782778823527047700,2.890047607421875,-0.4147774875164032,-0.045204028487205505,0.7654141783714294
1782778823537078000,2.900078125,-0.2840523421764374,-0.059864792972803116,0.7867944240570068
1782778823547067400,2.9100673828125,-0.18020524084568024,-0.03420845419168472,0.8356636762619019
1782778823557069300,2.9200693359375,-0.13927727937698364,0.02687807008624077,0.8631525635719299
1782778823567056600,2.930056640625,-0.1661553531885147,0.12400564551353455,0.7776314616203308
1782778823577086500,2.94008642578125,-0.19425514340400696,0.25534167885780334,0.5338962078094482
1782778823587075800,2.950075927734375,-0.18387043476104736,0.43188172578811646,0.19425514340400696
1782778823597075700,2.96007568359375,-0.1667662113904953,0.5681046843528748,-0.1771509200334549
1782778823607064800,2.97006494140625,-0.18570303916931152,0.6524040699005127,-0.5259549617767334
1782778823617095200,2.98009521484375,-0.2370157092809677,0.7079927921295166,-0.789237916469574
1782778823627053800,2.9900537109375,-0.2742784917354584,0.7476990818977356,-0.9340129494667053
1782778823637084400,3.00008447265625,-0.24678955972194672,0.7269296646118164,-0.949895441532135
1782778823647073500,3.010073486328125,-0.16065755486488342,0.6536257863044739,-0.8258898258209229
1782778823657075500,3.020075439453125,-0.06414084881544113,0.5571091175079346,-0.598647952079773
1782778823667062500,3.0300625,0.00366519158706069,0.5002986192703247,-0.3543018400669098
1782778823677062100,3.040062255859375,0.04214970022439957,0.5174028873443604,-0.15882496535778046
1782778823687102200,3.050102294921875,0.02015855349600315,0.6126978397369385,-0.016493361443281174
1782778823697976800,3.060976806640625,-0.09346238523721695,0.7348709106445312,0.09529497474431992
1782778823717162200,3.080162353515625,-0.33169981837272644,0.9242390990257263,0.1459967941045761
1782778823727121000,3.090120849609375,-0.39584067463874817,1.0476338863372803,0.15943582355976105
1782778823737091600,3.100091552734375,-0.4288274049758911,1.1679743528366089,0.2076941877603531
1782778823747049200,3.11004931640625,-0.4178318381309509,1.2754865884780884,0.31581732630729675
1782778823757079600,3.12007958984375,-0.34086281061172485,1.273043155670166,0.45631635189056396
1782778823767068700,3.130068603515625,-0.22846360504627228,1.1423180103302002,0.6420193910598755
1782778823777068300,3.140068359375,-0.14355333149433136,0.9230173826217651,0.8527678847312927
1782778823787057700,3.1500576171875,-0.07391469180583954,0.6768386960029602,0.9572258591651917
1782778823797088800,3.1600888671875,0.012828170321881771,0.5497786998748779,0.9511171579360962
1782778823807046700,3.170046630859375,0.033597588539123535,0.6163630485534668,0.9089674949645996
1782778823817076000,3.180075927734375,-0.005497787147760391,0.8381071090698242,0.8405506014823914
1782778823827065600,3.190065673828125,-0.012217304669320583,1.0299187898635864,0.7428121566772461
1782778823837096400,3.200096435546875,0.022602014243602753,1.0824532508850098,0.588263213634491
1782778823847054600,3.2100546875,0.09040805697441101,1.0512990951538086,0.3891211748123169
1782778823857087200,3.220087158203125,0.29626965522766113,0.9761626720428467,0.09957103431224823
1782778823867074300,3.23007421875,0.6157521605491638,0.9230173826217651,-0.23457226157188416
1782778823877074000,3.240073974609375,1.0500773191452026,0.7941248416900635,-0.394008070230484
1782778823887063000,3.25006298828125,1.4306464195251465,0.5076290369033813,-0.3903428912162781
1782778823897094400,3.260094482421875,1.5540411472320557,-0.1264491081237793,-0.49357911944389343
1782778823907052300,3.27005224609375,1.445918083190918,-0.59803706407547,-0.6065891981124878
1782778823917083100,3.280083251953125,0.9450085163116455,-0.6572909951210022,-0.9572258591651917
1782778823927072300,3.290072265625,0.3701843321323395,-0.8625417351722717,-1.4618005752563477
1782778823937071900,3.30007177734375,-0.33597588539123535,-1.0054842233657837,-1.8490891456604004
1782778823957092600,3.320092529296875,-0.6102544069290161,-0.7110471725463867,-1.3744467496871948
1782778823967050200,3.33005029296875,-0.08246681094169617,-0.6352998614311218,-0.6933320760726929
1782778823977081600,3.34008154296875,0.42577308416366577,-0.808174729347229,-0.024434609338641167
1782778823987070000,3.350070068359375,0.6505714654922485,-1.1178834438323975,0.5210680365562439
1782778823997038800,3.360038818359375,0.6774495840072632,-1.493565559387207,0.921184778213501
1782778824007119600,3.37011962890625,0.6340781450271606,-1.929112434387207,1.158811330795288
1782778824017089300,3.38008935546875,0.5112941861152649,-2.298074960708618,1.2229522466659546
1782778824027047700,3.390047607421875,0.2431243658065796,-2.4013113975524902,1.047023057937622
1782778824037080300,3.400080322265625,-0.1417207419872284,-2.249816656112671,0.6505714654922485
1782778824047067400,3.4100673828125,-0.49235737323760986,-1.9407188892364502,0.14844025671482086
1782778824057067000,3.42006689453125,-0.6774495840072632,-1.5051720142364502,-0.26083946228027344
1782778824067056400,3.430056396484375,-0.6957755088806152,-1.0390818119049072,-0.4801400899887085
1782778824077087700,3.440087646484375,-0.6188064813613892,-0.6786713004112244,-0.5149593949317932
1782778824087075800,3.450075927734375,-0.5057964324951172,-0.49357911944389343,-0.4001167416572571
1782778824097078000,3.460078125,-0.3445279896259308,-0.46303585171699524,-0.16249015927314758
1782778824107064800,3.47006494140625,-0.12522737681865692,-0.4789183437824249,0.16859880089759827
1782778824117097200,3.48009716796875,0.10323622822761536,-0.5027421116828918,0.5222898125648499
1782778824127053800,3.4900537109375,0.2871066629886627,-0.4899139404296875,0.8246681094169617
1782778824137084200,3.500084228515625,0.36224308609962463,-0.455705463886261,0.9755517840385437
1782778824147073300,3.5100732421875,0.34513887763023376,-0.32681289315223694,0.9480628371238708
1782778824157076000,3.520075927734375,0.2871066629886627,-0.08918632566928864,0.7446447610855103
1782778824167062500,3.5300625,0.2278527319431305,0.1966986060142517,0.41722095012664795
1782778824177095200,3.54009521484375,0.1563815027475357,0.4697553813457489,0.06719517707824707
1782778824187051500,3.550051513671875,0.00733038317412138,0.6542366743087769,-0.23090706765651703
1782778824197084400,3.56008447265625,-0.1514945775270462,0.6719517707824707,-0.45326200127601624
1782778824207070700,3.57007080078125,-0.21502456068992615,0.6334672570228577,-0.5913175344467163
1782778824217070800,3.58007080078125,-0.20891591906547546,0.5406157374382019,-0.6224716901779175
1782778824227243000,3.590242919921875,-0.16493362188339233,0.423329621553421,-0.5216789245605469
1782778824237092400,3.60009228515625,-0.09040805697441101,0.3219259977340698,-0.34697145223617554
1782778824247049000,3.610049072265625,-0.00427605677396059,0.24556782841682434,-0.12400564551353455
1782778824257079000,3.6200791015625,0.07330382615327835,0.2217440903186798,0.12095131725072861
1782778824267068700,3.630068603515625,0.11789698898792267,0.2681698501110077,0.31154128909111023
1782778824277070300,3.6400703125,0.12339477986097336,0.36529740691185,0.3903428912162781
1782778824287044600,3.650044677734375,0.08185594528913498,0.513737678527832,0.38117989897727966
1782778824297059300,3.660059326171875,0.006108652334660292,0.6352998614311218,0.323147714138031
1782778824307046400,3.67004638671875,-0.05864306539297104,0.6633996367454529,0.24068090319633484
1782778824316697900,3.67969775390625,-0.09468411654233932,0.5907067060470581,0.152105450630188
1782778824327066000,3.690066162109375,-0.09896016865968704,0.47830748558044434,0.09957103431224823
1782778824337096400,3.700096435546875,-0.06536258012056351,0.3445279896259308,0.12217304855585098
1782778824347164400,3.710164306640625,-0.04337143152952194,0.33047810196876526,0.17837265133857727
1782778824357085200,3.720085205078125,-0.014049900695681572,0.3885102868080139,0.22663100063800812
1782778824367074800,3.73007470703125,0.010995574295520782,0.4795292317867279,0.2590068578720093
1782778824377074400,3.740074462890625,-0.005497787147760391,0.5613851547241211,0.2791654169559479
1782778824387063600,3.7500634765625,-0.0555887371301651,0.5876523852348328,0.2785545587539673
1782778824396989400,3.759989501953125,-0.10201449692249298,0.5693264007568359,0.23640485107898712
1782778824407052500,3.770052490234375,-0.12889257073402405,0.5540547966957092,0.14844025671482086
1782778824417083100,3.780083251953125,-0.17531833052635193,0.5681046843528748,0.02015855349600315
1782778824426635800,3.7896357421875,-0.2119702398777008,0.6102544069290161,-0.13500121235847473
1782778824437102600,3.8001025390625,-0.2028072625398636,0.6493497490882874,-0.33292156457901
1782778824447061200,3.810061279296875,-0.13988813757896423,0.6377432942390442,-0.5357288122177124
1782778824457091300,3.82009130859375,-0.060475658625364304,0.6627888083457947,-0.7183775305747986
1782778824467050200,3.83005029296875,0.04948008432984352,0.684779942035675,-0.8570439219474792
1782778824477081600,3.84008154296875,0.19792033731937408,0.7776314616203308,-0.7544185519218445
1782778824487069700,3.850069580078125,0.3842342495918274,1.1441506147384644,-0.27122417092323303
1782778824497070800,3.86007080078125,0.675616979598999,1.6022995710372925,0.5699372887611389
1782778824517089800,3.88008984375,0.9920451641082764,1.1966849565505981,2.0366246700286865
1782778824527048000,3.8900478515625,1.1649199724197388,0.38728857040405273,2.02929425239563
1782778824537078000,3.900078125,1.3536773920059204,-0.5503895878791809,1.5497651100158691
1782778824547128300,3.91012841796875,1.3768903017044067,-1.3628404140472412,0.6438519954681396
1782778824557067300,3.9200673828125,1.188132882118225,-2.0555615425109863,-0.66584312915802
1782778824567056400,3.930056396484375,0.788627028465271,-2.30051851272583,-2.074498414993286
1782778824577086500,3.94008642578125,0.23884831368923187,-1.7568484544754028,-3.1135802268981934
1782778824587076000,3.950076171875,-0.2590068578720093,-0.6133087277412415,-3.4342844486236572
1782778824597045000,3.960044921875,-0.46181413531303406,0.12950342893600464,-3.304780960083008
1782778824607126000,3.9701259765625,-0.3243694305419922,0.2785545587539673,-2.880840539932251
1782778824617034000,3.980033935546875,0.06841690838336945,0.1716531366109848,-2.1728477478027344
1782778824627084300,3.990084228515625,0.47769662737846375,-0.19486601650714874,-1.2699888944625854
1782778824637023000,4.00002294921875,0.5852088928222656,-0.8607091307640076,-0.26572638750076294
1782778824647165200,4.010165283203125,0.3988949954509735,-1.541213035583496,0.6352998614311218
1782778824657073400,4.020073486328125,0.06963863968849182,-2.024407386779785,1.1832460165023804
1782778824667062500,4.0300625,-0.294437050819397,-2.1264219284057617,1.3225232362747192
1782778824677095200,4.04009521484375,-0.5894849896430969,-1.722640037536621,1.0598511695861816
1782778824687051300,4.05005126953125,-0.7305948138237,-0.9621127843856812,0.5601634383201599
1782778824697082400,4.060082275390625,-0.6951646208763123,-0.15821409225463867,0.06291911751031876
1782778824707030300,4.0700302734375,-0.5027421116828918,0.4550946056842804,-0.23518311977386475
1782778824717162500,4.08016259765625,-0.2480112910270691,0.8405506014823914,-0.26572638750076294
1782778824727019300,4.090019287109375,-0.042760565876960754,0.9382890462875366,-0.09651670604944229
1782778824738446600,4.101446533203125,0.20463985204696655,0.7220427393913269,0.3732386529445648
1782778824757081600,4.12008154296875,0.3695734739303589,0.38728857040405273,1.1808024644851685
1782778824767068700,4.130068603515625,0.3787364661693573,0.23640485107898712,1.529606580734253
1782778824777068300,4.140068359375,0.44165557622909546,0.20830504596233368,1.8136589527130127
1782778824787057700,4.1500576171875,0.5913175344467163,0.2828305959701538,1.9657644033432007
1782778824797057300,4.160057373046875,0.6536257863044739,0.4715879559516907,1.9449949264526367
1782778824807097600,4.17009765625,0.5949827432632446,0.770301103591919,1.7525724172592163
1782778824818051600,4.181051513671875,0.423329621553421,1.10139000415802,1.4526375532150269
1782778824837096700,4.2000966796875,-0.06291911751031876,1.3536773920059204,0.7550294399261475
1782778824847054800,4.210054931640625,-0.25961771607398987,1.1575896739959717,0.43799036741256714
1782778824857085000,4.2200849609375,-0.3530801236629486,0.8362745046615601,0.18020524084568024
1782778824867033900,4.230033935546875,-0.34574973583221436,0.5668829679489136,-0.021380282938480377
1782778824877167400,4.24016748046875,-0.28099802136421204,0.40622538328170776,-0.1258382350206375
1782778824887063300,4.250063232421875,-0.20341812074184418,0.3188716471195221,-0.12339477986097336
1782778824897093400,4.26009326171875,-0.11911872029304504,0.3292563557624817,-0.025045474991202354
1782778824907052300,4.27005224609375,-0.031154127791523933,0.3695734739303589,0.12889257073402405
1782778824917083100,4.280083251953125,0.0354301854968071,0.47280970215797424,0.3017674386501312
1782778824927072000,4.290072021484375,0.04459316283464432,0.6157521605491638,0.4502076804637909
1782778824937071900,4.30007177734375,0.006108652334660292,0.7464773058891296,0.5448917746543884
1782778824947061200,4.310061279296875,-0.033597588539123535,0.7947356700897217,0.5699372887611389
1782778824957091300,4.32009130859375,-0.021991148591041565,0.7385360598564148,0.5418374538421631
1782778824967050200,4.33005029296875,0.05864306539297104,0.5687155723571777,0.4642575979232788
1782778824977080600,4.34008056640625,0.15393804013729095,0.3127630054950714,0.3494149148464203
1782778824987069700,4.350069580078125,0.2272418737411499,0.1062905490398407,0.2272418737411499
1782778824997095200,4.36009521484375,0.2767219543457031,-0.04948008432984352,0.13255776464939117
1782778825007059000,4.370058837890625,0.28588494658470154,-0.19364428520202637,0.10445795953273773
1782778825017089300,4.38008935546875,0.2480112910270691,-0.23518311977386475,0.11728613078594208
1782778825027047700,4.390047607421875,0.1716531366109848,-0.2021963894367218,0.11850785464048386
1782778825036912600,4.39991259765625,0.1111774742603302,-0.12950342893600464,0.10690141469240189
1782778825047067400,4.4100673828125,0.09346238523721695,-0.15332718193531036,0.08246681094169617
1782778825057071400,4.4200712890625,0.09162978827953339,-0.33169981837272644,0.009773843921720982
1782778825067056400,4.430056396484375,0.08674286305904388,-0.6236934065818787,-0.13255776464939117
1782778825077086700,4.440086669921875,0.09162978827953339,-1.187522053718567,-0.38606682419776917
1782778825087076000,4.450076171875,0.11239920556545258,-1.7696765661239624,-0.6328563690185547
1782778825097077000,4.460076904296875,0.17898350954055786,-1.7654005289077759,-0.6976081132888794
1782778825107064800,4.47006494140625,0.3701843321323395,-0.8112290501594543,-0.4905247986316681
1782778825117095700,4.480095703125,0.6676757335662842,0.9724974632263184,-0.03298672288656235
1782778825127053800,4.4900537109375,0.8668177723884583,2.1349740028381348,0.10262536257505417
1782778825137085000,4.5000849609375,0.8155050873756409,2.1056525707244873,-0.4245513379573822
1782778825157074400,4.520074462890625,0.7128797173500061,0.21380282938480377,-1.5192219018936157
1782778825167062500,4.5300625,0.8582656979560852,-1.187522053718567,-1.740355134010315
1782778825177092600,4.540092529296875,0.7275404930114746,-3.065321683883667,-2.2046127319335938
1782778825187051500,4.550051513671875,0.4337143301963806,-3.109304189682007,-2.3066272735595703
1782778825197081900,4.560081787109375,0.29504790902137756,-2.0677788257598877,-2.0079140663146973
1782778825207070700,4.57007080078125,0.40744712948799133,-0.7055493593215942,-1.4715744256973267
1782778825217070800,4.58007080078125,0.6139195561408997,0.21135938167572021,-0.9816604256629944
1782778825227060000,4.59006005859375,0.637132465839386,0.4990769028663635,-0.7238753437995911
1782778825237090600,4.600090576171875,0.5149593949317932,0.3500257730484009,-0.6835582256317139
1782778825247049000,4.610049072265625,0.2376265823841095,0.09529497474431992,-0.7544185519218445
1782778825257079300,4.620079345703125,-0.15027284622192383,-0.17104226350784302,-0.8350527882575989
1782778825267068700,4.630068603515625,-0.5167919993400574,-0.4996877610683441,-0.8289441466331482
1782778825277068300,4.640068359375,-0.7483099102973938,-0.807563841342926,-0.6988298296928406
1782778825287057400,4.650057373046875,-0.8289441466331482,-1.0024298429489136,-0.5302310585975647
1782778825297088000,4.660087890625,-0.8057312369346619,-1.0396926403045654,-0.384845107793808
1782778825307046700,4.670046630859375,-0.7195992469787598,-0.9059131741523743,-0.2535090744495392
1782778825317076700,4.68007666015625,-0.6029239892959595,-0.6670648455619812,-0.11911872029304504
1782778825327065900,4.69006591796875,-0.4917465150356293,-0.4105014503002167,0.033597588539123535
1782778825337097700,4.70009765625,-0.36590829491615295,-0.17898350954055786,0.20097467303276062
1782778825347055000,4.71005517578125,-0.22968533635139465,0.05192354694008827,0.32009339332580566
1782778825357085400,4.72008544921875,-0.17959438264369965,0.33047810196876526,0.3805690407752991
1782778825367074800,4.73007470703125,-0.25473082065582275,0.646295428276062,0.4282165467739105
1782778825377076500,4.740076416015625,-0.4190535545349121,0.8607091307640076,0.46670106053352356
1782778825387277300,4.75027734375,-0.5839871764183044,0.9010262489318848,0.5265658497810364
1782778825397203500,4.760203369140625,-0.6579018831253052,0.7519751191139221,0.6285803318023682
1782778825407052500,4.770052490234375,-0.7360926270484924,0.48808133602142334,0.750142514705658
1782778825417083100,4.780083251953125,-0.7812966704368591,0.19608774781227112,0.8692612648010254
1782778825427072300,4.790072265625,-0.7232644557952881,0.02626720629632473,0.9266825914382935
1782778825437074200,4.80007421875,-0.6145304441452026,-0.00855211354792118,0.8643743395805359
1782778825447061200,4.810061279296875,-0.5094616413116455,0.0555887371301651,0.6743952035903931
1782778825457093600,4.82009375,-0.39706242084503174,0.192422553896904,0.4294382631778717
1782778825467050200,4.83005029296875,-0.28099802136421204,0.3536909818649292,0.20341812074184418
1782778825477083000,4.840082763671875,-0.20891591906547546,0.494189977645874,0.013439035043120384
1782778825487069700,4.850069580078125,-0.20830504596233368,0.5717698931694031,-0.11728613078594208
1782778825497071600,4.860071533203125,-0.2535090744495392,0.5626068711280823,-0.16554448008537292
1782778825507089400,4.87008935546875,-0.3121521472930908,0.4605923891067505,-0.14233160018920898
1782778825517197800,4.88019775390625,-0.3390302062034607,0.3023782968521118,-0.06169738993048668
1782778825527047700,4.890047607421875,-0.31642818450927734,0.1661553531885147,0.056810468435287476
1782778825537078000,4.900078125,-0.2724458873271942,0.07391469180583954,0.19303341209888458
1782778825547067400,4.9100673828125,-0.2321287989616394,0.0507018156349659,0.30970868468284607
1782778825557023700,4.920023681640625,-0.17531833052635193,0.09712757170200348,0.3891211748123169
1782778825567056400,4.930056396484375,-0.10262536257505417,0.15821409225463867,0.4245513379573822
1782778825577086500,4.94008642578125,-0.04398229718208313,0.17959438264369965,0.4245513379573822
1782778825587075800,4.950075927734375,-0.0012217304902151227,0.16371189057826996,0.40256020426750183
1782778825597076200,4.960076171875,-0.02932153269648552,0.1215621829032898,0.3072652220726013
1782778825607065000,4.970065185546875,-0.11789698898792267,0.08246681094169617,0.2119702398777008
1782778825617095400,4.980095458984375,-0.2217440903186798,0.04092797264456749,0.10934487730264664
1782778825627053800,4.9900537109375,-0.3090978264808655,0.01771509274840355,-0.024434609338641167
1782778825637085700,5.000085693359375,-0.3536909818649292,-0.019547687843441963,-0.17837265133857727
1782778825647073500,5.010073486328125,-0.3433062732219696,-0.05864306539297104,-0.29077184200286865
1782778825657073400,5.020073486328125,-0.29626965522766113,-0.11423180252313614,-0.3494149148464203
1782778825667062500,5.0300625,-0.2278527319431305,-0.1765400618314743,-0.3799581825733185
1782778825677095000,5.040094970703125,-0.19303341209888458,-0.31642818450927734,-0.45631635189056396
1782778825687051500,5.050051513671875,-0.19120082259178162,-0.588874101638794,-0.6426302194595337
1782778825697083600,5.060083740234375,-0.1820378452539444,-0.5937610268592834,-0.9492846131324768
1782778825707071000,5.070071044921875,-0.19547687470912933,-0.3781255781650543,-1.3048081398010254
1782778825717070600,5.080070556640625,-0.23029619455337524,0.33658674359321594,-1.4275920391082764
1782778825727060000,5.09006005859375,-0.10567969083786011,1.3946053981781006,-1.083064079284668
1782778825737091300,5.10009130859375,0.2474004179239273,2.2736403942108154,-0.2889392673969269
1782778825747049000,5.110049072265625,0.6041457056999207,2.503936529159546,0.43799036741256714
1782778825757080300,5.120080322265625,0.6609562039375305,1.996307611465454,0.47769662737846375
1782778825767068700,5.130068603515625,0.6114761233329773,0.9327912330627441,-0.08796459436416626
1782778825777069600,5.140069580078125,0.5455026626586914,-0.20402899384498596,-0.5241223573684692
1782778825797088000,5.160087890625,0.30054569244384766,-2.518597364425659,-0.2376265823841095
1782778825807046700,5.170046630859375,-0.02871066704392433,-3.378084897994995,-0.11545353382825851
1782778825817076000,5.180075927734375,-0.43615779280662537,-3.386636972427368,-0.11056660860776901
1782778825827065600,5.190065673828125,-0.7513642311096191,-2.537534236907959,-0.04459316283464432
1782778825837096000,5.200095947265625,-0.8130616545677185,-1.338405728340149,0.05009094998240471
1782778825847054800,5.210054931640625,-0.5455026626586914,-0.2736676335334778,0.09468411654233932
1782778825857086200,5.220086181640625,-0.15943582355976105,0.37079519033432007,0.11423180252313614
1782778825867074000,5.230073974609375,0.09285151958465576,0.6499606370925903,0.192422553896904
1782778825877074000,5.240073974609375,0.23945917189121246,0.7568620443344116,0.3286454975605011
1782778825887063000,5.25006298828125,0.19975294172763824,0.7470881938934326,0.4147774875164032
1782778825897093600,5.26009375,-0.05619960278272629,0.5925393104553223,0.3274237811565399
1782778825907052300,5.27005224609375,-0.39156460762023926,0.30604347586631775,0.06719517707824707
1782778825917083100,5.280083251953125,-0.6682865619659424,0.02382374368607998,-0.2785545587539673
1782778825927072000,5.290072021484375,-0.8228355050086975,-0.13988813757896423,-0.6041457056999207
1782778825937073400,5.300073486328125,-0.837496280670166,-0.1007927656173706,-0.7874053120613098
1782778825947061200,5.310061279296875,-0.7415903806686401,0.09896016865968704,-0.779464066028595
1782778825957092600,5.320092529296875,-0.588263213634491,0.35674530267715454,-0.6053674817085266
1782778825967050200,5.33005029296875,-0.4153883755207062,0.6090326309204102,-0.3182607889175415
1782778825977080300,5.340080322265625,-0.2590068578720093,0.7935139536857605,-0.02382374368607998
1782778825987069700,5.350069580078125,-0.13500121235847473,0.8833111524581909,0.23396138846874237
1782778825997071600,5.360071533203125,-0.042760565876960754,0.8845328688621521,0.45875978469848633
1782778826007058700,5.37005859375,-0.01038470957428217,0.799011766910553,0.6432411074638367
1782778826017089800,5.38008984375,-0.10262536257505417,0.6352998614311218,0.8228355050086975
1782778826027048000,5.3900478515625,-0.13927727937698364,0.5791002511978149,0.8289441466331482
1782778826037079000,5.4000791015625,-0.19792033731937408,0.5876523852348328,0.675006091594696
1782778826047067400,5.4100673828125,-0.2816088795661926,0.5864306092262268,0.3903428912162781
1782778826057067000,5.42006689453125,-0.2919935882091522,0.6102544069290161,0.0659734457731247
1782778826067056400,5.430056396484375,-0.20097467303276062,0.6420193910598755,-0.22296582162380219
1782778826077088800,5.4400888671875,-0.039706241339445114,0.6866125464439392,-0.40683624148368835
1782778826087075800,5.450075927734375,0.10812314599752426,0.675006091594696,-0.4917465150356293
1782778826097078000,5.460078125,0.19608774781227112,0.6047565937042236,-0.5174028873443604
1782778826107064800,5.47006494140625,0.2620611786842346,0.5387831330299377,-0.5027421116828918
1782778826117095200,5.48009521484375,0.2926044464111328,0.5253441333770752,-0.44776421785354614
1782778826127053800,5.4900537109375,0.24984388053417206,0.4954117238521576,-0.36163222789764404
1782778826137086200,5.500086181640625,0.14294247329235077,0.35552358627319336,-0.26022860407829285
1782778826147073500,5.510073486328125,0.05619960278272629,0.13988813757896423,-0.15577064454555511
1782778826157182200,5.52018212890625,0.02871066704392433,-0.04459316283464432,-0.04459316283464432
1782778826167062500,5.5300625,0.005497787147760391,-0.19853121042251587,0.05742133408784866
1782778826177092600,5.540092529296875,-0.02626720629632473,-0.3488040566444397,0.13316862285137177
1782778826187051300,5.55005126953125,0.0012217304902151227,-0.3854559659957886,0.20586158335208893
1782778826196946700,5.55994677734375,0.06719517707824707,-0.3121521472930908,0.26572638750076294
1782778826207040500,5.57004052734375,0.13377949595451355,-0.2076941877603531,0.2785545587539673
1782778826217070800,5.58007080078125,0.18814650177955627,-0.12095131725072861,0.23518311977386475
1782778826227060000,5.59006005859375,0.22479841113090515,-0.05375614017248154,0.17348572611808777
1782778826237214700,5.600214599609375,0.23090706765651703,0.00733038317412138,0.11911872029304504
1782778826247158300,5.610158203125,0.21074850857257843,0.027488935738801956,0.07696902006864548
1782778826257079600,5.62007958984375,0.17531833052635193,0.016493361443281174,0.08918632566928864
1782778826267068700,5.630068603515625,0.1313360333442688,-0.031154127791523933,0.15027284622192383
1782778826277180200,5.64018017578125,0.09529497474431992,-0.0806342139840126,0.21930062770843506
1782778826287057700,5.6500576171875,0.04092797264456749,-0.05864306539297104,0.26633724570274353
1782778826297089000,5.660089111328125,0.012828170321881771,-0.024434609338641167,0.2932153046131134
1782778826307046400,5.67004638671875,0.07513642311096191,-0.03237585723400116,0.3396410644054413
1782778826317078000,5.680078125,0.2028072625398636,-0.1313360333442688,0.3787364661693573
1782778826327066000,5.690066162109375,0.3078760802745819,-0.28466320037841797,0.3927863538265228
1782778826337097500,5.700097412109375,0.3591887652873993,-0.4294382631778717,0.3579670190811157
1782778826347055000,5.71005517578125,0.3842342495918274,-0.5308418869972229,0.25045475363731384
1782778826357086000,5.7200859375,0.45265114307403564,-0.4508185386657715,0.13988813757896423
1782778826367074600,5.730074462890625,0.5461135506629944,-0.41722095012664795,0.06536258012056351
1782778826377074400,5.740074462890625,0.6212499737739563,-0.6676757335662842,-0.1722639948129654
1782778826387063800,5.750063720703125,0.5760459303855896,-0.8979719281196594,-0.5907067060470581
1782778826397094000,5.760093994140625,0.38667771220207214,-0.9077457785606384,-1.0256427526474
1782778826407052500,5.770052490234375,0.21013765037059784,-0.7782423496246338,-1.359175205230713
1782778826417113600,5.780113525390625,-0.012828170321881771,-0.675006091594696,-1.4495831727981567
1782778826436956200,5.7999560546875,-0.3335324227809906,-0.43249258399009705,-0.7531968355178833
1782778826446945500,5.809945556640625,-0.22602014243602753,-0.14477506279945374,-0.08307767659425735
1782778826456975600,5.8199755859375,-0.13988813757896423,-0.036041051149368286,0.16371189057826996
1782778826466934300,5.829934326171875,-0.08979719132184982,-0.05314527451992035,0.17776179313659668
1782778826476964600,5.839964599609375,-0.11423180252313614,-0.13927727937698364,0.0024434609804302454
1782778826486913000,5.8499130859375,-0.19547687470912933,-0.23396138846874237,-0.20402899384498596
1782778826498453000,5.861452880859375,-0.2968805134296417,-0.2834414839744568,-0.3280346393585205
1782778826516973300,5.879973388671875,-0.5406157374382019,-0.3732386529445648,-0.29016098380088806
1782778826526932000,5.889931884765625,-0.6890559792518616,-0.5442809462547302,-0.192422553896904
1782778826536963000,5.899963134765625,-0.7721336483955383,-0.7379252314567566,-0.01710422709584236
1782778826546951400,5.909951416015625,-0.7544185519218445,-0.9004153609275818,0.2223549485206604
1782778826556951800,5.919951904296875,-0.6994407176971436,-0.9963212013244629,0.4508185386657715
1782778826566940400,5.9299404296875,-0.6548475623130798,-0.9938777685165405,0.6133087277412415
1782778826576972000,5.939971923828125,-0.5894849896430969,-0.8301658630371094,0.6603453159332275
1782778826586960100,5.949960205078125,-0.4905247986316681,-0.5265658497810364,0.6029239892959595
1782778826596959700,5.959959716796875,-0.375071257352829,-0.15882496535778046,0.5082398653030396
1782778826606949000,5.96994921875,-0.23457226157188416,0.16982053220272064,0.4355469346046448
1782778826616981500,5.9799814453125,-0.09285151958465576,0.4288274049758911,0.4147774875164032
1782778826626938000,5.989938232421875,0.03787364438176155,0.6432411074638367,0.4856378734111786
1782778826636968400,5.999968505859375,0.17043140530586243,0.8100073337554932,0.6090326309204102
1782778826646957300,6.009957275390625,0.2535090744495392,0.9046914577484131,0.7110471725463867
1782778826656958000,6.0199580078125,0.14233160018920898,0.8955284357070923,0.7837401032447815
1782778826667038000,6.030037841796875,-0.027488935738801956,0.8252789378166199,0.8148942589759827
1782778826676977200,6.03997705078125,-0.09957103431224823,0.7544185519218445,0.7709119319915771
1782778826686935600,6.049935546875,-0.10506882518529892,0.6096435189247131,0.646295428276062
1782778826696965600,6.059965576171875,-0.10812314599752426,0.3903428912162781,0.4703662395477295
1782778826706955000,6.069955078125,-0.06780604273080826,0.22907446324825287,0.2932153046131134
1782778826716957000,6.07995703125,0.021380282938480377,0.1014036312699318,0.15515977144241333
1782778826726944300,6.0899443359375,0.11728613078594208,0.006108652334660292,0.05253441259264946
1782778826736974600,6.099974609375,0.16859880089759827,-0.007941247895359993,-0.04214970022439957
1782778826746933200,6.109933349609375,0.13500121235847473,0.04214970022439957,-0.15027284622192383
1782778826757209600,6.120209716796875,0.030543262138962746,0.10567969083786011,-0.24862214922904968
1782778826766960400,6.12996044921875,-0.07269296050071716,0.1111774742603302,-0.3121521472930908
1782778826776954600,6.13995458984375,-0.13316862285137177,0.042760565876960754,-0.33597588539123535
1782778826786941700,6.149941650390625,-0.13866640627384186,-0.031154127791523933,-0.2871066629886627
1782778826796972000,6.159971923828125,-0.08552113175392151,-0.07330382615327835,-0.17409659922122955
1782778826806931000,6.169930908203125,0.012217304669320583,-0.016493361443281174,-0.025656340643763542
1782778826816962000,6.179962158203125,0.11972958594560623,0.07757988572120667,0.09712757170200348
1782778826826949600,6.18994970703125,0.2223549485206604,0.16310101747512817,0.12034045159816742
1782778826836980500,6.19998046875,0.2871066629886627,0.2528982162475586,0.09773843735456467
1782778826846938600,6.209938720703125,0.2840523421764374,0.32070425152778625,0.06291911751031876
1782778826856971300,6.21997119140625,0.21135938167572021,0.375071257352829,0.00733038317412138
1782778826866958300,6.229958251953125,0.0910189226269722,0.46792277693748474,-0.00733038317412138
1782778826876958000,6.2399580078125,0.0708603709936142,0.5833762884140015,0.015882495790719986
1782778826886947300,6.249947265625,0.07880161702632904,0.7727445363998413,0.15027284622192383
1782778826896977700,6.259977783203125,0.07452555745840073,0.9248499870300293,0.29138273000717163
1782778826906936300,6.269936279296875,0.059864792972803116,0.9999864101409912,0.3689626157283783
1782778826916967000,6.279966796875,0.09712757170200348,1.0977247953414917,0.3390302062034607
1782778826926956500,6.28995654296875,0.182648703455925,1.1563678979873657,0.2742784917354584
1782778826936957200,6.299957275390625,0.3066543638706207,1.0671815872192383,0.4153883755207062
1782778826946945000,6.309945068359375,0.4056145250797272,0.9395107626914978,0.6682865619659424
1782778826956977000,6.319976806640625,0.45204028487205505,0.9553932547569275,0.9169087409973145
1782778826966934300,6.329934326171875,0.3689626157283783,1.0433578491210938,1.2754865884780884
1782778826976965000,6.339965087890625,0.2021963894367218,0.3341432809829712,1.037249207496643
1782778826986954000,6.3499541015625,0.21441370248794556,0.03848451003432274,0.4954117238521576
1782778826996984300,6.359984375,0.42149701714515686,0.06902777403593063,0.24862214922904968
1782778827006943000,6.36994287109375,0.6322455406188965,0.004886921960860491,0.5082398653030396
1782778827016974000,6.37997412109375,0.6921103000640869,-0.6762278079986572,1.160033106803894
1782778827026932000,6.389931884765625,0.7531968355178833,-1.6646077632904053,2.0470094680786133
