time,seconds_elapsed,z,y,x
1782778846650487300,0.1894873046875,-5.681998252868652,-3.506269693374634,-5.745081424713135
1782778846660601000,0.19960107421875,-5.9050164222717285,-3.5026042461395264,-5.674179553985596
1782778846670611000,0.20961083984375,-6.518570899963379,-3.3141679763793945,-5.070054054260254
1782778846680153600,0.219153564453125,-7.05954647064209,-2.937871217727661,-4.079289436340332
1782778846690600000,0.229599853515625,-7.331970691680908,-2.805236577987671,-3.6282501220703125
1782778846700718800,0.23971875,-6.780354976654053,-2.633140802383423,-3.4140942096710205
1782778846710589000,0.2495888671875,-5.798117637634277,-2.1495866775512695,-2.935502052307129
1782778846720598800,0.259598876953125,-3.9304704666137695,-2.2060415744781494,-2.7164993286132812
1782778846730608400,0.2696083984375,-0.4658670425415039,-2.511322021484375,-2.753969192504883
1782778846740587500,0.27958740234375,4.143146514892578,-2.588351249694824,-3.5853333473205566
1782778846750597400,0.289597412109375,8.514084815979004,-1.817655086517334,-4.679398536682129
1782778846760607200,0.299607177734375,11.758962631225586,-0.17344188690185547,-6.416170120239258
1782778846770586400,0.30958642578125,11.919218063354492,1.6975584030151367,-7.1184163093566895
1782778846780596200,0.31959619140625,9.724381446838379,2.380192279815674,-4.715888977050781
1782778846790606000,0.329606201171875,8.811729431152344,3.3703627586364746,-2.0038421154022217
1782778846800585200,0.339585205078125,11.699182510375977,3.3737430572509766,0.11141681671142578
1782778846810595000,0.349594970703125,15.51411247253418,1.7108242511749268,2.958942413330078
1782778846820605000,0.35960498046875,20.697982788085938,0.14928770065307617,3.850536346435547
1782778846830583800,0.369583740234375,28.695159912109375,-1.8600423336029053,3.3492627143859863
1782778846840593700,0.37959375,38.435218811035156,-3.5906877517700195,2.904567241668701
1782778846850603500,0.389603515625,43.24747085571289,-4.000326156616211,1.9420948028564453
1782778846860582700,0.399582763671875,38.974796295166016,-3.4688379764556885,2.061988353729248
1782778846870592500,0.409592529296875,28.838172912597656,-1.821808099746704,3.1885600090026855
1782778846880602400,0.419602294921875,21.311229705810547,0.059705257415771484,3.8263049125671387
1782778846890581800,0.429581787109375,15.6273775100708,1.6731855869293213,4.148404121398926
1782778846900591400,0.43959130859375,12.337732315063477,2.606140613555908,3.149445056915283
1782778846910601200,0.449601318359375,9.934840202331543,2.871833562850952,0.5729827880859375
1782778846920610800,0.45961083984375,7.366893768310547,2.84956693649292,-1.5521373748779297
1782778846930590000,0.46958984375,4.110937118530273,2.8376574516296387,-2.4278953075408936
1782778846940599800,0.479599853515625,0.4910449981689453,2.6508615016937256,-2.912351369857788
1782778846950609700,0.489609619140625,-1.8518433570861816,1.9498491287231445,-3.178107738494873
1782778846960588800,0.4995888671875,-2.4122819900512695,0.9307236671447754,-3.680748462677002
1782778846970598700,0.5095986328125,-1.5709638595581055,0.06778621673583984,-4.327768325805664
1782778846980608500,0.5196083984375,-0.40811777114868164,-0.7371847629547119,-5.006657600402832
1782778846990587600,0.529587646484375,0.5906028747558594,-1.57529616355896,-6.079200267791748
1782778847000597500,0.539597412109375,1.296238899230957,-1.9620368480682373,-6.944677352905273
1782778847010607000,0.549607177734375,0.6515865325927734,-1.516969084739685,-6.843125820159912
1782778847020586200,0.559586181640625,-0.5442976951599121,-0.9711247682571411,-6.500242233276367
1782778847030596000,0.56959619140625,-3.434802532196045,-0.5089426040649414,-6.123928070068359
1782778847040606000,0.57960595703125,-7.068892478942871,0.004372119903564453,-5.623851299285889
1782778847050585000,0.589585205078125,-10.793904304504395,0.41181349754333496,-5.099768161773682
1782778847060595000,0.599594970703125,-13.471561431884766,0.8611737489700317,-4.742772102355957
1782778847070604800,0.609604736328125,-14.528351783752441,0.6320450305938721,-5.387472629547119
1782778847080584000,0.619583984375,-13.869543075561523,0.5951839685440063,-5.850905418395996
1782778847090593800,0.62959375,-12.458096504211426,0.10356450080871582,-5.939599990844727
1782778847100603600,0.639603759765625,-10.636711120605469,-0.4154171943664551,-6.27528190612793
1782778847110582800,0.649582763671875,-9.313865661621094,-0.8804063200950623,-6.084149360656738
1782778847120712000,0.6597119140625,-8.59587287902832,-1.1674814224243164,-5.722026348114014
1782778847130602200,0.669602294921875,-8.19131088256836,-1.3842560052871704,-5.472709655761719
1782778847140581600,0.67958154296875,-7.748660564422607,-1.4849294424057007,-5.296415328979492
1782778847150700500,0.689700439453125,-7.6235527992248535,-1.696973443031311,-5.418192386627197
1782778847160601000,0.69960107421875,-7.803507328033447,-1.937311053276062,-5.890393257141113
1782778847170611000,0.70961083984375,-8.040977478027344,-2.1225223541259766,-5.856285095214844
1782778847180590000,0.719590087890625,-7.6049089431762695,-2.3092925548553467,-5.933785438537598
1782778847190600000,0.729599853515625,-7.272560119628906,-2.4584803581237793,-6.149628639221191
1782778847200230700,0.739230712890625,-7.436722278594971,-2.2985241413116455,-5.858482837677002
1782778847210619400,0.749619384765625,-7.712158203125,-2.1202402114868164,-5.325138092041016
1782778847220598800,0.759598876953125,-7.852486610412598,-1.816936731338501,-4.646287441253662
1782778847230608400,0.7696083984375,-7.854180812835693,-1.7496163845062256,-4.379195690155029
1782778847240587500,0.77958740234375,-7.9949517250061035,-1.6005711555480957,-4.061777591705322
1782778847250706700,0.789706787109375,-8.06425666809082,-1.6086057424545288,-3.8904566764831543
1782778847260576800,0.79957666015625,-7.608526706695557,-1.6795156002044678,-3.8617801666259766
1782778847270586400,0.80958642578125,-7.711545944213867,-1.9668773412704468,-4.095191955566406
1782778847280552700,0.819552734375,-8.094869613647461,-2.0123188495635986,-3.638801097869873
1782778847290575600,0.82957568359375,-8.024667739868164,-1.9048889875411987,-3.1056671142578125
1782778847300585200,0.839585205078125,-7.409957408905029,-1.9565645456314087,-2.8673629760742188
1782778847310595000,0.849594970703125,-6.090184688568115,-2.3523354530334473,-3.2091095447540283
1782778847320604700,0.859604736328125,-3.736819267272949,-2.873837471008301,-3.516244888305664
1782778847330583800,0.869583740234375,-0.6259655952453613,-3.560138702392578,-4.289702415466309
1782778847340593700,0.87959375,1.338129997253418,-3.8493404388427734,-4.059723854064941
1782778847350603500,0.889603515625,3.5839710235595703,-3.1117942333221436,-2.9321846961975098
1782778847360582700,0.899582763671875,5.212527275085449,-1.9904760122299194,-2.274181604385376
1782778847370592500,0.909592529296875,6.602100372314453,-0.8458396196365356,-2.922542095184326
1782778847380602400,0.919602294921875,9.14013957977295,0.0475006103515625,-4.437647342681885
1782778847400591400,0.93959130859375,10.138298988342285,0.6231904029846191,-5.094335556030273
1782778847410601200,0.949601318359375,10.393121719360352,2.126779317855835,-3.125887393951416
1782778847420610800,0.95961083984375,11.558093070983887,2.9535317420959473,-1.9432084560394287
1782778847430590000,0.96958984375,13.000368118286133,3.2324345111846924,-1.142911434173584
1782778847440599800,0.979599853515625,15.181794166564941,3.6809637546539307,1.748182773590088
1782778847450609700,0.989609619140625,18.685283660888672,3.6888792514801025,3.6150851249694824
1782778847460588800,0.9995888671875,22.414743423461914,2.7045633792877197,3.5385942459106445
1782778847470598700,1.0095986328125,25.792377471923828,1.4092421531677246,2.4499053955078125
1782778847480608500,1.0196083984375,29.55291748046875,0.67555832862854,1.709327220916748
1782778847490587600,1.029587646484375,32.40034866333008,0.48921120166778564,1.4616355895996094
1782778847500597500,1.039597412109375,30.928424835205078,1.4911590814590454,1.8993501663208008
1782778847510607000,1.049607177734375,24.24599838256836,3.0251712799072266,3.1892881393432617
1782778847520586200,1.059586181640625,16.586761474609375,3.8332979679107666,2.5680651664733887
1782778847530596000,1.06959619140625,10.089213371276855,4.401885986328125,1.329493522644043
1782778847540606000,1.07960595703125,4.458346366882324,4.5372161865234375,0.13077020645141602
1782778847550585000,1.089585205078125,1.074453353881836,4.023104667663574,-1.0551114082336426
1782778847560595000,1.099594970703125,-0.8232707977294922,2.96860408782959,-1.9523990154266357
1782778847570604800,1.109604736328125,-1.196028232574463,1.7136527299880981,-2.8240694999694824
1782778847580584000,1.119583984375,0.29753971099853516,0.28183507919311523,-4.027134895324707
1782778847590593800,1.12959375,3.0543699264526367,-1.2086867094039917,-5.820713520050049
1782778847600603400,1.139603271484375,4.968947887420654,-1.932520866394043,-7.214753150939941
1782778847610582800,1.149582763671875,5.272488594055176,-2.192931652069092,-7.369335174560547
1782778847620592400,1.15959228515625,3.2443509101867676,-2.1504337787628174,-7.254020690917969
1782778847630602200,1.169602294921875,-0.4811525344848633,-1.9024181365966797,-6.965245723724365
1782778847640581600,1.17958154296875,-3.9780852794647217,-1.7137819528579712,-6.874712944030762
1782778847650591200,1.18959130859375,-7.134214878082275,-1.9555366039276123,-7.936686992645264
1782778847660601000,1.19960107421875,-9.26451587677002,-1.7081108093261719,-8.050569534301758
1782778847670611000,1.20961083984375,-10.179073333740234,-1.3446532487869263,-7.659882545471191
1782778847680590000,1.219590087890625,-9.668266296386719,-1.0415796041488647,-7.8535380363464355
1782778847690600000,1.229599853515625,-7.92717170715332,-0.8101609945297241,-7.976304054260254
1782778847700609500,1.239609619140625,-6.624426364898682,-0.6583086252212524,-7.97396183013916
1782778847710589000,1.2495888671875,-6.839592456817627,-0.49442148208618164,-7.93753719329834
1782778847720598800,1.259598876953125,-7.740626335144043,-0.3963148593902588,-7.775451183319092
1782778847730608400,1.2696083984375,-8.959227561950684,-0.27517855167388916,-7.434088706970215
1782778847740587500,1.27958740234375,-10.296233177185059,-0.2841132879257202,-7.281295299530029
1782778847750597400,1.289597412109375,-11.485552787780762,-0.3758910894393921,-6.941889762878418
1782778847760607200,1.299607177734375,-11.629069328308105,-0.4156254529953003,-6.4842119216918945
1782778847770586400,1.30958642578125,-10.72655200958252,-0.6516441106796265,-6.247424602508545
1782778847780596200,1.31959619140625,-8.968111991882324,-1.061858892440796,-6.366525173187256
1782778847790606000,1.329606201171875,-7.020205020904541,-1.290695071220398,-6.206994533538818
1782778847800585200,1.339585205078125,-5.614774703979492,-1.6166363954544067,-6.254382133483887
1782778847810595000,1.349594970703125,-4.995631217956543,-1.8290627002716064,-6.359509468078613
1782778847820604700,1.359604736328125,-4.865642547607422,-1.8097665309906006,-5.828988552093506
1782778847830583800,1.369583740234375,-5.230137825012207,-1.730232834815979,-5.499162673950195
1782778847840593700,1.37959375,-5.75035285949707,-1.5599238872528076,-5.004031181335449
1782778847850603500,1.389603515625,-6.262284278869629,-1.368833303451538,-4.3720245361328125
1782778847860582700,1.399582763671875,-6.40447998046875,-1.3232616186141968,-4.114391326904297
1782778847870592500,1.409592529296875,-6.173641204833984,-1.397934913635254,-3.969431161880493
1782778847880602400,1.419602294921875,-5.766679763793945,-1.5949997901916504,-4.153438091278076
1782778847890581800,1.429581787109375,-4.953622817993164,-1.994364619255066,-4.7977399826049805
1782778847900591400,1.43959130859375,-4.138267517089844,-2.4017324447631836,-5.542693138122559
1782778847910601200,1.449601318359375,-3.6273488998413086,-2.1499030590057373,-4.792119979858398
1782778847920610800,1.45961083984375,-3.0703277587890625,-1.9917186498641968,-3.341391086578369
1782778847930590000,1.46958984375,-1.3555083274841309,-1.9834083318710327,-2.7331721782684326
1782778847940599800,1.479599853515625,1.191634178161621,-1.9476470947265625,-2.582991361618042
1782778847950609700,1.489609619140625,3.294905662536621,-1.8959966897964478,-1.8551230430603027
1782778847960588800,1.4995888671875,5.643683433532715,-1.7931220531463623,-1.4990794658660889
1782778847970598700,1.5095986328125,7.579011917114258,-1.7030389308929443,-3.049227714538574
1782778847980608500,1.5196083984375,9.400310516357422,-1.7656255960464478,-5.314146518707275
1782778847990587600,1.529587646484375,9.642398834228516,-1.4108859300613403,-6.583813667297363
1782778848000597500,1.539597412109375,8.895553588867188,-0.4111618995666504,-5.551785469055176
1782778848010607000,1.549607177734375,8.451449394226074,1.3288778066635132,-4.054292678833008
1782778848020586200,1.559586181640625,9.464505195617676,2.367621421813965,-1.5629169940948486
1782778848040606000,1.57960595703125,12.413376808166504,4.0252275466918945,0.09778857231140137
1782778848050585000,1.589585205078125,14.667574882507324,4.656525135040283,-0.01230764389038086
1782778848060595000,1.599594970703125,17.417499542236328,4.506560325622559,-1.5683045387268066
1782778848070604800,1.609604736328125,18.809104919433594,3.3675923347473145,-2.748497724533081
1782778848080584000,1.619583984375,17.942663192749023,2.1589736938476562,-2.2555880546569824
1782778848090593800,1.62959375,17.538490295410156,1.6212971210479736,-0.044799089431762695
1782778848100216800,1.639216796875,20.066112518310547,1.5735365152359009,2.422013282775879
1782778848110613200,1.64961328125,23.86193084716797,1.2628902196884155,3.2802062034606934
1782778848120592400,1.65959228515625,24.85753631591797,1.2167673110961914,2.1408424377441406
1782778848130602200,1.669602294921875,21.773818969726562,1.4716413021087646,0.4474668502807617
1782778848140581600,1.67958154296875,15.405876159667969,2.014688730239868,-0.4149513244628906
1782778848150591200,1.68959130859375,9.105581283569336,2.6506428718566895,-0.4730229377746582
1782778848160601000,1.69960107421875,3.6048803329467773,2.757450819015503,-0.6933259963989258
1782778848170611000,1.70961083984375,-0.5643939971923828,2.3908534049987793,-0.7963275909423828
1782778848180590000,1.719590087890625,-2.266688823699951,1.4836540222167969,-1.4182767868041992
1782778848190600000,1.729599853515625,-2.449368953704834,0.5458171367645264,-2.4540538787841797
1782778848200609500,1.739609619140625,-1.831904411315918,-0.3734816312789917,-3.633427143096924
1782778848210589000,1.7495888671875,-1.003209114074707,-1.1660857200622559,-4.747075080871582
1782778848220598500,1.7595986328125,-0.1724710464477539,-1.883646011352539,-5.933792591094971
1782778848230608400,1.7696083984375,0.09045124053955078,-2.3371987342834473,-6.880433559417725
1782778848240587500,1.77958740234375,-0.8554935455322266,-2.4209461212158203,-7.47139310836792
1782778848250597400,1.789597412109375,-2.4837098121643066,-2.3360421657562256,-7.975159645080566
1782778848260607200,1.799607177734375,-4.225790977478027,-2.134708881378174,-8.249326705932617
1782778848270586400,1.80958642578125,-5.834083557128906,-1.6179251670837402,-7.728351593017578
1782778848280596200,1.81959619140625,-7.157887935638428,-0.8968062400817871,-6.317610740661621
1782778848290606000,1.829606201171875,-8.090340614318848,-0.17510628700256348,-5.37479829788208
1782778848300585200,1.839585205078125,-9.047164916992188,0.1904149055480957,-4.931728363037109
1782778848310595000,1.849594970703125,-9.789600372314453,0.21686577796936035,-5.337711334228516
1782778848320604700,1.859604736328125,-10.27718448638916,0.20263314247131348,-5.665470600128174
1782778848330583800,1.869583740234375,-10.314779281616211,-0.14376306533813477,-6.2533745765686035
1782778848340593700,1.87959375,-9.955739974975586,-0.37673449516296387,-6.376533031463623
1782778848350603500,1.889603515625,-9.518110275268555,-0.6630723476409912,-7.017077445983887
1782778848360264700,1.8992646484375,-9.345088005065918,-0.8095176815986633,-6.960232734680176
1782778848370592500,1.909592529296875,-9.142547607421875,-0.9665157198905945,-6.799393177032471
1782778848380602400,1.919602294921875,-9.108732223510742,-1.1137747764587402,-6.623708248138428
1782778848390581500,1.92958154296875,-9.128741264343262,-1.131439208984375,-6.280203819274902
1782778848400591400,1.93959130859375,-9.25180435180664,-1.2642130851745605,-6.0234375
1782778848410710300,1.949710205078125,-9.190570831298828,-1.279691219329834,-5.665132522583008
1782778848420580000,1.959580078125,-8.799942970275879,-1.45003080368042,-5.390082836151123
1782778848430590000,1.96958984375,-8.181486129760742,-1.604235053062439,-5.391135215759277
1782778848440556500,1.979556640625,-7.818439960479736,-2.0060853958129883,-5.647271633148193
1782778848450579000,1.989578857421875,-7.765978813171387,-2.077875852584839,-5.341230392456055
1782778848460588800,1.9995888671875,-8.030210494995117,-2.147784471511841,-4.87290620803833
1782778848470598700,2.0095986328125,-8.398416519165039,-2.3085482120513916,-4.701530456542969
1782778848480852500,2.0198525390625,-8.587296485900879,-2.426516532897949,-4.485133647918701
1782778848490587600,2.029587646484375,-8.708762168884277,-2.743189811706543,-4.796406269073486
1782778848500597200,2.03959716796875,-8.476953506469727,-2.871328830718994,-4.66190767288208
1782778848510607000,2.049607177734375,-7.484899520874023,-2.9572131633758545,-4.546024322509766
1782778848520586200,2.059586181640625,-6.332437038421631,-3.2021243572235107,-4.548814296722412
1782778848530596000,2.06959619140625,-6.138827323913574,-3.4603524208068848,-4.369158744812012
1782778848540606000,2.07960595703125,-5.157212257385254,-3.8431215286254883,-4.542267799377441
1782778848550585000,2.089585205078125,-4.8204145431518555,-4.341819763183594,-4.437171936035156
1782778848560595000,2.099594970703125,-3.6255135536193848,-4.08974552154541,-3.533674716949463
1782778848570604800,2.109604736328125,-0.6835136413574219,-3.371108055114746,-2.2017226219177246
1782778848580584000,2.119583984375,1.9752988815307617,-2.392463445663452,-1.885655164718628
1782778848590593800,2.12959375,3.938124656677246,-0.959813117980957,-3.4730262756347656
1782778848600603600,2.139603759765625,4.723499298095703,0.3928408622741699,-5.755828857421875
1782778848610582800,2.149582763671875,4.297979354858398,1.3183977603912354,-7.519259929656982
1782778848620592400,2.15959228515625,2.8367509841918945,2.2140469551086426,-8.157416343688965
1782778848630602200,2.169602294921875,3.3682374954223633,2.1213912963867188,-6.479752540588379
1782778848640581400,2.179581298828125,6.870261192321777,-0.03171730041503906,-4.234218120574951
1782778848650591200,2.18959130859375,13.032629013061523,-1.4301213026046753,-2.3245363235473633
1782778848660601000,2.19960107421875,19.986286163330078,-1.2887800931930542,1.507558822631836
1782778848670611000,2.20961083984375,28.71954345703125,-1.1808087825775146,4.359011650085449
1782778848680590000,2.219590087890625,37.77247619628906,-1.9292649030685425,4.407402515411377
1782778848690600000,2.229599853515625,43.609291076660156,-2.982100009918213,2.379495620727539
1782778848700609500,2.239609619140625,43.75938415527344,-2.5562620162963867,0.5763206481933594
1782778848710589000,2.2495888671875,37.47698211669922,-1.1548352241516113,1.318871021270752
1782778848720598800,2.259598876953125,27.569957733154297,1.166854977607727,3.5928521156311035
1782778848730608400,2.2696083984375,19.153549194335938,3.117464542388916,5.111353397369385
1782778848740587500,2.27958740234375,12.043932914733887,4.6873579025268555,5.583123683929443
1782778848750597400,2.289597412109375,7.4770002365112305,5.380127429962158,4.104907989501953
1782778848760607200,2.299607177734375,5.267570495605469,4.870558738708496,1.0257391929626465
1782778848770586400,2.30958642578125,4.522727012634277,3.936812162399292,-1.7990083694458008
1782778848780596200,2.31959619140625,3.967453956604004,2.7756829261779785,-3.684630870819092
1782778848790606000,2.329606201171875,3.3872222900390625,2.135554552078247,-4.04656457901001
1782778848800585200,2.339585205078125,3.7616777420043945,1.4538829326629639,-4.058604717254639
1782778848810595000,2.349594970703125,4.7546491622924805,0.4726369380950928,-4.611234188079834
1782778848820604700,2.359604736328125,4.818056106567383,0.27868008613586426,-4.05056095123291
1782778848830583800,2.369583740234375,4.316908836364746,0.33380192518234253,-3.4502835273742676
1782778848840593700,2.37959375,2.656871795654297,0.2773946523666382,-3.3631591796875
1782778848850603500,2.389603515625,0.02910900115966797,-0.004149794578552246,-3.7646734714508057
1782778848860582700,2.399582763671875,-2.510016441345215,-0.3493446707725525,-4.610116004943848
1782778848870592500,2.409592529296875,-4.663673400878906,-0.7848851680755615,-5.644591331481934
1782778848880602400,2.419602294921875,-5.946025848388672,-0.9313962459564209,-6.349243640899658
1782778848890581800,2.429581787109375,-6.654801368713379,-1.0301061868667603,-6.924635887145996
1782778848900591400,2.43959130859375,-6.881558418273926,-0.9258781671524048,-7.096633434295654
1782778848910601200,2.449601318359375,-7.2958984375,-0.6992107033729553,-7.185891151428223
1782778848920641300,2.459641357421875,-7.572005271911621,-0.3364673852920532,-6.82730770111084
1782778848930699300,2.46969921875,-8.068803787231445,-0.09842121601104736,-6.2949113845825195
1782778848940599800,2.479599853515625,-8.460518836975098,0.19116413593292236,-5.648329257965088
1782778848950609700,2.489609619140625,-9.08370590209961,0.14930975437164307,-5.5958075523376465
1782778848960667400,2.49966748046875,-9.524553298950195,0.11947977542877197,-5.825584888458252
1782778848970598700,2.5095986328125,-9.917757034301758,-0.14967596530914307,-6.092585563659668
1782778848980608500,2.5196083984375,-10.197770118713379,-0.5181382894515991,-6.608140468597412
1782778848990587600,2.529587646484375,-10.384868621826172,-0.7423678636550903,-7.015141487121582
1782778849000597500,2.539597412109375,-10.34733772277832,-0.9482634663581848,-6.861984729766846
1782778849010607000,2.549607177734375,-10.130544662475586,-1.0291469097137451,-6.528730392456055
1782778849020586200,2.559586181640625,-9.829890251159668,-1.2815940380096436,-6.5733160972595215
1782778849030705400,2.569705322265625,-9.508932113647461,-1.3100197315216064,-6.322256088256836
1782778849040575500,2.579575439453125,-9.284010887145996,-1.424043893814087,-5.984358787536621
1782778849050585000,2.589585205078125,-8.99925422668457,-1.5512659549713135,-5.955924034118652
1782778849060595000,2.599594970703125,-8.831186294555664,-1.5364344120025635,-5.625039100646973
1782778849070604800,2.609604736328125,-8.856109619140625,-1.6285018920898438,-5.107172012329102
1782778849080479500,2.6194794921875,-8.814482688903809,-1.8181028366088867,-5.207700729370117
1782778849090593800,2.62959375,-8.53195571899414,-2.111708164215088,-5.516777515411377
1782778849100603400,2.639603271484375,-7.997493267059326,-2.451734781265259,-5.755157470703125
1782778849110146300,2.649146240234375,-7.733517646789551,-2.636885166168213,-5.564461708068848
1782778849120592400,2.65959228515625,-8.275633811950684,-2.7183704376220703,-4.92432975769043
1782778849130663200,2.6696630859375,-8.362201690673828,-2.8573098182678223,-4.6388630867004395
1782778849140581600,2.67958154296875,-8.3502836227417,-3.0586330890655518,-4.458730220794678
1782778849150700500,2.689700439453125,-8.189516067504883,-3.340249538421631,-4.154388427734375
1782778849160601000,2.69960107421875,-7.418755531311035,-3.3750417232513428,-4.1201171875
1782778849170611000,2.70961083984375,-6.116096496582031,-3.5573811531066895,-3.7952094078063965
1782778849180590000,2.719590087890625,-4.163458824157715,-3.82835054397583,-3.1794774532318115
1782778849190600000,2.729599853515625,-0.514793872833252,-3.662351369857788,-2.551065683364868
1782778849200609800,2.73960986328125,5.036520957946777,-3.0843942165374756,-1.774238109588623
1782778849210589000,2.7495888671875,11.24318790435791,-2.327705144882202,-1.9177632331848145
1782778849220598500,2.7595986328125,14.481071472167969,-0.9472877979278564,-2.75342059135437
1782778849240587500,2.77958740234375,7.930499076843262,0.03060460090637207,-4.929267406463623
1782778849250597400,2.789597412109375,3.924798011779785,1.2756924629211426,-5.681948184967041
1782778849260607200,2.799607177734375,4.823732376098633,1.1482396125793457,-4.816954135894775
1782778849270586600,2.809586669921875,10.152981758117676,0.8645720481872559,-3.3709280490875244
1782778849280596200,2.81959619140625,17.021671295166016,0.7590296268463135,-1.1687636375427246
1782778849290606000,2.829606201171875,25.088130950927734,0.5141246318817139,1.7752447128295898
1782778849300585200,2.839585205078125,32.615631103515625,-0.21980249881744385,3.172760009765625
1782778849310595000,2.849594970703125,37.17835998535156,-0.6871464252471924,3.4144182205200195
1782778849320604700,2.859604736328125,36.3285026550293,-0.3337923288345337,3.709421157836914
1782778849330583800,2.869583740234375,31.34307861328125,0.7803902626037598,3.94052791595459
1782778849340593700,2.87959375,23.826419830322266,2.3300933837890625,5.136953830718994
1782778849350603500,2.889603515625,18.241397857666016,3.4264416694641113,4.584930896759033
1782778849360582700,2.899582763671875,13.956100463867188,3.8928422927856445,2.1806106567382812
1782778849370592500,2.909592529296875,10.703490257263184,4.236349105834961,0.22037315368652344
1782778849380602400,2.919602294921875,8.705368041992188,4.5972113609313965,-1.0130743980407715
1782778849390581800,2.929581787109375,7.020424842834473,4.444821357727051,-2.22882342338562
1782778849400591400,2.93959130859375,5.390342712402344,4.188929080963135,-2.940422773361206
1782778849410601000,2.94960107421875,4.272212028503418,3.594963550567627,-3.404707908630371
1782778849420610800,2.95961083984375,3.7051925659179688,2.73128604888916,-4.159727096557617
1782778849430590000,2.96958984375,3.1045169830322266,1.7415052652359009,-4.670853614807129
1782778849440599800,2.979599853515625,2.410554885864258,0.811179518699646,-4.897882461547852
1782778849450609700,2.989609619140625,0.9978151321411133,0.2607499361038208,-4.7797346115112305
1782778849460588800,2.9995888671875,-1.0055103302001953,-0.1236199140548706,-4.758601188659668
1782778849470598700,3.0095986328125,-3.1282529830932617,-0.5318793058395386,-4.7910966873168945
1782778849480608500,3.0196083984375,-5.142951965332031,-1.0077803134918213,-5.075434684753418
1782778849490587600,3.029587646484375,-7.049025535583496,-1.3361098766326904,-5.313668727874756
1782778849500597200,3.03959716796875,-8.410632133483887,-1.6726748943328857,-5.5855817794799805
1782778849510411300,3.049411376953125,-9.489975929260254,-1.9449089765548706,-6.1768479347229
1782778849520526600,3.059526611328125,-10.256084442138672,-2.233908176422119,-6.946447372436523
1782778849530597400,3.069597412109375,-10.493780136108398,-2.4319348335266113,-7.713675498962402
1782778849545272800,3.08427294921875,-10.432107925415039,-2.3200113773345947,-7.948304176330566
1782778849560595000,3.099594970703125,-11.086094856262207,-1.959540843963623,-7.42767333984375
1782778849570604800,3.109604736328125,-11.40408706665039,-1.7134816646575928,-7.0181498527526855
1782778849580584000,3.119583984375,-11.596090316772461,-1.4508740901947021,-6.7805986404418945
1782778849590593800,3.12959375,-11.835798263549805,-1.3634107112884521,-6.200223922729492
1782778849600543700,3.139543701171875,-11.898149490356445,-1.4492005109786987,-6.30434513092041
1782778849610674200,3.149674072265625,-12.03628158569336,-1.5552239418029785,-6.3963141441345215
1782778849620592400,3.15959228515625,-12.095170974731445,-1.5917649269104004,-6.274837970733643
1782778849630602200,3.169602294921875,-12.12493896484375,-1.8252203464508057,-6.256438255310059
1782778849640581600,3.17958154296875,-12.020098686218262,-2.1060233116149902,-6.269291877746582
1782778849650591200,3.18959130859375,-11.517144203186035,-2.178455352783203,-6.000089168548584
1782778849660601000,3.19960107421875,-11.037247657775879,-2.3635411262512207,-5.318885803222656
1782778849670611000,3.20961083984375,-10.277427673339844,-2.339264392852783,-4.801738262176514
1782778849680590000,3.219590087890625,-9.402814865112305,-2.140484094619751,-4.3754119873046875
1782778849690709000,3.229708984375,-8.774128913879395,-2.0514354705810547,-3.830331563949585
1782778849700579300,3.239579345703125,-8.455266952514648,-2.081888198852539,-3.7518808841705322
1782778849710589000,3.2495888671875,-8.169695854187012,-1.8944138288497925,-3.575617790222168
1782778849720402700,3.259402587890625,-8.177390098571777,-1.8874675035476685,-3.3835225105285645
1782778849730578000,3.269577880859375,-8.476753234863281,-1.8279675245285034,-3.447097063064575
1782778849740587500,3.27958740234375,-9.063458442687988,-1.9919580221176147,-3.5813729763031006
1782778849750597400,3.289597412109375,-9.003756523132324,-2.0766255855560303,-3.9843437671661377
1782778849760698600,3.29969873046875,-8.136868476867676,-2.2133636474609375,-4.604994773864746
1782778849770696000,3.309696044921875,-7.281804084777832,-2.132826089859009,-4.746227741241455
1782778849780596200,3.31959619140625,-7.200061798095703,-2.2305245399475098,-4.438780784606934
1782778849790606000,3.329606201171875,-5.534602165222168,-2.0837361812591553,-3.3656835556030273
1782778849800585200,3.339585205078125,-1.4219250679016113,-1.2432715892791748,-2.321608066558838
1782778849810595000,3.349594970703125,4.702964782714844,-0.41119515895843506,-2.025618553161621
1782778849820604700,3.359604736328125,10.248470306396484,0.8880524635314941,-3.2438814640045166
1782778849830583800,3.369583740234375,13.3262357711792,2.1811676025390625,-4.930843830108643
1782778849840593700,3.37959375,13.054228782653809,2.9333765506744385,-5.763272762298584
1782778849850603500,3.389603515625,10.686300277709961,2.9459614753723145,-4.512495040893555
1782778849860582700,3.399582763671875,10.65846061706543,2.950286626815796,-2.6267082691192627
1782778849880602400,3.419602294921875,19.545013427734375,0.5415979623794556,-1.175990343093872
1782778849890581500,3.42958154296875,24.989046096801758,-0.17468297481536865,3.676830768585205
1782778849900591400,3.43959130859375,31.592987060546875,-0.670705258846283,6.787777900695801
1782778849910541300,3.449541259765625,38.44744873046875,-2.022620439529419,7.336167335510254
1782778849920672000,3.459672119140625,41.803375244140625,-3.2794699668884277,5.284074783325195
1782778849930590000,3.46958984375,39.85569763183594,-3.743232011795044,2.7213335037231445
1782778849940599800,3.479599853515625,32.540924072265625,-2.872814178466797,1.988542079925537
1782778849950609700,3.489609619140625,23.51214599609375,-1.0223416090011597,3.2783923149108887
1782778849960588800,3.4995888671875,16.417556762695312,0.5429898500442505,3.493943691253662
1782778849970598700,3.5095986328125,10.357165336608887,1.980798602104187,3.567131996154785
1782778849980608500,3.5196083984375,7.217374801635742,2.402191162109375,2.7105698585510254
1782778849990587600,3.529587646484375,5.792752265930176,2.236070156097412,0.7214679718017578
1782778850000597500,3.539597412109375,4.921011924743652,1.6559947729110718,-1.5366201400756836
1782778850010547500,3.54954736328125,4.098623275756836,1.101287603378296,-3.292182207107544
1782778850025290800,3.564290771484375,3.0034685134887695,0.6165553331375122,-4.3184590339660645
1782778850040606000,3.57960595703125,2.253316879272461,0.18495285511016846,-4.616311073303223
1782778850050585000,3.589585205078125,1.5342435836791992,-0.15191638469696045,-4.566903591156006
1782778850060595000,3.599594970703125,0.35678768157958984,-0.11717033386230469,-4.12103796005249
1782778850070604800,3.609604736328125,-1.592087745666504,0.07427799701690674,-3.3510656356811523
1782778850080584000,3.619583984375,-3.11483097076416,0.07797348499298096,-3.302194595336914
1782778850090593800,3.62959375,-5.330660820007324,-0.3521156311035156,-4.430842399597168
1782778850100603400,3.639603271484375,-7.506800651550293,-1.076087236404419,-6.185463905334473
1782778850110582800,3.649582763671875,-8.808752059936523,-1.5571199655532837,-7.644458293914795
1782778850120532700,3.65953271484375,-9.828994750976562,-1.7370365858078003,-7.96450138092041
1782778850130603500,3.669603515625,-10.58262825012207,-1.4324097633361816,-8.009132385253906
1782778850141597700,3.68059765625,-11.031098365783691,-0.8600834608078003,-7.548485279083252
1782778850160662000,3.699662109375,-10.572300910949707,0.009968161582946777,-6.074156284332275
1782778850170611000,3.70961083984375,-9.84344482421875,0.4320269823074341,-5.561232566833496
1782778850180590000,3.719590087890625,-9.38877010345459,0.6257340908050537,-5.282707214355469
1782778850190600000,3.729599853515625,-9.593981742858887,0.4513237476348877,-5.502408027648926
1782778850200609800,3.73960986328125,-9.797865867614746,0.11231112480163574,-6.021864891052246
1782778850210589000,3.7495888671875,-9.745802879333496,-0.3034555912017822,-6.579946517944336
1782778850220598500,3.7595986328125,-9.286965370178223,-0.5168941020965576,-6.382251739501953
1782778850230608400,3.7696083984375,-8.814949035644531,-0.7327617406845093,-6.030258655548096
1782778850240513800,3.779513671875,-8.458057403564453,-0.8901960849761963,-5.543240070343018
1782778850250597400,3.789597412109375,-8.156018257141113,-1.1717431545257568,-5.245947360992432
1782778850260607200,3.799607177734375,-7.749046802520752,-1.386059284210205,-5.01785135269165
1782778850270149600,3.809149658203125,-7.421010494232178,-1.5634618997573853,-4.851485252380371
1782778850280596200,3.81959619140625,-7.41968297958374,-1.7377821207046509,-4.623023986816406
1782778850290606000,3.829606201171875,-8.005635261535645,-1.9479840993881226,-4.521566390991211
1782778850300694300,3.8396943359375,-8.78146743774414,-2.2239315509796143,-4.65612268447876
1782778850310595000,3.849594970703125,-9.196562767028809,-2.446533679962158,-4.591887474060059
1782778850320604700,3.859604736328125,-9.286097526550293,-2.6447644233703613,-4.384288311004639
1782778850330693000,3.869693115234375,-9.338191986083984,-2.897275686264038,-4.230246067047119
1782778850340593700,3.87959375,-9.346929550170898,-3.1526575088500977,-3.8778140544891357
1782778850350603500,3.889603515625,-9.066535949707031,-3.7305550575256348,-4.30246639251709
1782778850360583000,3.8995830078125,-8.5402250289917,-4.078725814819336,-4.883307933807373
1782778850370592500,3.909592529296875,-8.10286808013916,-4.336981773376465,-4.941488265991211
1782778850380602400,3.919602294921875,-8.012821197509766,-4.507484436035156,-4.942234039306641
1782778850390581500,3.92958154296875,-7.604825973510742,-4.759526252746582,-4.395961284637451
1782778850400591400,3.93959130859375,-6.286258697509766,-4.681641578674316,-2.963136672973633
1782778850410601000,3.94960107421875,-3.1525344848632812,-4.366112232208252,-1.6539826393127441
1782778850420610800,3.95961083984375,1.5592212677001953,-3.8178372383117676,-1.613985538482666
1782778850430590000,3.96958984375,6.80549430847168,-2.7233290672302246,-2.4661996364593506
1782778850440599800,3.979599853515625,10.529014587402344,-1.2082337141036987,-2.6298398971557617
1782778850450609700,3.989609619140625,10.389320373535156,0.05008840560913086,-2.979438543319702
1782778850460588800,3.9995888671875,8.266988754272461,0.6195857524871826,-2.633301258087158
1782778850470598700,4.0095986328125,7.3025102615356445,1.807753324508667,-1.8763315677642822
1782778850480608500,4.0196083984375,9.826478004455566,1.5423119068145752,-2.7166576385498047
1782778850490587600,4.029587646484375,13.792546272277832,0.40789055824279785,-2.845897912979126
1782778850500597500,4.039597412109375,17.816787719726562,0.3637995719909668,-0.9862935543060303
1782778850510607000,4.049607177734375,20.735340118408203,0.9702107906341553,2.4710488319396973
1782778850520586200,4.059586181640625,23.686481475830078,1.077444314956665,6.109719753265381
1782778850530596000,4.06959619140625,28.695816040039062,0.028324604034423828,8.267566680908203
1782778850540606000,4.07960595703125,34.484432220458984,-0.93360835313797,7.658266067504883
1782778850550585000,4.089585205078125,36.979248046875,-0.9423402547836304,5.484537601470947
1782778850560595000,4.099594970703125,34.289161682128906,-0.34541797637939453,3.537102222442627
1782778850570604800,4.109604736328125,27.477401733398438,1.174561858177185,3.6274166107177734
1782778850580584000,4.119583984375,20.479930877685547,2.805602550506592,3.6447315216064453
1782778850590593800,4.12959375,15.47407341003418,3.953369617462158,1.9793691635131836
1782778850600603400,4.139603271484375,10.296645164489746,4.387515068054199,0.8433313369750977
1782778850610582800,4.149582763671875,6.198016166687012,4.303025722503662,0.29531240463256836
1782778850620592600,4.159592529296875,3.0461368560791016,3.8571994304656982,-0.280576229095459
1782778850630602200,4.169602294921875,1.211294174194336,2.739206075668335,-1.333683729171753
1782778850640581600,4.17958154296875,1.1573429107666016,1.1353590488433838,-2.934292793273926
1782778850650591200,4.18959130859375,2.806955337524414,-0.555964469909668,-4.456851005554199
1782778850660601000,4.19960107421875,3.9672670364379883,-1.5854235887527466,-5.189371109008789
1782778850670611000,4.20961083984375,3.4311017990112305,-2.1120028495788574,-5.569324493408203
1782778850680590000,4.219590087890625,0.7805271148681641,-2.3431894779205322,-5.74892520904541
1782778850690600000,4.229599853515625,-3.1579842567443848,-2.677462100982666,-6.377901077270508
1782778850700609800,4.23960986328125,-6.670782566070557,-2.696606159210205,-6.880948543548584
1782778850710589000,4.2495888671875,-9.23495101928711,-2.291496753692627,-6.986454486846924
1782778850720598800,4.259598876953125,-10.468286514282227,-1.792963981628418,-6.863521099090576
1782778850730608400,4.2696083984375,-11.17179012298584,-1.5567302703857422,-6.185481548309326
1782778850740587500,4.27958740234375,-11.62079906463623,-0.9833732843399048,-5.894726276397705
1782778850750597400,4.289597412109375,-11.824142456054688,-0.6815595626831055,-6.095322132110596
1782778850760607200,4.299607177734375,-11.8032865524292,-0.7945131063461304,-6.254464149475098
1782778850770586400,4.30958642578125,-11.525712966918945,-0.792327880859375,-6.752618789672852
1782778850780596200,4.31959619140625,-11.388525009155273,-0.9329248666763306,-6.790315628051758
1782778850790606000,4.329606201171875,-11.58884048461914,-1.0612034797668457,-6.75494384765625
1782778850800585200,4.339585205078125,-11.66136360168457,-1.3117074966430664,-6.775269031524658
1782778850810595000,4.349594970703125,-11.723665237426758,-1.5494179725646973,-6.725875377655029
1782778850820604700,4.359604736328125,-11.680658340454102,-1.640322208404541,-6.47288703918457
1782778850830583800,4.369583740234375,-11.112942695617676,-1.7106964588165283,-6.001247406005859
1782778850840593700,4.37959375,-10.471358299255371,-1.9333574771881104,-5.83406925201416
1782778850850603500,4.389603515625,-9.916016578674316,-1.974159598350525,-5.4481096267700195
1782778850860582700,4.399582763671875,-9.617302894592285,-2.232447385787964,-5.438653945922852
1782778850870548200,4.40954833984375,-9.088850021362305,-2.2373290061950684,-5.130577087402344
1782778850880602400,4.419602294921875,-8.962187767028809,-2.24727201461792,-4.70221471786499
1782778850890581800,4.429581787109375,-8.92940902709961,-2.1531176567077637,-3.920095205307007
1782778850900591400,4.43959130859375,-8.486841201782227,-2.2317686080932617,-3.7548670768737793
1782778850910601200,4.449601318359375,-7.410800457000732,-2.466681480407715,-4.361673831939697
1782778850920610800,4.45961083984375,-6.396327972412109,-2.5753333568573,-4.574251651763916
1782778850930590000,4.46958984375,-6.34792423248291,-2.7101705074310303,-4.617856502532959
1782778850940599800,4.479599853515625,-7.298276901245117,-2.6924033164978027,-4.548780918121338
1782778850950609700,4.489609619140625,-8.647940635681152,-2.738720178604126,-4.250909328460693
1782778850960588800,4.4995888671875,-9.711557388305664,-2.759611129760742,-4.003817558288574
1782778850970616300,4.5096162109375,-9.779685020446777,-3.0618162155151367,-4.069087982177734
1782778850980578000,4.519578125,-7.957148551940918,-3.0962820053100586,-4.673144817352295
1782778850990587600,4.529587646484375,-5.773961067199707,-3.1439621448516846,-4.954559326171875
1782778851000597200,4.53959716796875,-3.8235459327697754,-3.4994113445281982,-4.931465148925781
1782778851010607000,4.549607177734375,-1.0893521308898926,-3.7378034591674805,-4.648761749267578
1782778851020586200,4.559586181640625,1.0877408981323242,-3.228930711746216,-4.074012756347656
1782778851030596000,4.56959619140625,4.734625816345215,-1.9868335723876953,-3.675872325897217
1782778851040606000,4.57960595703125,9.316641807556152,0.023818254470825195,-2.37154483795166
1782778851050585000,4.589585205078125,11.899552345275879,2.047165870666504,-1.2106311321258545
1782778851060595000,4.599594970703125,8.72688102722168,2.5555026531219482,-0.997002124786377
1782778851080584000,4.619583984375,5.205549240112305,1.2791976928710938,-0.1976180076599121
1782778851090593800,4.62959375,11.708945274353027,-2.601897954940796,-1.3164267539978027
1782778851100603400,4.639603271484375,20.152938842773438,-4.414809226989746,-3.109292507171631
1782778851110582800,4.649582763671875,27.893985748291016,-4.845869064331055,-2.2888011932373047
1782778851120592600,4.659592529296875,33.69890594482422,-4.634581089019775,-0.8177886009216309
1782778851130602200,4.669602294921875,36.24079513549805,-4.25897216796875,0.6379742622375488
1782778851140581400,4.679581298828125,33.59980773925781,-3.4740562438964844,2.552806854248047
1782778851150531600,4.689531494140625,28.092967987060547,-1.8047473430633545,4.993315696716309
1782778851160662000,4.699662109375,23.54090118408203,0.0008368492126464844,6.419864177703857
1782778851170611000,4.70961083984375,20.740629196166992,1.513200283050537,5.4766411781311035
1782778851180590000,4.719590087890625,18.852020263671875,2.1469497680664062,2.5204873085021973
1782778851190600000,4.729599853515625,17.410717010498047,2.8041391372680664,0.48742151260375977
1782778851200609800,4.73960986328125,16.225704193115234,3.3937697410583496,-0.21051025390625
1782778851210529000,4.749529052734375,14.615457534790039,3.7873730659484863,-0.5114469528198242
1782778851221271300,4.760271240234375,11.679492950439453,3.9476234912872314,-0.12703752517700195
1782778851240679200,4.77967919921875,5.75511360168457,2.794541835784912,-0.9548189640045166
1782778851250597400,4.789597412109375,3.028456687927246,1.7893131971359253,-1.7616610527038574
1782778851260607200,4.799607177734375,0.5312118530273438,0.6365653276443481,-2.4083802700042725
1782778851270586400,4.80958642578125,-1.406813144683838,-0.4231550693511963,-3.2950124740600586
1782778851280596200,4.81959619140625,-2.644165515899658,-1.6146349906921387,-5.264895439147949
1782778851290606000,4.829606201171875,-3.3027257919311523,-2.4840168952941895,-7.341977119445801
1782778851300585200,4.839585205078125,-4.151163101196289,-2.7323076725006104,-8.242039680480957
1782778851310595000,4.849594970703125,-4.71348762512207,-2.496131420135498,-8.219562530517578
1782778851320545000,4.859544921875,-5.023209095001221,-1.8857812881469727,-7.681125640869141
1782778851330675500,4.869675537109375,-5.922683238983154,-0.9267873764038086,-6.470201015472412
1782778851340534000,4.879533935546875,-7.465993881225586,-0.04932570457458496,-4.252400875091553
1782778851350604800,4.889604736328125,-9.493696212768555,0.7590429782867432,-3.2620086669921875
1782778851360674300,4.89967431640625,-11.776094436645508,0.7938442230224609,-1.5642297267913818
1782778851370592500,4.909592529296875,-13.387006759643555,0.5708022117614746,-1.8122997283935547
1782778851380542500,4.91954248046875,-14.773308753967285,0.05261969566345215,-3.911475658416748
1782778851390673200,4.929673095703125,-15.616451263427734,-1.2644178867340088,-5.837031841278076
1782778851400531700,4.93953173828125,-15.283611297607422,-2.0796878337860107,-7.129435062408447
1782778851410662100,4.949662109375,-14.392711639404297,-2.6665146350860596,-7.661602020263672
1782778851420610800,4.95961083984375,-13.172285079956055,-3.050194263458252,-7.86053466796875
1782778851430530300,4.9695302734375,-11.700450897216797,-3.083299398422241,-7.373424530029297
1782778851440660700,4.97966064453125,-10.887914657592773,-2.9396281242370605,-6.201994895935059
1782778851450609700,4.989609619140625,-10.556543350219727,-2.8698391914367676,-5.468320369720459
1782778851460588800,4.9995888671875,-10.516307830810547,-2.7152230739593506,-4.813194274902344
1782778851470718000,5.009718017578125,-10.387622833251953,-2.523418664932251,-4.120494842529297
1782778851480578000,5.019578125,-9.976861953735352,-2.5802056789398193,-4.027308464050293
1782778851490587600,5.029587646484375,-9.744952201843262,-2.7205100059509277,-4.421621799468994
1782778851500597500,5.039597412109375,-9.684142112731934,-3.2417800426483154,-5.1758623123168945
1782778851510607000,5.049607177734375,-9.63809585571289,-3.4578957557678223,-5.4337944984436035
1782778851520360000,5.05935986328125,-9.759369850158691,-3.5738391876220703,-5.478966236114502
1782778851530596000,5.06959619140625,-9.901897430419922,-3.6186604499816895,-5.1929545402526855
1782778851540606000,5.07960595703125,-10.21337890625,-3.515639305114746,-4.935564041137695
1782778851550585000,5.089585205078125,-10.742106437683105,-3.194500207901001,-4.242873191833496
1782778851560595000,5.099594970703125,-10.85011100769043,-3.0141079425811768,-3.7828574180603027
1782778851570604800,5.109604736328125,-10.393470764160156,-3.2070698738098145,-3.827902317047119
1782778851580584000,5.119583984375,-9.293793678283691,-3.7767486572265625,-4.641002655029297
1782778851590593800,5.12959375,-8.003600120544434,-4.23809814453125,-5.405008792877197
1782778851600603400,5.139603271484375,-6.622418403625488,-4.45553731918335,-5.430232048034668
1782778851610582800,5.149582763671875,-4.990661144256592,-4.321035385131836,-4.293140411376953
1782778851620592600,5.159592529296875,-3.4102444648742676,-4.273813247680664,-3.5895307064056396
1782778851630602200,5.169602294921875,-1.4461445808410645,-4.469403266906738,-4.046175003051758
1782778851640581400,5.179581298828125,2.1981725692749023,-4.126025676727295,-4.237197399139404
1782778851650591200,5.18959130859375,6.18198299407959,-2.6945974826812744,-3.8935346603393555
1782778851660601000,5.19960107421875,8.541422843933105,-0.15788817405700684,-3.487703323364258
1782778851670611000,5.20961083984375,7.305405616760254,1.1427092552185059,-2.7347047328948975
1782778851680590000,5.219590087890625,5.894842147827148,1.5049262046813965,-2.3099677562713623
1782778851690600000,5.229599853515625,8.631628036499023,1.9012744426727295,-3.183105707168579
1782778851700609800,5.23960986328125,14.506044387817383,1.1210224628448486,-2.881725788116455
1782778851720598800,5.259598876953125,22.310693740844727,0.5052883625030518,0.5161328315734863
1782778851730608400,5.2696083984375,23.93450927734375,0.9019043445587158,2.511998176574707
1782778851740587500,5.27958740234375,25.489002227783203,0.9167873859405518,4.3220648765563965
1782778851750597400,5.289597412109375,27.636144638061523,0.4578969478607178,5.485433101654053
1782778851760607200,5.299607177734375,29.622724533081055,-0.9172239899635315,5.223074436187744
1782778851770586400,5.30958642578125,30.7916202545166,-2.0333170890808105,3.2608680725097656
1782778851780596200,5.31959619140625,30.680347442626953,-2.4067366123199463,1.907163143157959
1782778851790606000,5.329606201171875,28.13056182861328,-1.7430996894836426,1.707653522491455
1782778851800585200,5.339585205078125,22.947994232177734,-0.0892488956451416,2.435875415802002
1782778851810595000,5.349594970703125,17.60720443725586,1.466351866722107,2.4922585487365723
1782778851820604700,5.359604736328125,13.029803276062012,2.676886796951294,1.3568634986877441
1782778851830583800,5.369583740234375,8.902189254760742,3.4001965522766113,0.1508493423461914
1782778851840593700,5.37959375,5.142799377441406,3.9261152744293213,-1.097599744796753
1782778851850603500,5.389603515625,1.7078857421875,3.9340968132019043,-1.7787160873413086
1782778851860582700,5.399582763671875,-0.8738255500793457,3.45220947265625,-2.5448882579803467
1782778851870592500,5.409592529296875,-2.252026081085205,2.4779865741729736,-3.6837663650512695
1782778851880602400,5.419602294921875,-1.2729930877685547,1.0426191091537476,-4.962709903717041
1782778851890581800,5.429581787109375,0.6778898239135742,-0.1721428632736206,-6.393963813781738
1782778851900591400,5.43959130859375,1.5358943939208984,-0.9511999487876892,-6.9542765617370605
1782778851910601200,5.449601318359375,1.0166940689086914,-1.2956287860870361,-6.630812644958496
1782778851920610800,5.45961083984375,-0.5746297836303711,-1.4992737770080566,-6.521050930023193
1782778851930590000,5.46958984375,-2.690007209777832,-1.4319398403167725,-6.532449722290039
1782778851940599800,5.479599853515625,-5.419461250305176,-1.4154653549194336,-6.399985313415527
1782778851950609700,5.489609619140625,-7.859795093536377,-1.3748053312301636,-6.452149868011475
1782778851960588800,5.4995888671875,-9.953702926635742,-1.255720615386963,-6.614998817443848
1782778851970598700,5.5095986328125,-11.445515632629395,-1.0890569686889648,-6.3598175048828125
1782778851980608500,5.5196083984375,-11.843001365661621,-0.9200393557548523,-6.875833034515381
1782778851990587600,5.529587646484375,-11.683712005615234,-1.0232248306274414,-7.518067359924316
1782778852000597500,5.539597412109375,-11.714265823364258,-1.0111823081970215,-8.038951873779297
1782778852010607000,5.549607177734375,-11.949265480041504,-0.9945798516273499,-7.991888523101807
1782778852020586200,5.559586181640625,-12.026140213012695,-0.9316364526748657,-7.938417911529541
1782778852030596000,5.56959619140625,-11.888544082641602,-1.0765072107315063,-8.157630920410156
1782778852040606000,5.57960595703125,-11.767463684082031,-1.0521832704544067,-8.033673286437988
1782778852050585000,5.589585205078125,-11.784042358398438,-1.0145845413208008,-7.342266082763672
1782778852060595000,5.599594970703125,-11.620316505432129,-0.9749463200569153,-6.667051315307617
1782778852070604800,5.609604736328125,-11.135966300964355,-1.01338529586792,-6.181527614593506
1782778852080584000,5.619583984375,-10.121591567993164,-1.1645736694335938,-5.689692497253418
1782778852090593800,5.62959375,-8.880304336547852,-1.286238670349121,-4.998534679412842
1782778852100603400,5.639603271484375,-7.400508403778076,-1.6320366859436035,-4.862421035766602
1782778852110582800,5.649582763671875,-5.873346328735352,-1.9462924003601074,-5.220368385314941
1782778852120592600,5.659592529296875,-4.776098251342773,-2.197404384613037,-5.403983116149902
1782778852130602200,5.669602294921875,-4.138971328735352,-2.1988587379455566,-5.320276737213135
1782778852140581600,5.67958154296875,-3.958871841430664,-1.9578893184661865,-4.7995500564575195
1782778852150591200,5.68959130859375,-4.416891574859619,-1.4467902183532715,-3.921900510787964
1782778852160601000,5.69960107421875,-5.2025346755981445,-1.063124656677246,-3.059143543243408
1782778852170611000,5.70961083984375,-5.935259819030762,-0.9531309604644775,-2.644890785217285
1782778852180590000,5.719590087890625,-6.637909412384033,-1.0540438890457153,-2.6706132888793945
1782778852190600000,5.729599853515625,-7.606648921966553,-1.6260762214660645,-3.5397591590881348
1782778852200718800,5.73971875,-8.25578784942627,-2.175839424133301,-4.402035713195801
1782778852210589000,5.7495888671875,-8.152114868164062,-2.702658176422119,-5.016758441925049
1782778852220598800,5.759598876953125,-6.9578657150268555,-3.217405319213867,-5.5471367835998535
1782778852230608400,5.7696083984375,-4.789362907409668,-3.732649087905884,-5.885974407196045
1782778852240587500,5.77958740234375,-2.460374355316162,-3.7109861373901367,-5.397708892822266
1782778852250597400,5.789597412109375,-0.630859375,-3.1325972080230713,-4.416569232940674
1782778852260607200,5.799607177734375,0.26693153381347656,-1.9023264646530151,-2.5735459327697754
1782778852270586400,5.80958642578125,2.369227409362793,-0.33806920051574707,-0.5505151748657227
1782778852280596200,5.81959619140625,4.6146697998046875,0.5374879837036133,0.6686201095581055
1782778852290606000,5.829606201171875,7.591025352478027,1.0267213582992554,0.48907899856567383
1782778852300585200,5.839585205078125,10.913492202758789,1.2400541305541992,-0.15860843658447266
1782778852310595000,5.849594970703125,15.410544395446777,1.210988163948059,-0.2808847427368164
1782778852320604700,5.859604736328125,19.105915069580078,0.5181549787521362,-0.8558347225189209
1782778852330583800,5.869583740234375,19.876924514770508,-0.06788468360900879,-1.048062801361084
1782778852340593700,5.87959375,19.76664161682129,-0.42875683307647705,-0.5015411376953125
1782778852360582700,5.899582763671875,24.49154281616211,-0.11994016170501709,4.286902904510498
1782778852370592500,5.909592529296875,28.788528442382812,-0.31304681301116943,7.2696919441223145
1782778852380602400,5.919602294921875,33.19853210449219,-0.5852707028388977,8.544767379760742
1782778852390581800,5.929581787109375,34.63581848144531,-1.7897173166275024,6.196094512939453
1782778852400591400,5.93959130859375,31.823806762695312,-2.9763312339782715,1.8841018676757812
1782778852410601000,5.94960107421875,26.301097869873047,-3.136845111846924,-0.9841361045837402
1782778852420610800,5.95961083984375,21.054527282714844,-1.9107853174209595,-1.7765519618988037
1782778852430590000,5.96958984375,16.096803665161133,-0.25882500410079956,-1.8392589092254639
1782778852440599800,5.979599853515625,11.008232116699219,1.5332422256469727,-1.211418867111206
1782778852450609700,5.989609619140625,5.916756629943848,2.770322322845459,-0.34952592849731445
1782778852460588800,5.9995888671875,1.6425800323486328,3.1145825386047363,-0.09748983383178711
1782778852470598700,6.0095986328125,-0.525148868560791,2.3655033111572266,-1.1295673847198486
1782778852480608500,6.0196083984375,0.1244955062866211,0.791386604309082,-3.057352066040039
1782778852490587600,6.029587646484375,2.0020523071289062,-0.9502698183059692,-4.890583038330078
1782778852500597200,6.03959716796875,3.0688276290893555,-2.208746910095215,-6.334394931793213
1782778852510607000,6.049607177734375,2.456820487976074,-2.7093801498413086,-7.38143253326416
1782778852520586200,6.059586181640625,1.0044269561767578,-2.837266206741333,-7.3865156173706055
1782778852530596000,6.06959619140625,-1.5160102844238281,-2.5498616695404053,-6.87053108215332
1782778852540606000,6.07960595703125,-4.411418914794922,-2.1035873889923096,-6.255396366119385
1782778852550585300,6.08958544921875,-6.828951358795166,-1.713849663734436,-6.01359748840332
1782778852560595000,6.099594970703125,-8.892434120178223,-1.358825922012329,-5.778380870819092
1782778852570604800,6.109604736328125,-10.865432739257812,-1.074756383895874,-5.61371374130249
1782778852580584000,6.119583984375,-13.2388334274292,-0.9334075450897217,-5.470461368560791
1782778852590593800,6.12959375,-14.952905654907227,-1.001778244972229,-5.532228946685791
1782778852600603400,6.139603271484375,-16.444982528686523,-0.8971291780471802,-6.726485729217529
1782778852610582800,6.149582763671875,-17.080829620361328,-0.9549235105514526,-6.551601409912109
1782778852620592600,6.159592529296875,-16.514007568359375,-1.1258286237716675,-6.466403007507324
1782778852630602200,6.169602294921875,-15.353538513183594,-1.2996554374694824,-7.018094062805176
1782778852640581400,6.179581298828125,-13.693506240844727,-1.607377052307129,-7.35902214050293
1782778852650591200,6.18959130859375,-11.98349380493164,-1.7951865196228027,-7.343192100524902
1782778852660601000,6.19960107421875,-10.4951810836792,-1.9726707935333252,-7.431002616882324
1782778852670611000,6.20961083984375,-9.013213157653809,-1.9156548976898193,-7.004092216491699
1782778852680590000,6.219590087890625,-8.043173789978027,-2.11228609085083,-6.341125965118408
1782778852690600000,6.229599853515625,-6.973161697387695,-2.0721566677093506,-5.751859188079834
1782778852700609800,6.23960986328125,-6.094724655151367,-2.1034843921661377,-5.408220291137695
1782778852710589000,6.2495888671875,-5.687919616699219,-2.1431996822357178,-5.297176837921143
1782778852720598500,6.2595986328125,-5.990302085876465,-2.1404144763946533,-5.169996738433838
1782778852730608400,6.2696083984375,-6.796138763427734,-2.2397289276123047,-5.397157669067383
1782778852740650500,6.279650390625,-7.851471900939941,-2.2090184688568115,-5.6287994384765625
1782778852750597400,6.289597412109375,-8.736934661865234,-2.2941462993621826,-5.700071811676025
1782778852760607200,6.299607177734375,-9.00178337097168,-2.0597896575927734,-5.188363552093506
1782778852770573600,6.309573486328125,-9.0536527633667,-1.9849445819854736,-4.647005558013916
1782778852780596200,6.31959619140625,-8.643467903137207,-1.9897611141204834,-4.642772674560547
1782778852790606000,6.329606201171875,-7.612502098083496,-2.1991899013519287,-4.7471818923950195
1782778852800585200,6.339585205078125,-6.767969131469727,-2.3882932662963867,-4.819206714630127
1782778852810595000,6.349594970703125,-6.147200107574463,-2.4075660705566406,-4.618899822235107
1782778852820604700,6.359604736328125,-5.677523612976074,-2.6071979999542236,-4.596620559692383
1782778852830583800,6.369583740234375,-4.465147972106934,-2.754378318786621,-4.395179271697998
1782778852840593700,6.37959375,-2.3051819801330566,-2.8121836185455322,-3.850198268890381
1782778852850603500,6.389603515625,0.47049617767333984,-2.6783838272094727,-3.1978049278259277
1782778852860582700,6.399582763671875,4.054196357727051,-2.010528802871704,-2.7873125076293945
1782778852870592500,6.409592529296875,7.356922149658203,-1.36234450340271,-2.6170525550842285
1782778852880602400,6.419602294921875,10.177654266357422,-0.5424743890762329,-4.432098865509033
1782778852890581500,6.42958154296875,11.052404403686523,-0.465653657913208,-6.000385284423828
1782778852900591400,6.43959130859375,10.086515426635742,-0.9320424795150757,-5.360652923583984
1782778852920610800,6.45961083984375,10.449560165405273,0.7069432735443115,-0.23693418502807617
1782778852930590000,6.46958984375,13.19199275970459,0.9773831367492676,2.7605605125427246
1782778852940599800,6.479599853515625,16.08808708190918,1.2664706707000732,3.3870301246643066
1782778852950609700,6.489609619140625,18.3010311126709,1.2758336067199707,2.5580739974975586
1782778852960588800,6.4995888671875,20.259605407714844,0.9913341999053955,1.2525568008422852
1782778852970598700,6.5095986328125,21.023365020751953,0.5909035205841064,0.6179652214050293
1782778852980608500,6.5196083984375,20.849422454833984,-0.15310049057006836,0.8650598526000977
1782778852990587600,6.529587646484375,20.82128143310547,-0.2620534896850586,1.9497947692871094
1782778853000597500,6.539597412109375,21.784269332885742,0.2429044246673584,2.7725157737731934
1782778853010607000,6.549607177734375,22.502275466918945,1.018583059310913,1.9480500221252441
1782778853020526600,6.559526611328125,22.018712997436523,1.5224552154541016,-0.3674049377441406
1782778853030657000,6.569656982421875,19.12311553955078,1.6384546756744385,-3.050933361053467
1782778853040606000,6.57960595703125,16.084186553955078,1.9586021900177002,-4.519140720367432
1782778853050585000,6.589585205078125,12.597309112548828,2.5633914470672607,-4.308294296264648
1782778853060595000,6.599594970703125,8.78600788116455,2.857537031173706,-4.068923473358154
1782778853070604800,6.609604736328125,5.068185806274414,2.8378279209136963,-3.8282389640808105
1782778853080584000,6.619583984375,2.252924919128418,2.368736982345581,-3.308417320251465
1782778853090593800,6.62959375,0.9022512435913086,1.2346556186676025,-3.4610462188720703
1782778853100603400,6.639603271484375,0.43987369537353516,-0.4625200033187866,-4.770796775817871
1782778853110523000,6.64952294921875,0.6815109252929688,-1.9278548955917358,-5.9861369132995605
1782778853120653600,6.659653564453125,0.9955806732177734,-2.846883535385132,-6.643851280212402
1782778853130602200,6.669602294921875,0.5240383148193359,-3.54209303855896,-7.058483123779297
1782778853140521700,6.679521728515625,-0.8397998809814453,-3.545922040939331,-6.136786460876465
1782778853150683000,6.689682861328125,-2.551147937774658,-3.038800001144409,-5.015599727630615
1782778853160601000,6.69960107421875,-4.249911785125732,-2.5710349082946777,-4.3865814208984375
1782778853170551300,6.70955126953125,-5.417287826538086,-1.9325950145721436,-3.8043806552886963
1782778853181474800,6.720474853515625,-6.278097152709961,-1.0304590463638306,-3.1496894359588623
1782778853200550000,6.7395498046875,-8.254756927490234,-0.141066312789917,-2.5704448223114014
1782778853210680300,6.749680419921875,-9.225736618041992,-0.2920868396759033,-2.7914586067199707
1782778853220598500,6.7595986328125,-9.914000511169434,-0.6210801601409912,-3.5056166648864746
1782778853230608400,6.7696083984375,-10.336003303527832,-1.1912751197814941,-5.1082258224487305
1782778853240587500,6.77958740234375,-11.04971694946289,-1.6592785120010376,-5.855196475982666
1782778853250597400,6.789597412109375,-11.993980407714844,-1.8443248271942139,-6.073505878448486
1782778853260607200,6.799607177734375,-12.453659057617188,-2.1095633506774902,-6.130463123321533
1782778853270586400,6.80958642578125,-12.170735359191895,-2.2087032794952393,-5.927509307861328
1782778853280596200,6.81959619140625,-11.726430892944336,-2.2504498958587646,-5.212761878967285
1782778853290606000,6.829606201171875,-11.069886207580566,-2.479329824447632,-4.825619697570801
1782778853300585200,6.839585205078125,-10.094314575195312,-2.5627799034118652,-4.295437812805176
1782778853310595000,6.849594970703125,-9.024557113647461,-2.8531510829925537,-4.033885955810547
1782778853320604700,6.859604736328125,-8.155839920043945,-3.1566405296325684,-4.6165008544921875
1782778853330583800,6.869583740234375,-7.8490471839904785,-3.2890779972076416,-4.780882358551025
1782778853340593700,6.87959375,-7.988824844360352,-3.5383431911468506,-4.667290687561035
1782778853350603500,6.889603515625,-8.397466659545898,-3.590122938156128,-4.884859085083008
1782778853360582700,6.899582763671875,-8.968994140625,-3.5063397884368896,-4.3181610107421875
1782778853370701800,6.909701904296875,-9.320999145507812,-3.4389171600341797,-3.7379140853881836
1782778853380602400,6.919602294921875,-9.320523262023926,-3.1890079975128174,-3.0533828735351562
1782778853390581500,6.92958154296875,-8.684608459472656,-3.186311960220337,-2.6903316974639893
1782778853400609000,6.939609130859375,-7.648038864135742,-3.3668742179870605,-3.1649129390716553
1782778853410601000,6.94960107421875,-7.011225700378418,-3.5011234283447266,-3.5791163444519043
1782778853420551200,6.95955126953125,-6.583828926086426,-3.65240740776062,-3.2605783939361572
1782778853430681600,6.969681640625,-5.987730026245117,-3.543135643005371,-2.7632410526275635
1782778853440540200,6.9795400390625,-5.673211097717285,-3.7549538612365723,-2.832897186279297
1782778853450670600,6.989670654296875,-4.612785339355469,-4.041324138641357,-3.132720947265625
1782778853460588800,6.9995888671875,-2.85683012008667,-3.539356231689453,-2.457306385040283
1782778853470598700,7.0095986328125,-0.37645721435546875,-3.315316677093506,-2.120293617248535
1782778853480608500,7.0196083984375,2.027986526489258,-2.8297572135925293,-2.761788845062256
1782778853490587600,7.029587646484375,4.666808128356934,-1.7439465522766113,-3.215909957885742
1782778853501803000,7.040802978515625,7.87232780456543,-0.34503650665283203,-3.8949666023254395
1782778853520586200,7.059586181640625,11.869617462158203,0.7603986263275146,-4.621633529663086
1782778853530596000,7.06959619140625,13.824043273925781,1.924652099609375,-4.6475090980529785
1782778853540606000,7.07960595703125,12.745318412780762,2.2546536922454834,-5.861976623535156
1782778853550585000,7.089585205078125,10.628029823303223,2.102142333984375,-5.034699440002441
1782778853560595000,7.099594970703125,10.66230297088623,2.56117844581604,-2.5236623287200928
1782778853570604800,7.109604736328125,11.05341911315918,3.809643268585205,2.143803834915161
1782778853580584000,7.119583984375,14.471052169799805,2.7463154792785645,4.127740859985352
1782778853590593800,7.12959375,18.463855743408203,1.361617088317871,3.3827311992645264
