time,seconds_elapsed,z,y,x
1782778846640104000,0.17910400390625,0.22479841113090515,0.18997909128665924,0.9810495972633362
1782778846650577400,0.189577392578125,0.22479841113090515,0.18997909128665924,0.9810495972633362
1782778846660673500,0.199673583984375,0.22479841113090515,0.18997909128665924,0.9810495972633362
1782778846670700300,0.2097001953125,0.22479841113090515,0.18997909128665924,0.9810495972633362
1782778846680226000,0.21922607421875,0.021380282938480377,0.13500121235847473,-0.15332718193531036
1782778846690696000,0.229696044921875,0.08429940044879913,0.3597996234893799,-0.17837265133857727
1782778846700791300,0.239791259765625,0.059864792972803116,0.35735616087913513,-0.2577851414680481
1782778846710677000,0.249677001953125,0.019547687843441963,0.3378084897994995,-0.3488040566444397
1782778846720671200,0.259671142578125,-0.054367005825042725,0.2773328125476837,-0.4404338300228119
1782778846730701300,0.269701416015625,-0.10506882518529892,0.18631389737129211,-0.5009095072746277
1782778846740660200,0.27966015625,-0.08002334833145142,0.08979719132184982,-0.4355469346046448
1782778846750691800,0.28969189453125,0.05253441259264946,0.03298672288656235,-0.192422553896904
1782778846760679700,0.2996796875,0.23640485107898712,0.06414084881544113,0.18936823308467865
1782778846770680600,0.3096806640625,0.46853363513946533,0.1875356286764145,0.59803706407547
1782778846780668700,0.319668701171875,0.655458390712738,0.0012217304902151227,0.7941248416900635
1782778846790700000,0.329699951171875,0.6481280326843262,-0.5161811113357544,0.5149593949317932
1782778846800657700,0.33965771484375,0.5644394755363464,-0.7275404930114746,-0.1514945775270462
1782778846810688300,0.349688232421875,0.47280970215797424,-0.5540547966957092,-0.9150761365890503
1782778846820676000,0.359676025390625,0.31031954288482666,-0.5479460954666138,-1.6310101747512817
1782778846830676500,0.369676513671875,0.19364428520202637,-0.8521569967269897,-2.1545217037200928
1782778846840665900,0.379665771484375,0.2474004179239273,-1.1081095933914185,-2.174680233001709
1782778846850697700,0.38969775390625,0.43249258399009705,-0.8643743395805359,-1.4086552858352661
1782778846860654600,0.399654541015625,0.7061602473258972,-0.4300491213798523,-0.17104226350784302
1782778846870685400,0.409685546875,0.8961393237113953,-0.30482175946235657,0.7770205736160278
1782778846880674300,0.41967431640625,0.8936958312988281,-0.5314527750015259,1.043968677520752
1782778846890674000,0.429673828125,0.7751879692077637,-0.6664539575576782,0.9059131741523743
1782778846900663300,0.439663330078125,0.5552765130996704,-0.7177666425704956,0.5424483418464661
1782778846910694000,0.44969384765625,0.3481931984424591,-0.6059783101081848,0.19486601650714874
1782778846920683300,0.459683349609375,0.2431243658065796,-0.4355469346046448,-0.025045474991202354
1782778846930683100,0.46968310546875,0.2119702398777008,-0.342695415019989,-0.16004669666290283
1782778846940672300,0.47967236328125,0.1661553531885147,-0.28588494658470154,-0.3433062732219696
1782778846950705000,0.489704833984375,0.09773843735456467,-0.24068090319633484,-0.6829473376274109
1782778846960661200,0.4996611328125,0.02626720629632473,-0.20891591906547546,-1.0965031385421753
1782778846970692600,0.509692626953125,-0.02626720629632473,-0.16859880089759827,-1.4202617406845093
1782778846980680700,0.5196806640625,-0.0403171069920063,-0.09529497474431992,-1.5253305435180664
1782778846990681900,0.529681884765625,-0.02932153269648552,-0.04886921867728233,-1.3817771673202515
1782778847000670000,0.539669921875,0.04459316283464432,-0.06841690838336945,-1.0238101482391357
1782778847010700000,0.549699951171875,0.18387043476104736,-0.05253441259264946,-0.494189977645874
1782778847020659000,0.559658935546875,0.28649580478668213,-0.009773843921720982,0.09468411654233932
1782778847030689500,0.569689453125,0.3500257730484009,0.19608774781227112,0.6505714654922485
1782778847040678400,0.579678466796875,0.3830125033855438,0.5265658497810364,1.0293079614639282
1782778847050681000,0.58968115234375,0.3689626157283783,0.7941248416900635,1.1746938228607178
1782778847060667400,0.59966748046875,0.28466320037841797,0.8863654732704163,1.0702359676361084
1782778847070698500,0.609698486328125,0.1313360333442688,0.7874053120613098,0.7556403279304504
1782778847080656400,0.619656494140625,0.05375614017248154,0.617584764957428,0.36102136969566345
1782778847090687000,0.62968701171875,0.022602014243602753,0.45753806829452515,0.0354301854968071
1782778847100675800,0.63967578125,-0.015271631069481373,0.3084869384765625,-0.17531833052635193
1782778847110678000,0.649677978515625,0.0006108652451075613,0.26511552929878235,-0.26022860407829285
1782778847120784100,0.6597841796875,-0.005497787147760391,0.3139847218990326,-0.242513507604599
1782778847130695700,0.66969580078125,-0.028099801391363144,0.38728857040405273,-0.21624629199504852
1782778847140654000,0.679654052734375,-0.0555887371301651,0.4795292317867279,-0.1869247704744339
1782778847150795800,0.689795654296875,-0.09896016865968704,0.5632177591323853,-0.12889257073402405
1782778847160673500,0.699673583984375,-0.11850785464048386,0.5583308339118958,-0.0555887371301651
1782778847170704000,0.709703857421875,-0.09957103431224823,0.5057964324951172,0.001832595793530345
1782778847180662500,0.71966259765625,-0.06963863968849182,0.4349360466003418,0.027488935738801956
1782778847190695200,0.729695068359375,-0.012217304669320583,0.3781255781650543,0.11056660860776901
1782778847200302800,0.739302734375,0.06902777403593063,0.2968805134296417,0.2272418737411499
1782778847210714600,0.749714599609375,0.12339477986097336,0.19792033731937408,0.342695415019989
1782778847220679000,0.759678955078125,0.16859880089759827,0.13072516024112701,0.42271876335144043
1782778847230701300,0.769701416015625,0.19058994948863983,0.10751228034496307,0.484416127204895
1782778847240660200,0.77966015625,0.2125810980796814,0.14049901068210602,0.5436700582504272
1782778847250802000,0.789802001953125,0.20402899384498596,0.14966198801994324,0.5937610268592834
1782778847260649200,0.799649169921875,0.1814269721508026,0.1362229436635971,0.636521577835083
1782778847270679600,0.809679443359375,0.15882496535778046,0.07819075137376785,0.7257078886032104
1782778847280625200,0.819625244140625,0.16859880089759827,0.02687807008624077,0.769690215587616
1782778847290668500,0.82966845703125,0.1612684279680252,-0.005497787147760391,0.7171558141708374
1782778847300682200,0.83968212890625,0.11056660860776901,0.03237585723400116,0.6010913848876953
1782778847310688000,0.84968798828125,0.06475171446800232,0.14782938361167908,0.45142942667007446
1782778847320677000,0.859677001953125,0.06536258012056351,0.23945917189121246,0.33475416898727417
1782778847330677800,0.869677734375,0.11972958594560623,0.25534167885780334,0.36651915311813354
1782778847340666400,0.879666259765625,0.25473082065582275,0.20097467303276062,0.5540547966957092
1782778847350698000,0.889697998046875,0.4105014503002167,0.06841690838336945,0.7379252314567566
1782778847360655400,0.8996552734375,0.48869219422340393,0.18570303916931152,0.8759807348251343
1782778847370687000,0.90968701171875,0.513737678527832,0.503963828086853,0.9108000993728638
1782778847380674800,0.9196748046875,0.5687155723571777,0.7971791625022888,0.8344419002532959
1782778847400663800,0.939663818359375,0.9419541954994202,1.1044443845748901,0.9150761365890503
1782778847410695000,0.94969482421875,1.0751228332519531,0.6866125464439392,0.7666358947753906
1782778847420683300,0.959683349609375,1.0134254693984985,0.17592918872833252,0.4508185386657715
1782778847430684200,0.96968408203125,0.9059131741523743,-0.15577064454555511,0.04153883829712868
1782778847440672300,0.97967236328125,0.846659243106842,-0.39645153284072876,-0.48747047781944275
1782778847450702800,0.989702880859375,0.637132465839386,-0.6450737118721008,-1.0739010572433472
1782778847460661200,0.9996611328125,0.2981022298336029,-0.9340129494667053,-1.5369369983673096
1782778847470691800,1.00969189453125,0.02871066704392433,-1.235169529914856,-1.793500304222107
1782778847480681000,1.019680908203125,-0.06230825558304787,-1.521665334701538,-1.872912883758545
1782778847490681900,1.029681884765625,0.018936822190880775,-1.5595389604568481,-1.703092336654663
1782778847500669700,1.039669677734375,0.18875735998153687,-1.19912850856781,-1.166752576828003
1782778847510700300,1.0497001953125,0.3090978264808655,-0.759916365146637,-0.4612032473087311
1782778847520659000,1.059658935546875,0.20036379992961884,-0.5815436840057373,0.018936822190880775
1782778847530689500,1.069689453125,-0.07330382615327835,-0.5772676467895508,0.17043140530586243
1782778847540678400,1.079678466796875,-0.2590068578720093,-0.6896668672561646,0.00733038317412138
1782778847550678300,1.08967822265625,-0.46303585171699524,-0.8857545852661133,-0.27550023794174194
1782778847560667400,1.09966748046875,-0.6096435189247131,-1.1001683473587036,-0.6163630485534668
1782778847570698000,1.109697998046875,-0.7049384713172913,-1.2754865884780884,-0.9553932547569275
1782778847580656400,1.119656494140625,-0.7574729323387146,-1.4654656648635864,-1.1728612184524536
1782778847590688000,1.12968798828125,-0.7330383062362671,-1.671938180923462,-1.1197160482406616
1782778847600675800,1.13967578125,-0.5772676467895508,-1.7690657377243042,-0.750142514705658
1782778847610677000,1.149677001953125,-0.3628539443016052,-1.7318029403686523,-0.16798794269561768
1782778847620665000,1.1596650390625,-0.17592918872833252,-1.3713924884796143,0.43615779280662537
1782778847630696700,1.16969677734375,-0.022602014243602753,-0.7562511563301086,0.8289441466331482
1782778847640654000,1.179654052734375,0.03481931984424591,-0.13744467496871948,0.940121591091156
1782778847650684400,1.189684326171875,0.05253441259264946,0.3988949954509735,0.8753699064254761
1782778847660673500,1.199673583984375,0.1313360333442688,0.6579018831253052,0.7037167549133301
1782778847670706200,1.2097060546875,0.1771509200334549,0.6291912198066711,0.4599815309047699
1782778847680662500,1.21966259765625,0.15577064454555511,0.4593706727027893,0.22296582162380219
1782778847690693000,1.229693115234375,0.1466076523065567,0.3066543638706207,0.09773843735456467
1782778847700682000,1.239681884765625,0.14905111491680145,0.2840523421764374,0.16004669666290283
1782778847710681900,1.249681884765625,0.16432274878025055,0.394008070230484,0.3396410644054413
1782778847720671200,1.259671142578125,0.182648703455925,0.5479460954666138,0.48685958981513977
1782778847730703600,1.26970361328125,0.19547687470912933,0.6768386960029602,0.5632177591323853
1782778847740660200,1.27966015625,0.17959438264369965,0.7055493593215942,0.5699372887611389
1782778847750690600,1.289690673828125,0.16737708449363708,0.6475171446800232,0.4715879559516907
1782778847760679700,1.2996796875,0.14049901068210602,0.513126790523529,0.2687807083129883
1782778847770679600,1.309679443359375,0.0910189226269722,0.32986724376678467,0.013439035043120384
1782778847780668400,1.31966845703125,0.056810468435287476,0.2125810980796814,-0.21502456068992615
1782778847790701300,1.329701416015625,0.06658431142568588,0.20036379992961884,-0.34025195240974426
1782778847800657700,1.33965771484375,0.07880161702632904,0.23029619455337524,-0.31642818450927734
1782778847810688300,1.349688232421875,0.11728613078594208,0.28038713335990906,-0.19058994948863983
1782778847820676000,1.359676025390625,0.20097467303276062,0.39217549562454224,-0.04948008432984352
1782778847830678000,1.369677978515625,0.24984388053417206,0.5204572081565857,0.07513642311096191
1782778847840665600,1.37966552734375,0.2742784917354584,0.618195652961731,0.15882496535778046
1782778847850696200,1.3896962890625,0.26450464129447937,0.6597344875335693,0.2028072625398636
1782778847860654600,1.399654541015625,0.21502456068992615,0.6798930168151855,0.20463985204696655
1782778847870687500,1.4096875,0.17287486791610718,0.740368664264679,0.17837265133857727
1782778847880674300,1.41967431640625,0.1362229436635971,0.8136724829673767,0.16798794269561768
1782778847890675500,1.429675537109375,0.11484266817569733,0.8326093554496765,0.1918116807937622
1782778847900663300,1.439663330078125,0.16249015927314758,0.8289441466331482,0.2675589919090271
1782778847910695000,1.44969482421875,0.29626965522766113,0.8607091307640076,0.37629300355911255
1782778847920683500,1.45968359375,0.3891211748123169,0.9108000993728638,0.41599923372268677
1782778847930683400,1.469683349609375,0.3799581825733185,0.9242390990257263,0.3634648323059082
1782778847940672300,1.47967236328125,0.3543018400669098,0.8961393237113953,0.32620203495025635
1782778847950702600,1.48970263671875,0.3634648323059082,0.8546004891395569,0.4001167416572571
1782778847960661200,1.4996611328125,0.31093040108680725,0.8710938692092896,0.5766568183898926
1782778847970692900,1.50969287109375,0.2828305959701538,1.06657075881958,0.6872233748435974
1782778847980680700,1.5196806640625,0.4105014503002167,1.3933836221694946,0.7965682744979858
1782778847990682000,1.52968212890625,0.7422012686729431,1.8270978927612305,0.912021815776825
1782778848000670000,1.539669921875,1.1148290634155273,2.1038198471069336,0.8998045325279236
1782778848010700800,1.54970068359375,1.3066407442092896,2.0445659160614014,0.6835582256317139
1782778848020659000,1.559658935546875,1.3060299158096313,1.6468926668167114,0.3640756905078888
1782778848040678400,1.579678466796875,0.8680394887924194,0.5558874011039734,-0.11423180252313614
1782778848050679300,1.58967919921875,0.5381723046302795,-0.024434609338641167,-0.37751471996307373
1782778848060667400,1.59966748046875,0.22602014243602753,-0.4660901725292206,-0.5589417219161987
1782778848070698200,1.6096982421875,0.06475171446800232,-0.8234463334083557,-0.5681046843528748
1782778848080656400,1.619656494140625,0.03298672288656235,-1.1771373748779297,-0.5668829679489136
1782778848090688000,1.62968798828125,0.06291911751031876,-1.6584991216659546,-0.7849618196487427
1782778848100289000,1.6392890625,-0.0024434609804302454,-2.12397837638855,-1.2046263217926025
1782778848110706400,1.64970654296875,-0.17043140530586243,-2.141082763671875,-1.4813482761383057
1782778848120665000,1.6596650390625,-0.31093040108680725,-1.587027907371521,-1.3194689750671387
1782778848130696700,1.66969677734375,-0.34697145223617554,-0.9437867999076843,-0.8222246170043945
1782778848140654000,1.679654052734375,-0.3280346393585205,-0.5571091175079346,-0.2816088795661926
1782778848150684400,1.689684326171875,-0.39706242084503174,-0.6139195561408997,0.0708603709936142
1782778848160673500,1.699673583984375,-0.5265658497810364,-0.8362745046615601,0.1869247704744339
1782778848170704100,1.7097041015625,-0.656069278717041,-1.0213667154312134,0.04459316283464432
1782778848180662500,1.71966259765625,-0.7947356700897217,-1.1673635244369507,-0.24678955972194672
1782778848190693000,1.729693115234375,-0.9071348905563354,-1.2705997228622437,-0.5485569834709167
1782778848200682000,1.739681884765625,-0.9676105380058289,-1.3084733486175537,-0.7428121566772461
1782778848210683400,1.749683349609375,-0.9578366875648499,-1.2406673431396484,-0.7916813492774963
1782778848220671000,1.7596708984375,-0.9040805697441101,-1.1447614431381226,-0.6921103000640869
1782778848230701600,1.76970166015625,-0.797789990901947,-1.0268645286560059,-0.44165557622909546
1782778848240660200,1.77966015625,-0.645684540271759,-0.856433093547821,-0.09224065393209457
1782778848250690600,1.789690673828125,-0.48380526900291443,-0.6572909951210022,0.23090706765651703
1782778848260679700,1.7996796875,-0.30604347586631775,-0.42271876335144043,0.45265114307403564
1782778848270681900,1.809681884765625,-0.11484266817569733,-0.16310101747512817,0.5754350423812866
1782778848280668700,1.819668701171875,0.03176499158143997,0.08979719132184982,0.6120869517326355
1782778848290699800,1.82969970703125,0.0757472887635231,0.31581732630729675,0.6029239892959595
1782778848300657700,1.83965771484375,-0.0012217304902151227,0.46547931432724,0.5711590051651001
1782778848310690600,1.849690673828125,-0.14049901068210602,0.48380526900291443,0.5296201705932617
1782778848320677000,1.859677001953125,-0.23945917189121246,0.4746423065662384,0.45692721009254456
1782778848330679300,1.86967919921875,-0.31093040108680725,0.4599815309047699,0.33719760179519653
1782778848340666000,1.879666015625,-0.3335324227809906,0.4801400899887085,0.21319197118282318
1782778848350699000,1.889698974609375,-0.35124751925468445,0.4795292317867279,0.12889257073402405
1782778848360337200,1.899337158203125,-0.3139847218990326,0.5210680365562439,0.08979719132184982
1782778848370687700,1.909687744140625,-0.2785545587539673,0.5485569834709167,0.06352998316287994
1782778848380682500,1.9196826171875,-0.24984388053417206,0.5473352670669556,0.05864306539297104
1782778848390676700,1.9296767578125,-0.2370157092809677,0.5119050741195679,0.07024950534105301
1782778848400663800,1.939663818359375,-0.24617868661880493,0.43249258399009705,0.09529497474431992
1782778848410803500,1.949803466796875,-0.2565633952617645,0.3127630054950714,0.10567969083786011
1782778848420652800,1.95965283203125,-0.2840523421764374,0.21807889640331268,0.10506882518529892
1782778848430685700,1.969685791015625,-0.3121521472930908,0.16065755486488342,0.12522737681865692
1782778848440628700,1.979628662109375,-0.313373863697052,0.1264491081237793,0.19058994948863983
1782778848450674700,1.9896748046875,-0.28038713335990906,0.12461651116609573,0.27122417092323303
1782778848460661200,1.9996611328125,-0.27122417092323303,0.1258382350206375,0.33658674359321594
1782778848470694000,2.00969384765625,-0.2871066629886627,0.14294247329235077,0.3579670190811157
1782778848480925000,2.019925048828125,-0.30970868468284607,0.1771509200334549,0.33475416898727417
1782778848490691800,2.02969189453125,-0.3390302062034607,0.18570303916931152,0.29077184200286865
1782778848500669700,2.039669677734375,-0.3335324227809906,0.18631389737129211,0.23640485107898712
1782778848510702600,2.04970263671875,-0.3341432809829712,0.1667662113904953,0.18875735998153687
1782778848520659000,2.059658935546875,-0.32620203495025635,0.2919935882091522,0.18448130786418915
1782778848530690300,2.069690185546875,-0.30543261766433716,0.543059229850769,0.19547687470912933
1782778848540678400,2.079678466796875,-0.27611109614372253,0.6725626587867737,0.19853121042251587
1782778848550681000,2.08968115234375,-0.21319197118282318,0.6994407176971436,0.27550023794174194
1782778848560667600,2.099667724609375,-0.12034045159816742,0.49296826124191284,0.33169981837272644
1782778848570697700,2.10969775390625,-0.0757472887635231,0.17898350954055786,0.394618958234787
1782778848580656400,2.119656494140625,-0.09957103431224823,0.0861319974064827,0.5400048494338989
1782778848590688000,2.12968798828125,-0.10384709388017654,0.27061331272125244,0.6890559792518616
1782778848600676000,2.139676025390625,0.0012217304902151227,0.646295428276062,0.789237916469574
1782778848610676000,2.149676025390625,0.19364428520202637,1.0769554376602173,0.788016140460968
1782778848620665000,2.1596650390625,0.4306600093841553,1.2431107759475708,0.5858197808265686
1782778848630696200,2.1696962890625,0.6108652353286743,0.9547823667526245,-0.022602014243602753
1782778848640654000,2.179654052734375,0.6524040699005127,0.4447098970413208,-0.8655960559844971
1782778848650686000,2.18968603515625,0.6896668672561646,-0.14966198801994324,-1.6792685985565186
1782778848660673500,2.199673583984375,0.8203920125961304,-0.7391469478607178,-2.288912057876587
1782778848670703900,2.209703857421875,0.7195992469787598,-1.4465289115905762,-2.660928964614868
1782778848680662800,2.219662841796875,0.38728857040405273,-2.0677788257598877,-2.6261096000671387
1782778848690694100,2.229694091796875,0.16982053220272064,-2.1765129566192627,-2.0763309001922607
1782778848700682000,2.239681884765625,0.3066543638706207,-1.6896532773971558,-1.1178834438323975
1782778848710683400,2.249683349609375,0.6597344875335693,-0.9651671051979065,-0.025656340643763542
1782778848720671000,2.2596708984375,0.949895441532135,-0.39156460762023926,0.7935139536857605
1782778848730701600,2.26970166015625,0.9138544201850891,-0.2541199326515198,1.0671815872192383
1782778848740660200,2.27966015625,0.6762278079986572,-0.18997909128665924,0.9388998746871948
1782778848750690600,2.289690673828125,0.2840523421764374,-0.1569923609495163,0.4648684561252594
1782778848760680000,2.299679931640625,-0.12522737681865692,-0.13377949595451355,-0.1667662113904953
1782778848770679600,2.309679443359375,-0.40744712948799133,-0.1160643994808197,-0.7550294399261475
1782778848780668700,2.319668701171875,-0.5229006409645081,-0.14966198801994324,-1.1673635244369507
1782778848790699800,2.32969970703125,-0.4911356568336487,-0.2223549485206604,-1.3946053981781006
1782778848800657700,2.33965771484375,-0.46242499351501465,-0.4709770977497101,-1.528384804725647
1782778848810689300,2.349689208984375,-0.45692721009254456,-0.6664539575576782,-1.3701707124710083
1782778848820676000,2.359676025390625,-0.4098905920982361,-0.8509352803230286,-1.0012081861495972
1782778848830678000,2.369677978515625,-0.4050036668777466,-1.0085384845733643,-0.5174028873443604
1782778848840665900,2.379665771484375,-0.43676865100860596,-1.0231993198394775,0.018325956538319588
1782778848850696200,2.3896962890625,-0.49296826124191284,-0.9291260242462158,0.43799036741256714
1782778848860654600,2.399654541015625,-0.5283984541893005,-0.7079927921295166,0.6511823534965515
1782778848870686500,2.4096865234375,-0.5082398653030396,-0.3854559659957886,0.6670648455619812
1782778848880674300,2.41967431640625,-0.4245513379573822,-0.04642575979232788,0.5516113042831421
1782778848890676500,2.429676513671875,-0.3194825351238251,0.25473082065582275,0.42149701714515686
1782778848900663300,2.439663330078125,-0.21074850857257843,0.4697553813457489,0.3445279896259308
1782778848910694000,2.44969384765625,-0.12828169763088226,0.5711590051651001,0.34513887763023376
1782778848920713700,2.459713623046875,-0.060475658625364304,0.5992587804794312,0.394618958234787
1782778848930794500,2.46979443359375,-0.03481931984424591,0.588874101638794,0.48197266459465027
1782778848940672300,2.47967236328125,-0.06719517707824707,0.5290092825889587,0.5729916095733643
1782778848950705700,2.48970556640625,-0.13805554807186127,0.4190535545349121,0.6627888083457947
1782778848960739800,2.49973974609375,-0.21441370248794556,0.35613444447517395,0.6994407176971436
1782778848970693600,2.509693603515625,-0.2632829248905182,0.35246923565864563,0.6884451508522034
1782778848980680700,2.5196806640625,-0.2834414839744568,0.3543018400669098,0.6359107494354248
1782778848990683000,2.529682861328125,-0.24434609711170197,0.3885102868080139,0.5522221922874451
1782778849000670000,2.539669921875,-0.1716531366109848,0.4105014503002167,0.44593164324760437
1782778849010702600,2.54970263671875,-0.11484266817569733,0.42577308416366577,0.35185837745666504
1782778849020659000,2.559658935546875,-0.09224065393209457,0.3885102868080139,0.2932153046131134
1782778849030800600,2.569800537109375,-0.054367005825042725,0.3390302062034607,0.2742784917354584
1782778849040648000,2.57964794921875,-0.03481931984424591,0.2565633952617645,0.28099802136421204
1782778849050680600,2.5896806640625,-0.025656340643763542,0.20463985204696655,0.30054569244384766
1782778849060667400,2.59966748046875,-0.0006108652451075613,0.15577064454555511,0.33658674359321594
1782778849070700800,2.60970068359375,0.016493361443281174,0.18020524084568024,0.36713001132011414
1782778849080552200,2.61955224609375,-0.0024434609804302454,0.20525072515010834,0.375071257352829
1782778849090688800,2.629688720703125,-0.00427605677396059,0.2431243658065796,0.3744603991508484
1782778849100675800,2.63967578125,0.02076941914856434,0.25961771607398987,0.4043927788734436
1782778849110243600,2.64924365234375,0.06169738993048668,0.242513507604599,0.49846604466438293
1782778849120672800,2.6596728515625,0.10445795953273773,0.2321287989616394,0.598647952079773
1782778849130756600,2.669756591796875,0.1007927656173706,0.23884831368923187,0.6163630485534668
1782778849140654000,2.679654052734375,0.08979719132184982,0.26633724570274353,0.5766568183898926
1782778849150795800,2.689795654296875,0.08796459436416626,0.29504790902137756,0.5021312236785889
1782778849160673800,2.699673828125,0.07635815441608429,0.28099802136421204,0.37690386176109314
1782778849170704000,2.709703857421875,0.05497787147760391,0.22602014243602753,0.21319197118282318
1782778849180662500,2.71966259765625,0.036041051149368286,0.1716531366109848,0.04092797264456749
1782778849190692900,2.72969287109375,0.06475171446800232,0.0910189226269722,-0.14844025671482086
1782778849200682000,2.739681884765625,0.0959058403968811,-0.08735372871160507,-0.2376265823841095
1782778849210683000,2.749682861328125,0.07208210229873657,-0.33108896017074585,-0.03237585723400116
1782778849220671000,2.7596708984375,0.1062905490398407,-0.2376265823841095,0.523511528968811
1782778849240660200,2.77966015625,0.2974913716316223,1.1459832191467285,1.5613715648651123
1782778849250691300,2.78969140625,0.4398229718208313,1.3494013547897339,0.9028588533401489
1782778849260679700,2.7996796875,0.5821545720100403,1.0922271013259888,-0.27061331272125244
1782778849270680000,2.80968017578125,0.6719517707824707,0.636521577835083,-1.3897184133529663
1782778849280668400,2.81966845703125,0.7269296646118164,0.2272418737411499,-2.1508564949035645
1782778849290699000,2.829698974609375,0.6114761233329773,-0.4184426963329315,-2.409252643585205
1782778849300689700,2.839689697265625,0.3286454975605011,-1.179580807685852,-2.093435287475586
1782778849310688000,2.84968798828125,0.12217304855585098,-1.6841554641723633,-1.263269305229187
1782778849320677400,2.859677490234375,0.05619960278272629,-1.7635679244995117,-0.20830504596233368
1782778849330677200,2.86967724609375,0.09040805697441101,-1.5632041692733765,0.6017022728919983
1782778849340666400,2.879666259765625,0.1215621829032898,-1.2577714920043945,0.9352346658706665
1782778849350696700,2.88969677734375,-0.027488935738801956,-0.902247965335846,0.788016140460968
1782778849360655000,2.899655029296875,-0.19608774781227112,-0.4300491213798523,0.36590829491615295
1782778849370685700,2.909685791015625,-0.24129177629947662,0.025045474991202354,-0.12278391420841217
1782778849380674600,2.919674560546875,-0.2718350291252136,0.3292563557624817,-0.5497786998748779
1782778849390674700,2.9296748046875,-0.35552358627319336,0.4746423065662384,-0.8020660877227783
1782778849400663800,2.939663818359375,-0.4098905920982361,0.5009095072746277,-0.9144652485847473
1782778849410695000,2.94969482421875,-0.48197266459465027,0.4404338300228119,-0.9608910083770752
1782778849420683300,2.959683349609375,-0.5693264007568359,0.24495697021484375,-0.9046914577484131
1782778849430684000,2.969683837890625,-0.6041457056999207,0.024434609338641167,-0.7415903806686401
1782778849440672300,2.97967236328125,-0.6023131608963013,-0.11484266817569733,-0.4960225820541382
1782778849450703600,2.98970361328125,-0.578489363193512,-0.12522737681865692,-0.19975294172763824
1782778849460661200,2.9996611328125,-0.5693264007568359,-0.07819075137376785,0.10018189996480942
1782778849470692900,3.00969287109375,-0.5815436840057373,-0.0024434609804302454,0.33047810196876526
1782778849480680700,3.0196806640625,-0.6053674817085266,0.08368854224681854,0.47708576917648315
1782778849490681000,3.02968115234375,-0.6194173693656921,0.18997909128665924,0.5406157374382019
1782778849500670000,3.039669921875,-0.6389650702476501,0.28588494658470154,0.5064072608947754
1782778849510506500,3.049506591796875,-0.6572909951210022,0.41661009192466736,0.42271876335144043
1782778849520618200,3.0596181640625,-0.6401867866516113,0.5723807215690613,0.2987131178379059
1782778849530719500,3.069719482421875,-0.5705481171607971,0.7141014933586121,0.15882496535778046
1782778849545345300,3.08434521484375,-0.394008070230484,0.8295549750328064,0.04886921867728233
1782778849560667400,3.09966748046875,-0.24007004499435425,0.8020660877227783,0.07452555745840073
1782778849570699800,3.10969970703125,-0.17043140530586243,0.7299839854240417,0.08674286305904388
1782778849580656400,3.119656494140625,-0.12400564551353455,0.636521577835083,0.08979719132184982
1782778849590687000,3.12968701171875,-0.09224065393209457,0.5277875661849976,0.08796459436416626
1782778849600635400,3.139635498046875,-0.11239920556545258,0.35674530267715454,0.09162978827953339
1782778849610767600,3.149767578125,-0.10995574295520782,0.18631389737129211,0.08979719132184982
1782778849620665000,3.1596650390625,-0.08857546001672745,0.05253441259264946,0.054367005825042725
1782778849630695700,3.16969580078125,-0.06841690838336945,-0.05742133408784866,-0.027488935738801956
1782778849640654000,3.179654052734375,-0.030543262138962746,-0.13805554807186127,-0.1508837193250656
1782778849650684400,3.189684326171875,0.10567969083786011,-0.21074850857257843,-0.3597996234893799
1782778849660673800,3.199673828125,0.20830504596233368,-0.19975294172763824,-0.46181413531303406
1782778849670704000,3.2097041015625,0.26450464129447937,-0.2681698501110077,-0.5106833577156067
1782778849680662500,3.21966259765625,0.27550023794174194,-0.423329621553421,-0.485027015209198
1782778849690802200,3.22980224609375,0.2626720666885376,-0.5571091175079346,-0.3982841372489929
1782778849700651500,3.239651611328125,0.23640485107898712,-0.617584764957428,-0.2840523421764374
1782778849710681900,3.249681884765625,0.21930062770843506,-0.6230825781822205,-0.16004669666290283
1782778849720475100,3.25947509765625,0.19120082259178162,-0.5839871764183044,-0.03420845419168472
1782778849730670800,3.2696708984375,0.1514945775270462,-0.47280970215797424,0.04398229718208313
1782778849740660200,3.27966015625,0.12095131725072861,-0.32559117674827576,0.051312681287527084
1782778849750692900,3.28969287109375,0.10201449692249298,-0.2119702398777008,-0.02382374368607998
1782778849760771300,3.299771240234375,0.11667526513338089,-0.14355333149433136,-0.09346238523721695
1782778849770790100,3.3097900390625,0.1612684279680252,-0.1514945775270462,-0.11301007121801376
1782778849780668400,3.31966845703125,0.20891591906547546,-0.0910189226269722,-0.14966198801994324
1782778849790699500,3.329699462890625,0.27122417092323303,-0.10751228034496307,-0.3023782968521118
1782778849800658000,3.339657958984375,0.2840523421764374,-0.2076941877603531,-0.5149593949317932
1782778849810688300,3.349688232421875,0.2675589919090271,-0.22479841113090515,-0.5803219676017761
1782778849820676000,3.359676025390625,0.22296582162380219,-0.14355333149433136,-0.33292156457901
1782778849830677200,3.36967724609375,0.24923302233219147,0.09040805697441101,0.1722639948129654
1782778849840665600,3.37966552734375,0.3634648323059082,0.43615779280662537,0.6707300543785095
1782778849850697000,3.389697021484375,0.49724429845809937,0.5864306092262268,0.8442157506942749
1782778849860654600,3.399654541015625,0.503963828086853,0.33719760179519653,0.4612032473087311
1782778849880674300,3.41967431640625,0.3744603991508484,-0.4709770977497101,-0.7837401032447815
1782778849890674200,3.429674072265625,0.4660901725292206,-0.9059131741523743,-1.216843605041504
1782778849900663300,3.439663330078125,0.2932153046131134,-1.3946053981781006,-1.483791708946228
1782778849910633000,3.449633056640625,-0.025656340643763542,-1.6756033897399902,-1.451415777206421
1782778849920744200,3.459744140625,-0.24862214922904968,-1.4184291362762451,-0.9560040831565857
1782778849930684400,3.469684326171875,-0.21807889640331268,-0.9004153609275818,-0.07269296050071716
1782778849940672300,3.47967236328125,0.05192354694008827,-0.35674530267715454,0.8723155856132507
1782778849950702600,3.48970263671875,0.29077184200286865,-0.09712757170200348,1.454470157623291
1782778849960661200,3.4996611328125,0.2724458873271942,-0.05192354694008827,1.5241087675094604
1782778849970691800,3.50969189453125,0.16859880089759827,0.0708603709936142,1.2235630750656128
1782778849980680700,3.5196806640625,-0.042760565876960754,0.2076941877603531,0.6743952035903931
1782778849990680800,3.529680908203125,-0.30604347586631775,0.29016098380088806,0.06963863968849182
1782778850000670000,3.539669921875,-0.5015203952789307,0.3341432809829712,-0.4092797040939331
1782778850010669600,3.549669677734375,-0.5601634383201599,0.3689626157283783,-0.7202101349830627
1782778850025363000,3.564363037109375,-0.48808133602142334,0.3830125033855438,-0.9334021210670471
1782778850040678700,3.5796787109375,-0.4251621961593628,0.17287486791610718,-0.8460483551025391
1782778850050679600,3.589679443359375,-0.38728857040405273,-0.00733038317412138,-0.6188064813613892
1782778850060667400,3.59966748046875,-0.35246923565864563,-0.1362229436635971,-0.31520646810531616
1782778850070698000,3.609697998046875,-0.394618958234787,-0.2675589919090271,0.16859880089759827
1782778850080656400,3.619656494140625,-0.5082398653030396,-0.2590068578720093,0.4288274049758911
1782778850090687200,3.629687255859375,-0.6065891981124878,-0.0012217304902151227,0.588263213634491
1782778850100675800,3.63967578125,-0.6151412725448608,0.36102136969566345,0.5748242139816284
1782778850110676000,3.649676025390625,-0.4862487316131592,0.6695083379745483,0.4593706727027893
1782778850120624400,3.659624267578125,-0.2993239760398865,0.8588765263557434,0.33597588539123535
1782778850130725600,3.6697255859375,-0.14538592100143433,0.8472700715065002,0.2272418737411499
1782778850141670100,3.680670166015625,-0.028099801391363144,0.6982190012931824,0.13866640627384186
1782778850160734700,3.699734619140625,0.04459316283464432,0.44776421785354614,-0.039095375686883926
1782778850170706200,3.7097060546875,0.001832595793530345,0.4153883755207062,-0.08307767659425735
1782778850180662500,3.71966259765625,-0.07391469180583954,0.45265114307403564,-0.07635815441608429
1782778850190692900,3.72969287109375,-0.16554448008537292,0.5357288122177124,-0.04948008432984352
1782778850200682000,3.739681884765625,-0.21807889640331268,0.5491678714752197,-0.04764748737215996
1782778850210684200,3.74968408203125,-0.21624629199504852,0.45204028487205505,-0.059864792972803116
1782778850220671000,3.7596708984375,-0.16982053220272064,0.27550023794174194,-0.06108652427792549
1782778850230703600,3.76970361328125,-0.13988813757896423,0.036651913076639175,-0.027488935738801956
1782778850240586200,3.779586181640625,-0.12522737681865692,-0.10995574295520782,0.005497787147760391
1782778850250692900,3.78969287109375,-0.12461651116609573,-0.18997909128665924,0.029932396486401558
1782778850260679700,3.7996796875,-0.11239920556545258,-0.18325957655906677,0.054367005825042725
1782778850270243800,3.809243896484375,-0.08735372871160507,-0.09712757170200348,0.09468411654233932
1782778850280676900,3.8196767578125,-0.0507018156349659,0.05314527451992035,0.15760323405265808
1782778850290699300,3.82969921875,-0.04214970022439957,0.15515977144241333,0.24007004499435425
1782778850300767000,3.83976708984375,-0.04459316283464432,0.15454891324043274,0.31459560990333557
1782778850310688800,3.849688720703125,-0.039095375686883926,0.06841690838336945,0.34636059403419495
1782778850320677000,3.859677001953125,-0.03787364438176155,-0.056810468435287476,0.3640756905078888
1782778850330788600,3.86978857421875,-0.0507018156349659,-0.14844025671482086,0.38667771220207214
1782778850340666400,3.879666259765625,-0.06841690838336945,-0.14416420459747314,0.3787364661693573
1782778850350696700,3.88969677734375,-0.10751228034496307,-0.045204028487205505,0.3237585723400116
1782778850360655400,3.8996552734375,-0.09040805697441101,0.14049901068210602,0.2626720666885376
1782778850370686200,3.909686279296875,-0.04337143152952194,0.2370157092809677,0.23945917189121246
1782778850380674600,3.919674560546875,-0.00855211354792118,0.26083946228027344,0.26145032048225403
1782778850390675200,3.92967529296875,0.025045474991202354,0.1918116807937622,0.2565633952617645
1782778850400663600,3.93966357421875,0.06352998316287994,0.09773843735456467,0.18448130786418915
1782778850410694400,3.9496943359375,0.04581489413976669,-0.024434609338641167,0.05375614017248154
1782778850420683300,3.959683349609375,-0.02321287989616394,-0.1771509200334549,-0.01710422709584236
1782778850430684400,3.969684326171875,-0.028099801391363144,-0.21868975460529327,0.10445795953273773
1782778850440672500,3.979672607421875,0.04337143152952194,-0.1612684279680252,0.46853363513946533
1782778850450704100,3.9897041015625,0.08796459436416626,-0.04459316283464432,0.9731083512306213
1782778850460661200,3.9996611328125,0.10567969083786011,0.06536258012056351,1.2137892246246338
1782778850470692600,4.009692626953125,0.15332718193531036,0.22113321721553802,0.8918632864952087
1782778850480680700,4.0196806640625,0.13866640627384186,0.39217549562454224,0.1014036312699318
1782778850490682000,4.02968212890625,0.3072652220726013,0.3744603991508484,-0.9443976879119873
1782778850500670000,4.039669921875,0.5002986192703247,0.08918632566928864,-1.3164145946502686
1782778850510700500,4.049700439453125,0.5552765130996704,-0.48380526900291443,-1.5454890727996826
1782778850520659000,4.059658935546875,0.38117989897727966,-1.2205088138580322,-1.7678439617156982
1782778850530689300,4.069689208984375,0.02932153269648552,-1.845423936843872,-2.0286834239959717
1782778850540678400,4.079678466796875,-0.26633724570274353,-1.8839083909988403,-2.0286834239959717
1782778850550678300,4.08967822265625,-0.3500257730484009,-1.2779301404953003,-1.568701982498169
1782778850560667400,4.09966748046875,-0.19914206862449646,-0.4856378734111786,-0.8539896011352539
1782778850570698000,4.109697998046875,0.03420845419168472,0.18814650177955627,-0.2480112910270691
1782778850580656400,4.119656494140625,0.028099801391363144,0.5448917746543884,-0.02321287989616394
1782778850590687000,4.12968701171875,-0.10567969083786011,0.7195992469787598,-0.01710422709584236
1782778850600675800,4.13967578125,-0.24678955972194672,0.7397578358650208,-0.05497787147760391
1782778850610676000,4.149676025390625,-0.4440990388393402,0.5943718552589417,-0.17348572611808777
1782778850620665000,4.1596650390625,-0.6798930168151855,0.3390302062034607,-0.3744603991508484
1782778850630695700,4.16969580078125,-0.8930850028991699,0.07819075137376785,-0.6126978397369385
1782778850640654000,4.179654052734375,-1.0268645286560059,-0.15577064454555511,-0.817948579788208
1782778850650686000,4.18968603515625,-1.0396926403045654,-0.384845107793808,-0.837496280670166
1782778850660673800,4.199673828125,-0.9492846131324768,-0.5051855444908142,-0.5320636034011841
1782778850670705400,4.209705322265625,-0.8295549750328064,-0.523511528968811,0.01038470957428217
1782778850680662800,4.219662841796875,-0.7244861721992493,-0.3897320330142975,0.5974262356758118
1782778850690693000,4.229693115234375,-0.6114761233329773,-0.1270599663257599,1.015868902206421
1782778850700682000,4.239681884765625,-0.44837507605552673,0.21991148591041565,1.1459832191467285
1782778850710682000,4.24968212890625,-0.2785545587539673,0.5546656250953674,1.0445796251296997
1782778850720671200,4.259671142578125,-0.15577064454555511,0.779464066028595,0.8448266386985779
1782778850730701600,4.26970166015625,-0.09468411654233932,0.8521569967269897,0.6505714654922485
1782778850740660200,4.27966015625,-0.10445795953273773,0.8747590184211731,0.48747047781944275
1782778850750690600,4.289690673828125,-0.17470745742321014,0.79840087890625,0.3646865487098694
1782778850760679700,4.2996796875,-0.23457226157188416,0.7086036801338196,0.2742784917354584
1782778850770681900,4.309681884765625,-0.27550023794174194,0.617584764957428,0.21380282938480377
1782778850780668400,4.31966845703125,-0.2791654169559479,0.5161811113357544,0.20952677726745605
1782778850790701300,4.329701416015625,-0.2669481039047241,0.4508185386657715,0.2168571650981903
1782778850800657700,4.33965771484375,-0.25106561183929443,0.37568211555480957,0.19058994948863983
1782778850810690300,4.349690185546875,-0.22418753802776337,0.29504790902137756,0.13744467496871948
1782778850820676000,4.359676025390625,-0.17287486791610718,0.23457226157188416,0.036041051149368286
1782778850830678800,4.3696787109375,-0.11301007121801376,0.2174680233001709,-0.11362093687057495
1782778850840665900,4.379665771484375,-0.08124507963657379,0.20891591906547546,-0.2370157092809677
1782778850850698200,4.3896982421875,-0.04398229718208313,0.182648703455925,-0.30543261766433716
1782778850860654600,4.399654541015625,-0.031154127791523933,0.12339477986097336,-0.3243694305419922
1782778850870643000,4.409642822265625,0,0.05375614017248154,-0.3323107063770294
1782778850880674300,4.41967431640625,0.02015855349600315,-0.03176499158143997,-0.30604347586631775
1782778850890676500,4.429676513671875,0.03176499158143997,-0.1313360333442688,-0.2681698501110077
1782778850900663300,4.439663330078125,-0.005497787147760391,-0.21013765037059784,-0.251676470041275
1782778850910694400,4.4496943359375,-0.015271631069481373,-0.24923302233219147,-0.192422553896904
1782778850920683300,4.459683349609375,0.039095375686883926,-0.24862214922904968,-0.027488935738801956
1782778850930684000,4.469683837890625,0.09468411654233932,-0.23273965716362,0.20463985204696655
1782778850940672300,4.47967236328125,0.15332718193531036,-0.1459967941045761,0.39767327904701233
1782778850950702600,4.48970263671875,0.19792033731937408,-0.02687807008624077,0.45875978469848633
1782778850960661500,4.49966162109375,0.21380282938480377,0.10567969083786011,0.37079519033432007
1782778850970711600,4.509711669921875,0.20036379992961884,0.18509216606616974,0.16982053220272064
1782778850980650200,4.519650146484375,0.19975294172763824,0.2076941877603531,-0.04214970022439957
1782778850990680800,4.529680908203125,0.22968533635139465,0.24678955972194672,-0.09468411654233932
1782778851000669700,4.539669677734375,0.2767219543457031,0.27122417092323303,-0.012828170321881771
1782778851010700800,4.54970068359375,0.3384193480014801,0.17348572611808777,0.15515977144241333
1782778851020659000,4.559658935546875,0.4355469346046448,0.06536258012056351,0.36590829491615295
1782778851030690800,4.56969091796875,0.5528330206871033,-0.056810468435287476,0.5088507533073425
1782778851040678400,4.579678466796875,0.6701191663742065,-0.13500121235847473,0.6762278079986572
1782778851050679300,4.58967919921875,0.656680166721344,0.10018189996480942,1.0042624473571777
1782778851060667400,4.59966748046875,0.4966334402561188,0.46364670991897583,1.3151928186416626
1782778851080656400,4.619656494140625,0.18020524084568024,0.4703662395477295,0.06352998316287994
1782778851090688300,4.629688232421875,0.02932153269648552,0.26572638750076294,-1.2150110006332397
1782778851100675800,4.63967578125,0.18509216606616974,0.20952677726745605,-2.0946569442749023
1782778851110677200,4.64967724609375,0.47342056035995483,0.0708603709936142,-2.3072381019592285
1782778851120665000,4.6596650390625,0.6395758986473083,-0.21991148591041565,-1.930334210395813
1782778851130696400,4.669696533203125,0.675616979598999,-0.5607742667198181,-1.1233811378479004
1782778851140654000,4.679654052734375,0.66584312915802,-0.9779952764511108,-0.1160643994808197
1782778851150653700,4.68965380859375,0.6218608021736145,-1.3096951246261597,0.626747727394104
1782778851160734700,4.699734619140625,0.45204028487205505,-1.3903292417526245,0.7837401032447815
1782778851170704100,4.7097041015625,0.17348572611808777,-1.1527026891708374,0.503963828086853
1782778851180662500,4.71966259765625,-0.05864306539297104,-0.5900958180427551,0.03848451003432274
1782778851190693000,4.729693115234375,-0.08368854224681854,0.05375614017248154,-0.39767327904701233
1782778851200682000,4.739681884765625,-0.04214970022439957,0.45692721009254456,-0.6346889734268188
1782778851210651100,4.749651123046875,-0.08002334833145142,0.513126790523529,-0.6126978397369385
1782778851221332500,4.76033251953125,-0.17898350954055786,0.39217549562454224,-0.4031710624694824
1782778851240751900,4.779751953125,-0.5473352670669556,0.06475171446800232,0.060475658625364304
1782778851250690600,4.789690673828125,-0.7385360598564148,-0.17470745742321014,0.23457226157188416
1782778851260680000,4.799679931640625,-0.8833111524581909,-0.413555771112442,0.3536909818649292
1782778851270679800,4.8096796875,-0.9657779335975647,-0.5375614166259766,0.3634648323059082
1782778851280668700,4.819668701171875,-0.9718865752220154,-0.31459560990333557,0.23090706765651703
1782778851290699500,4.829699462890625,-0.8307767510414124,0.09773843735456467,0.06841690838336945
1782778851300688100,4.839688232421875,-0.5320636034011841,0.45814892649650574,0.0012217304902151227
1782778851310690300,4.849690185546875,-0.19364428520202637,0.6609562039375305,0.03848451003432274
1782778851320636400,4.859636474609375,0.10262536257505417,0.6994407176971436,0.1814269721508026
1782778851330770700,4.869770751953125,0.45326200127601624,0.7269296646118164,0.6145304441452026
1782778851340625700,4.879625732421875,0.5174028873443604,0.7134906053543091,0.9645562171936035
1782778851350727000,4.889726806640625,0.42149701714515686,0.636521577835083,1.2870930433273315
1782778851360746800,4.899746826171875,0.22602014243602753,0.5748242139816284,1.4666874408721924
1782778851370685700,4.909685791015625,-0.09896016865968704,0.5174028873443604,1.4636331796646118
1782778851380634000,4.919634033203125,-0.38240164518356323,0.5051855444908142,1.3420709371566772
1782778851390766300,4.929766357421875,-0.4801400899887085,0.4440990388393402,1.0867292881011963
1782778851400623000,4.939623046875,-0.42638394236564636,0.31581732630729675,0.769079327583313
1782778851410757400,4.94975732421875,-0.313373863697052,0.17470745742321014,0.4966334402561188
1782778851420683300,4.959683349609375,-0.15515977144241333,0.0757472887635231,0.2620611786842346
1782778851430652400,4.96965234375,0.021380282938480377,0.04337143152952194,0.09529497474431992
1782778851440733400,4.9797333984375,0.13377949595451355,0.056810468435287476,0.03237585723400116
1782778851450705200,4.989705078125,0.17043140530586243,0.01771509274840355,0.009162978269159794
1782778851460661200,4.9996611328125,0.17898350954055786,-0.045204028487205505,-0.001832595793530345
1782778851470812400,5.0098125,0.1667662113904953,-0.05864306539297104,-0.03848451003432274
1782778851480650200,5.019650146484375,0.10201449692249298,-0.04398229718208313,-0.07696902006864548
1782778851490680800,5.029680908203125,0.048258353024721146,-0.06963863968849182,-0.06902777403593063
1782778851500669700,5.039669677734375,0.028099801391363144,-0.15332718193531036,-0.0354301854968071
1782778851510702300,5.049702392578125,0.08185594528913498,-0.19547687470912933,-0.00427605677396059
1782778851520432400,5.059432373046875,0.1618792861700058,-0.19608774781227112,0.013439035043120384
1782778851530691600,5.069691650390625,0.2431243658065796,-0.15577064454555511,0.009162978269159794
1782778851540678700,5.0796787109375,0.29993483424186707,-0.12095131725072861,0.00366519158706069
1782778851550679000,5.089678955078125,0.3243694305419922,-0.11850785464048386,-0.01771509274840355
1782778851560667400,5.09966748046875,0.28588494658470154,-0.10201449692249298,-0.09529497474431992
1782778851570698000,5.109697998046875,0.20586158335208893,-0.09346238523721695,-0.20952677726745605
1782778851580656400,5.119656494140625,0.12767083942890167,-0.07696902006864548,-0.31520646810531616
1782778851590689000,5.12968896484375,0.12217304855585098,-0.09040805697441101,-0.3396410644054413
1782778851600675800,5.13967578125,0.17470745742321014,-0.1472185254096985,-0.28588494658470154
1782778851610676500,5.149676513671875,0.2474004179239273,-0.18387043476104736,-0.2064724564552307
1782778851620665000,5.1596650390625,0.2626720666885376,-0.11239920556545258,-0.15821409225463867
1782778851630696200,5.1696962890625,0.25106561183929443,-0.03237585723400116,-0.13744467496871948
1782778851640654000,5.179654052734375,0.32986724376678467,-0.11545353382825851,-0.1111774742603302
1782778851650686000,5.18968603515625,0.484416127204895,-0.18387043476104736,0.01038470957428217
1782778851660673500,5.199673583984375,0.5943718552589417,-0.01160643994808197,0.2474004179239273
1782778851670704600,5.20970458984375,0.5833762884140015,0.3237585723400116,0.46731191873550415
1782778851680662800,5.219662841796875,0.4703662395477295,0.5180137157440186,0.3433062732219696
1782778851690693600,5.229693603515625,0.32681289315223694,0.34636059403419495,-0.2021963894367218
1782778851700682000,5.239681884765625,0.29016098380088806,-0.00427605677396059,-0.7935139536857605
1782778851720671200,5.259671142578125,0.4178318381309509,-0.46731191873550415,-1.0170906782150269
1782778851730701300,5.269701416015625,0.38667771220207214,-0.7202101349830627,-0.9291260242462158
1782778851740660200,5.27966015625,0.242513507604599,-0.9969320893287659,-0.959669291973114
1782778851750690600,5.289690673828125,0.03420845419168472,-1.0848966836929321,-1.1606439352035522
1782778851760679700,5.2996796875,-0.252287358045578,-0.6401867866516113,-1.5039502382278442
1782778851770679600,5.309679443359375,-0.3274237811565399,-0.4190535545349121,-1.522887110710144
1782778851780668700,5.319668701171875,-0.23884831368923187,-0.3677408695220947,-1.2510520219802856
1782778851790699000,5.329698974609375,-0.05375614017248154,-0.3170390725135803,-0.7898487448692322
1782778851800657700,5.33965771484375,0.07819075137376785,-0.2278527319431305,-0.37629300355911255
1782778851810688300,5.349688232421875,0.06230825558304787,-0.10934487730264664,-0.18020524084568024
1782778851820676000,5.359676025390625,-0.022602014243602753,0.06108652427792549,-0.13011430203914642
1782778851830676700,5.3696767578125,-0.12034045159816742,0.1661553531885147,-0.14477506279945374
1782778851840665600,5.37966552734375,-0.24434609711170197,0.17287486791610718,-0.20586158335208893
1782778851850696400,5.389696533203125,-0.3805690407752991,0.021380282938480377,-0.3219259977340698
1782778851860654600,5.399654541015625,-0.523511528968811,-0.16249015927314758,-0.4996877610683441
1782778851870688000,5.40968798828125,-0.6328563690185547,-0.30543261766433716,-0.7422012686729431
1782778851880674300,5.41967431640625,-0.7018841505050659,-0.5027421116828918,-0.9608910083770752
1782778851890675500,5.429675537109375,-0.7006624341011047,-0.7049384713172913,-0.9358455538749695
1782778851900663300,5.439663330078125,-0.5839871764183044,-0.79840087890625,-0.6334672570228577
1782778851910693400,5.449693359375,-0.4294382631778717,-0.7825183868408203,-0.19792033731937408
1782778851920683300,5.459683349609375,-0.3078760802745819,-0.6737843751907349,0.24190263450145721
1782778851930683400,5.469683349609375,-0.19975294172763824,-0.455705463886261,0.6035348773002625
1782778851940672300,5.47967236328125,-0.10995574295520782,-0.18631389737129211,0.8326093554496765
1782778851950702600,5.48970263671875,-0.05925392732024193,0.04703662544488907,0.8979719281196594
1782778851960661200,5.4996611328125,-0.010995574295520782,0.24862214922904968,0.8222246170043945
1782778851970691800,5.50969189453125,0.006108652334660292,0.39156460762023926,0.6530149579048157
1782778851980680700,5.5196806640625,-0.022602014243602753,0.45326200127601624,0.4538728892803192
1782778851990683000,5.529682861328125,-0.0403171069920063,0.46792277693748474,0.2932153046131134
1782778852000669700,5.539669677734375,-0.0006108652451075613,0.5106833577156067,0.20402899384498596
1782778852010702600,5.54970263671875,0.06658431142568588,0.5400048494338989,0.1459967941045761
1782778852020659000,5.559658935546875,0.1062905490398407,0.4960225820541382,0.07696902006864548
1782778852030691600,5.569691650390625,0.12950342893600464,0.4196644127368927,0.013439035043120384
1782778852040678400,5.579678466796875,0.19364428520202637,0.37629300355911255,-0.05192354694008827
1782778852050680600,5.5896806640625,0.25595253705978394,0.33658674359321594,-0.1264491081237793
1782778852060667400,5.59966748046875,0.27550023794174194,0.304210901260376,-0.24129177629947662
1782778852070698000,5.609697998046875,0.2590068578720093,0.2877175211906433,-0.3878994286060333
1782778852080656400,5.619656494140625,0.2278527319431305,0.26022860407829285,-0.5320636034011841
1782778852090689000,5.62968896484375,0.18814650177955627,0.19792033731937408,-0.6438519954681396
1782778852100675800,5.63967578125,0.12095131725072861,0.1472185254096985,-0.7165449261665344
1782778852110675700,5.64967578125,0.07819075137376785,0.13377949595451355,-0.7202101349830627
1782778852120665000,5.6596650390625,0.10262536257505417,0.1270599663257599,-0.6298020482063293
1782778852130696200,5.6696962890625,0.17592918872833252,0.12339477986097336,-0.45326200127601624
1782778852140654000,5.679654052734375,0.27061331272125244,0.11056660860776901,-0.23151792585849762
1782778852150684400,5.689684326171875,0.342695415019989,0.11301007121801376,0.012217304669320583
1782778852160673800,5.699673828125,0.3579670190811157,0.1618792861700058,0.22418753802776337
1782778852170706200,5.7097060546875,0.31459560990333557,0.2736676335334778,0.3695734739303589
1782778852180662500,5.71966259765625,0.1918116807937622,0.475253164768219,0.49357911944389343
1782778852190695200,5.729695068359375,0.11972958594560623,0.5687155723571777,0.5253441333770752
1782778852200791300,5.739791259765625,0.11972958594560623,0.5479460954666138,0.504574716091156
1782778852210682000,5.74968212890625,0.1765400618314743,0.4612032473087311,0.4282165467739105
1782778852220671000,5.7596708984375,0.2681698501110077,0.3323107063770294,0.3378084897994995
1782778852230703900,5.769703857421875,0.39767327904701233,0.17104226350784302,0.34025195240974426
1782778852240660200,5.77966015625,0.5522221922874451,0.02626720629632473,0.4612032473087311
1782778852250691300,5.78969140625,0.694553792476654,-0.059864792972803116,0.6646214127540588
1782778852260679700,5.7996796875,0.7776314616203308,-0.12278391420841217,0.8087855577468872
1782778852270679800,5.8096796875,0.7434229850769043,-0.17470745742321014,0.7568620443344116
1782778852280668700,5.819668701171875,0.5674937963485718,-0.06902777403593063,0.6224716901779175
1782778852290699300,5.82969921875,0.37140607833862305,-0.004886921960860491,0.4147774875164032
1782778852300657700,5.83965771484375,0.2889392673969269,0.13316862285137177,0.12767083942890167
1782778852310689500,5.849689453125,0.28649580478668213,0.35185837745666504,-0.14538592100143433
1782778852320677000,5.859677001953125,0.2938261926174164,0.626747727394104,-0.21624629199504852
1782778852330678300,5.86967822265625,0.3646865487098694,0.7330383062362671,-0.09896016865968704
1782778852340666000,5.879666015625,0.43127086758613586,0.38606682419776917,-0.06108652427792549
1782778852360655400,5.8996552734375,0.32131510972976685,-1.4300355911254883,-0.484416127204895
1782778852370685700,5.909685791015625,0.09162978827953339,-1.976759910583496,-0.7672467231750488
1782778852380674600,5.919674560546875,-0.2724458873271942,-1.95965576171875,-0.9138544201850891
1782778852390674700,5.9296748046875,-0.6481280326843262,-1.3420709371566772,-0.8148942589759827
1782778852400663800,5.939663818359375,-0.7764097452163696,-0.47769662737846375,-0.5448917746543884
1782778852410695400,5.9496953125,-0.6236934065818787,0.11484266817569733,-0.2021963894367218
1782778852420683300,5.959683349609375,-0.33719760179519653,0.29077184200286865,0.05864306539297104
1782778852430684700,5.9696845703125,-0.12767083942890167,0.2736676335334778,0.2528982162475586
1782778852440672500,5.979672607421875,-0.03848451003432274,0.2223549485206604,0.3854559659957886
1782778852450702800,5.989702880859375,-0.10751228034496307,0.1618792861700058,0.39767327904701233
1782778852460661200,5.9996611328125,-0.33719760179519653,0.03176499158143997,0.22968533635139465
1782778852470691800,6.00969189453125,-0.6352998614311218,-0.19058994948863983,-0.09957103431224823
1782778852480680700,6.0196806640625,-0.8784242272377014,-0.4740314185619354,-0.44226643443107605
1782778852490682400,6.029682373046875,-0.9627236127853394,-0.6701191663742065,-0.5772676467895508
1782778852500670000,6.039669921875,-0.902247965335846,-0.7580837607383728,-0.4202753007411957
1782778852510700500,6.049700439453125,-0.7476990818977356,-0.7874053120613098,-0.03848451003432274
1782778852520659000,6.059658935546875,-0.5363397002220154,-0.7458664774894714,0.4251621961593628
1782778852530689300,6.069689208984375,-0.32131510972976685,-0.5247332453727722,0.8619308471679688
1782778852540678400,6.079678466796875,-0.1514945775270462,-0.11728613078594208,1.1691961288452148
1782778852550680800,6.089680908203125,-0.05192354694008827,0.37690386176109314,1.3054190874099731
1782778852560667400,6.09966748046875,-0.0024434609804302454,0.8130616545677185,1.3561208248138428
1782778852570697700,6.10969775390625,0.016493361443281174,1.0751228332519531,1.4049900770187378
1782778852580656000,6.11965625,-0.019547687843441963,1.0525208711624146,1.4941763877868652
1782778852590688300,6.129688232421875,-0.0861319974064827,0.8222246170043945,1.4917329549789429
1782778852600676000,6.139676025390625,-0.17898350954055786,0.3878994286060333,1.3829989433288574
1782778852610676000,6.149676025390625,-0.18020524084568024,0.13927727937698364,0.9541715383529663
1782778852620665000,6.1596650390625,-0.20525072515010834,0.042760565876960754,0.5406157374382019
1782778852630695400,6.1696953125,-0.21013765037059784,0.09896016865968704,0.1264491081237793
1782778852640654000,6.179654052734375,-0.1716531366109848,0.17043140530586243,-0.2321287989616394
1782778852650686700,6.189686767578125,-0.11850785464048386,0.1765400618314743,-0.4697553813457489
1782778852660673800,6.199673828125,-0.0659734457731247,0.10567969083786011,-0.5839871764183044
1782778852670704000,6.2097041015625,0.019547687843441963,0.03176499158143997,-0.6200281977653503
1782778852680662800,6.219662841796875,0.06963863968849182,-0.03481931984424591,-0.5919284224510193
1782778852690695200,6.229695068359375,0.08918632566928864,-0.04642575979232788,-0.5222898125648499
1782778852700682000,6.239681884765625,0.0910189226269722,0.006719517521560192,-0.42210787534713745
1782778852710681900,6.249681884765625,0.08002334833145142,0.13988813757896423,-0.27611109614372253
1782778852720671000,6.2596708984375,0.08246681094169617,0.2840523421764374,-0.11239920556545258
1782778852730701800,6.269701904296875,0.06230825558304787,0.36651915311813354,0.039706241339445114
1782778852740723000,6.279722900390625,0.07696902006864548,0.3695734739303589,0.14416420459747314
1782778852750690600,6.289690673828125,0.12217304855585098,0.3683517575263977,0.1563815027475357
1782778852760680000,6.299679931640625,0.18081611394882202,0.3933972120285034,0.0910189226269722
1782778852770667500,6.30966748046875,0.182648703455925,0.41172316670417786,0.013439035043120384
1782778852780668700,6.319668701171875,0.17409659922122955,0.4538728892803192,-0.09224065393209457
1782778852790699300,6.32969921875,0.17409659922122955,0.5222898125648499,-0.16249015927314758
1782778852800657700,6.33965771484375,0.17531833052635193,0.5167919993400574,-0.13377949595451355
1782778852810689300,6.349689208984375,0.17287486791610718,0.5009095072746277,-0.06841690838336945
1782778852820676000,6.359676025390625,0.16554448008537292,0.5229006409645081,-0.01466076634824276
1782778852830678000,6.369677978515625,0.18631389737129211,0.5393940210342407,-0.014049900695681572
1782778852840665900,6.379665771484375,0.21441370248794556,0.4856378734111786,-0.001832595793530345
1782778852850697500,6.389697509765625,0.19853121042251587,0.2278527319431305,0.09957103431224823
1782778852860654600,6.399654541015625,0.16798794269561768,-0.01160643994808197,0.2583959996700287
1782778852870686200,6.409686279296875,0.1160643994808197,-0.05742133408784866,0.46242499351501465
1782778852880674300,6.41967431640625,0.028099801391363144,0.1459967941045761,0.6548475623130798
1782778852890675200,6.42967529296875,0.06414084881544113,0.5253441333770752,0.8362745046615601
1782778852900663300,6.439663330078125,0.22846360504627228,0.656069278717041,0.9645562171936035
1782778852920683300,6.459683349609375,0.5283984541893005,0.2883284091949463,0.5338962078094482
1782778852930683400,6.469683349609375,0.47280970215797424,0.23579397797584534,0.06536258012056351
1782778852940672300,6.47967236328125,0.2632829248905182,0.2064724564552307,-0.3188716471195221
1782778852950702600,6.48970263671875,0.009773843921720982,0.1612684279680252,-0.5271766781806946
1782778852960661200,6.4996611328125,-0.22296582162380219,-0.08918632566928864,-0.5723807215690613
1782778852970693000,6.509693115234375,-0.34574973583221436,-0.4178318381309509,-0.5027421116828918
1782778852980680700,6.5196806640625,-0.38728857040405273,-0.7678576111793518,-0.42210787534713745
1782778852990680800,6.529680908203125,-0.38117989897727966,-1.1142182350158691,-0.46303585171699524
1782778853000669700,6.539669677734375,-0.3842342495918274,-1.2315043210983276,-0.6695083379745483
1782778853010700000,6.549699951171875,-0.43188172578811646,-0.9254608750343323,-0.8796459436416626
1782778853020618200,6.5596181640625,-0.4862487316131592,-0.37079519033432007,-0.9468411207199097
1782778853030751500,6.56975146484375,-0.4715879559516907,0.07452555745840073,-0.6811147332191467
1782778853040678400,6.579678466796875,-0.384845107793808,-0.00427605677396059,-0.4141666293144226
1782778853050678800,6.5896787109375,-0.3066543638706207,-0.18509216606616974,-0.15454891324043274
1782778853060667400,6.59966748046875,-0.34697145223617554,-0.37690386176109314,0.02321287989616394
1782778853070698800,6.60969873046875,-0.4294382631778717,-0.4648684561252594,0.05375614017248154
1782778853080656600,6.61965673828125,-0.5552765130996704,-0.4966334402561188,-0.04764748737215996
1782778853090687700,6.629687744140625,-0.7141014933586121,-0.5155702829360962,-0.21563543379306793
1782778853100675800,6.63967578125,-0.8118399381637573,-0.4740314185619354,-0.35063666105270386
1782778853110645200,6.649645263671875,-0.788016140460968,-0.4440990388393402,-0.3738495409488678
1782778853120726000,6.65972607421875,-0.636521577835083,-0.3897320330142975,-0.27977627515792847
1782778853130695700,6.66969580078125,-0.4300491213798523,-0.22296582162380219,-0.10384709388017654
1782778853140613400,6.67961328125,-0.18875735998153687,0.0757472887635231,0.07452555745840073
1782778853150777300,6.68977734375,-0.010995574295520782,0.38179078698158264,0.2076941877603531
1782778853160673800,6.699673828125,0.09773843735456467,0.6902777552604675,0.2632829248905182
1782778853170673200,6.709673095703125,0.17898350954055786,0.9645562171936035,0.27000242471694946
1782778853181474800,6.720474853515625,0.21074850857257843,1.074512004852295,0.3274237811565399
1782778853200641500,6.7396416015625,0.0354301854968071,0.8442157506942749,0.6664539575576782
1782778853210775800,6.74977587890625,-0.10323622822761536,0.6530149579048157,0.8155050873756409
1782778853220671000,6.7596708984375,-0.2474004179239273,0.484416127204895,0.901637077331543
1782778853230703600,6.76970361328125,-0.34574973583221436,0.34513887763023376,0.9352346658706665
1782778853240660200,6.77966015625,-0.3139847218990326,0.32131510972976685,0.9279043078422546
1782778853250692900,6.78969287109375,-0.22968533635139465,0.3805690407752991,0.8356636762619019
1782778853260679700,6.7996796875,-0.1514945775270462,0.47769662737846375,0.6145304441452026
1782778853270679600,6.809679443359375,-0.06230825558304787,0.5821545720100403,0.34758231043815613
1782778853280668700,6.819668701171875,0.004886921960860491,0.5803219676017761,0.13072516024112701
1782778853290699000,6.829698974609375,0.009773843921720982,0.5155702829360962,-0.027488935738801956
1782778853300684500,6.8396845703125,0.00427605677396059,0.42577308416366577,-0.12950342893600464
1782778853310690300,6.849690185546875,-0.03848451003432274,0.3384193480014801,-0.1618792861700058
1782778853320677400,6.859677490234375,-0.08735372871160507,0.23090706765651703,-0.11178833991289139
1782778853330679300,6.86967919921875,-0.06230825558304787,0.15821409225463867,0.00427605677396059
1782778853340666400,6.879666259765625,-0.014049900695681572,0.13744467496871948,0.12217304855585098
1782778853350699000,6.889698974609375,0.036041051149368286,0.1411098688840866,0.20830504596233368
1782778853360655000,6.899655029296875,0.11911872029304504,0.1875356286764145,0.24007004499435425
1782778853370797600,6.909797607421875,0.17348572611808777,0.2724458873271942,0.19853121042251587
1782778853380674600,6.919674560546875,0.18387043476104736,0.32986724376678467,0.12889257073402405
1782778853390674700,6.9296748046875,0.15454891324043274,0.37568211555480957,0.04764748737215996
1782778853400681500,6.939681396484375,0.08796459436416626,0.4141666293144226,0.01038470957428217
1782778853410695000,6.94969482421875,0.07208210229873657,0.4917465150356293,0.06169738993048668
1782778853420642600,6.959642578125,0.10445795953273773,0.5510004758834839,0.1618792861700058
1782778853430774800,6.96977490234375,0.09773843735456467,0.5436700582504272,0.2675589919090271
1782778853440631600,6.979631591796875,0.0354301854968071,0.53328537940979,0.3640756905078888
1782778853450764500,6.9897646484375,0.04214970022439957,0.5839871764183044,0.37629300355911255
1782778853460661200,6.9996611328125,0.11056660860776901,0.66584312915802,0.3292563557624817
1782778853470693000,7.009693115234375,0.11239920556545258,0.6927211880683899,0.29138273000717163
1782778853480680700,7.0196806640625,0.14538592100143433,0.6860016584396362,0.3384193480014801
1782778853490681900,7.029681884765625,0.19853121042251587,0.5412266254425049,0.3891211748123169
1782778853501875200,7.040875244140625,0.20830504596233368,0.3225368559360504,0.6414085030555725
1782778853520659000,7.059658935546875,0.1820378452539444,-0.4544837474822998,0.9437867999076843
1782778853530690000,7.06968994140625,0.2223549485206604,-0.19792033731937408,0.9364564418792725
1782778853540678400,7.079678466796875,0.2638937830924988,0.11667526513338089,0.9462302923202515
1782778853550679000,7.089678955078125,0.3536909818649292,-0.17104226350784302,0.7757988572120667
1782778853560667600,7.099667724609375,0.4239404797554016,-0.8484918475151062,0.34208452701568604
1782778853570698000,7.109697998046875,0.34697145223617554,-1.6010777950286865,-0.2791654169559479
1782778853580656400,7.119656494140625,-0.021380282938480377,-2.3023509979248047,-1.0726794004440308
1782778853590687000,7.12968701171875,-0.27061331272125244,-2.5778512954711914,-1.86191725730896
