time,seconds_elapsed,z,y,x
1782778837148717300,0.18371728515625,0.9266825914382935,0.6359107494354248,0.8100073337554932
1782778837159294000,0.1942939453125,0.9266825914382935,0.6359107494354248,0.8100073337554932
1782778837169287200,0.204287109375,0.9266825914382935,0.6359107494354248,0.8100073337554932
1782778837179312400,0.2143125,0.9266825914382935,0.6359107494354248,0.8100073337554932
1782778837189276200,0.224276123046875,-0.08185594528913498,0.7018841505050659,0.6163630485534668
1782778837199301400,0.23430126953125,-0.001832595793530345,0.5418374538421631,0.3903428912162781
1782778837209295600,0.244295654296875,0.08735372871160507,0.42760565876960754,0.19608774781227112
1782778837219290400,0.254290283203125,0.15027284622192383,0.36224308609962463,0.03176499158143997
1782778837229284600,0.26428466796875,0.16798794269561768,0.35124751925468445,-0.09712757170200348
1782778837239315000,0.27431494140625,0.14844025671482086,0.33047810196876526,-0.182648703455925
1782778837249273900,0.28427392578125,0.08307767659425735,0.2822197377681732,-0.23273965716362
1782778837259306200,0.29430615234375,0.02687807008624077,0.21013765037059784,-0.23640485107898712
1782778837269293300,0.304293212890625,0.01466076634824276,0.16982053220272064,-0.2168571650981903
1782778837279295000,0.314294921875,0.025045474991202354,0.15454891324043274,-0.19914206862449646
1782778837289343200,0.32434326171875,0.048258353024721146,0.11850785464048386,-0.19486601650714874
1782778837299424500,0.334424560546875,0.06780604273080826,0.08246681094169617,-0.20097467303276062
1782778837309271300,0.344271240234375,0.02382374368607998,0.027488935738801956,-0.1869247704744339
1782778837319303700,0.3543037109375,-0.09162978827953339,-0.051312681287527084,-0.13439035415649414
1782778837329369300,0.364369384765625,-0.22663100063800812,-0.13744467496871948,-0.028099801391363144
1782778837339293000,0.37429296875,-0.32559117674827576,-0.26633724570274353,0.15271630883216858
1782778837349279700,0.38427978515625,-0.3585779070854187,-0.4599815309047699,0.32498031854629517
1782778837359052800,0.394052734375,-0.3481931984424591,-0.7012733221054077,0.4746423065662384
1782778837369268700,0.404268798828125,-0.32986724376678467,-0.8759807348251343,0.6316346526145935
1782778837379299000,0.414299072265625,-0.31093040108680725,-0.8362745046615601,0.7257078886032104
1782778837389288200,0.4242880859375,-0.24068090319633484,-0.5448917746543884,0.6878342628479004
1782778837399318800,0.43431884765625,-0.15760323405265808,-0.1417207419872284,0.5186246037483215
1782778837409386500,0.444386474609375,-0.1007927656173706,0.24190263450145721,0.24923302233219147
1782778837419309800,0.454309814453125,-0.08246681094169617,0.5057964324951172,-0.06414084881544113
1782778837429297000,0.464296875,-0.12828169763088226,0.5907067060470581,-0.31581732630729675
1782778837439296500,0.474296630859375,-0.21013765037059784,0.4648684561252594,-0.3995058834552765
1782778837449286000,0.484285888671875,-0.23273965716362,0.24678955972194672,-0.29138273000717163
1782778837459317500,0.4943173828125,-0.1918116807937622,0.06902777403593063,-0.0757472887635231
1782778837469274600,0.504274658203125,-0.14905111491680145,-0.02932153269648552,0.09651670604944229
1782778837479306800,0.514306640625,-0.07880161702632904,-0.13255776464939117,0.10690141469240189
1782778837489294300,0.52429443359375,0.00427605677396059,-0.04581489413976669,-0.04764748737215996
1782778837499294700,0.534294677734375,0.036041051149368286,0.2938261926174164,-0.26939156651496887
1782778837509283300,0.544283447265625,0.15760323405265808,0.6255260109901428,-0.43249258399009705
1782778837519314700,0.554314697265625,0.37079519033432007,0.5803219676017761,-0.5674937963485718
1782778837529272300,0.564272216796875,0.5748242139816284,0.3695734739303589,-0.7226535677909851
1782778837539304000,0.574303955078125,0.7281513810157776,0.342695415019989,-0.846659243106842
1782778837559291600,0.594291748046875,0.5962044596672058,0.24007004499435425,-1.017701506614685
1782778837569280800,0.60428076171875,0.251676470041275,-0.37751471996307373,-1.103833556175232
1782778837579311000,0.61431103515625,-0.05253441259264946,-1.2516628503799438,-1.1533136367797852
1782778837589269800,0.624269775390625,-0.23640485107898712,-1.835650086402893,-1.1557570695877075
1782778837599300000,0.634300048828125,-0.31093040108680725,-1.3854423761367798,-0.8979719281196594
1782778837609289500,0.64428955078125,-0.21441370248794556,-0.5748242139816284,-0.6059783101081848
1782778837619290400,0.654290283203125,-0.12889257073402405,0.03481931984424591,-0.39156460762023926
1782778837629278500,0.664278564453125,-0.018936822190880775,0.3781255781650543,-0.2376265823841095
1782778837639308800,0.674308837890625,0.009162978269159794,0.3744603991508484,-0.06841690838336945
1782778837649267700,0.684267822265625,-0.15577064454555511,-0.033597588539123535,0.09834930300712585
1782778837659298000,0.694298095703125,-0.40133845806121826,-0.6835582256317139,0.17043140530586243
1782778837669287200,0.704287109375,-0.598647952079773,-1.4031574726104736,0.12950342893600464
1782778837679317500,0.7143173828125,-0.6908885836601257,-1.9138407707214355,-0.059864792972803116
1782778837689276000,0.72427587890625,-0.7000515460968018,-1.976759910583496,-0.40194934606552124
1782778837699307500,0.7343076171875,-0.6261368989944458,-1.6658295392990112,-0.817948579788208
1782778837709295600,0.744295654296875,-0.42149701714515686,-1.2712105512619019,-1.1917980909347534
1782778837719296800,0.754296875,-0.1514945775270462,-0.9529497623443604,-1.3555099964141846
1782778837729284600,0.76428466796875,0.0861319974064827,-0.7086036801338196,-1.2834278345108032
1782778837739316000,0.77431591796875,0.2583959996700287,-0.413555771112442,-1.062294602394104
1782778837749273900,0.78427392578125,0.38179078698158264,0.04703662544488907,-0.7134906053543091
1782778837759303700,0.7943037109375,0.3885102868080139,0.43188172578811646,-0.3274237811565399
1782778837769293000,0.80429296875,0.2889392673969269,0.6224716901779175,0.06230825558304787
1782778837779293700,0.814293701171875,0.18814650177955627,0.7012733221054077,0.40622538328170776
1782778837789282300,0.8242822265625,0.07513642311096191,0.6811147332191467,0.6493497490882874
1782778837799312600,0.834312744140625,-0.0006108652451075613,0.578489363193512,0.8155050873756409
1782778837809271300,0.844271240234375,-0.03298672288656235,0.4294382631778717,0.9199630618095398
1782778837819302700,0.854302734375,-0.04153883829712868,0.2620611786842346,0.9004153609275818
1782778837829290200,0.864290283203125,0.033597588539123535,0.16249015927314758,0.7660250067710876
1782778837839292200,0.874292236328125,0.17348572611808777,0.14233160018920898,0.5607742667198181
1782778837849279200,0.884279296875,0.29504790902137756,0.1771509200334549,0.3585779070854187
1782778837859311600,0.8943115234375,0.3677408695220947,0.251676470041275,0.17409659922122955
1782778837869268200,0.904268310546875,0.41661009192466736,0.3433062732219696,-0.025656340643763542
1782778837879300900,0.91430078125,0.4612032473087311,0.41111230850219727,-0.24007004499435425
1782778837889287700,0.92428759765625,0.4862487316131592,0.4648684561252594,-0.41722095012664795
1782778837899289900,0.934289794921875,0.46364670991897583,0.523511528968811,-0.5119050741195679
1782778837909521000,0.94452099609375,0.3988949954509735,0.5577199459075928,-0.4966334402561188
1782778837919316000,0.95431591796875,0.31520646810531616,0.5302310585975647,-0.3878994286060333
1782778837929297000,0.964296875,0.24984388053417206,0.4447098970413208,-0.23884831368923187
1782778837939297300,0.97429736328125,0.2119702398777008,0.33597588539123535,-0.07513642311096191
1782778837949286000,0.984285888671875,0.17043140530586243,0.2168571650981903,0.08429940044879913
1782778837959425500,0.994425537109375,0.14966198801994324,0.0861319974064827,0.22479841113090515
1782778837969274600,1.004274658203125,0.20097467303276062,-0.009162978269159794,0.33169981837272644
1782778837979305000,1.014304931640625,0.2993239760398865,-0.0006108652451075613,0.41722095012664795
1782778837989294300,1.02429443359375,0.3891211748123169,0.12522737681865692,0.49724429845809937
1782778837998976000,1.03397607421875,0.41233405470848083,0.2577851414680481,0.5516113042831421
1782778838009283300,1.044283447265625,0.3903428912162781,0.34697145223617554,0.5772676467895508
1782778838019313700,1.054313720703125,0.35613444447517395,0.4196644127368927,0.5632177591323853
1782778838029381600,1.064381591796875,0.27611109614372253,0.3274237811565399,0.4502076804637909
1782778838039302700,1.074302734375,0.21624629199504852,0.2070833146572113,0.2779437005519867
1782778838049291800,1.084291748046875,0.2571742534637451,0.19425514340400696,0.21930062770843506
1782778838059292200,1.094292236328125,0.37262779474258423,0.24068090319633484,0.2822197377681732
1782778838069280800,1.10428076171875,0.50335294008255,0.2272418737411499,0.3188716471195221
1782778838079311400,1.114311279296875,0.5943718552589417,0.2376265823841095,0.38179078698158264
1782778838089270000,1.12427001953125,0.6743952035903931,0.294437050819397,0.5125159621238708
1782778838099301600,1.134301513671875,0.7910705208778381,0.24923302233219147,0.694553792476654
1782778838119290000,1.1542900390625,0.9773843884468079,0.8130616545677185,1.2333369255065918
1782778838129278500,1.164278564453125,1.0506882667541504,1.2571606636047363,1.2932016849517822
1782778838139309300,1.174309326171875,1.0592403411865234,1.4795156717300415,0.9248499870300293
1782778838149267700,1.184267822265625,1.0183123350143433,1.4275920391082764,0.34697145223617554
1782778838159298600,1.194298583984375,0.9779952764511108,1.0958921909332275,-0.1667662113904953
1782778838169287000,1.204286865234375,0.9053022861480713,0.5546656250953674,-0.5424483418464661
1782778838179317500,1.2143173828125,0.7464773058891296,-0.03848451003432274,-0.7037167549133301
1782778838189276000,1.22427587890625,0.5296201705932617,-0.6536257863044739,-0.6646214127540588
1782778838199306200,1.23430615234375,0.3787364661693573,-1.131933331489563,-0.4404338300228119
1782778838209295600,1.244295654296875,0.2528982162475586,-1.5106697082519531,-0.1875356286764145
1782778838219295200,1.254295166015625,0.0757472887635231,-1.8545868396759033,-0.16798794269561768
1782778838229284600,1.26428466796875,-0.1215621829032898,-1.9663752317428589,-0.3634648323059082
1782778838239315000,1.27431494140625,-0.2370157092809677,-1.7085901498794556,-0.5338962078094482
1782778838249273600,1.284273681640625,-0.1820378452539444,-1.122159481048584,-0.5503895878791809
1782778838259304000,1.294303955078125,-0.00855211354792118,-0.5473352670669556,-0.43188172578811646
1782778838269293300,1.304293212890625,0.03481931984424591,-0.31093040108680725,-0.34697145223617554
1782778838279293000,1.31429296875,-0.03726277872920036,-0.2718350291252136,-0.28955012559890747
1782778838289282000,1.324281982421875,-0.12828169763088226,-0.36163222789764404,-0.2730567753314972
1782778838299312400,1.3343125,-0.2632829248905182,-0.53328537940979,-0.32009339332580566
1782778838309271000,1.34427099609375,-0.4196644127368927,-0.7330383062362671,-0.38728857040405273
1782778838319301400,1.35430126953125,-0.5204572081565857,-0.8558222055435181,-0.3634648323059082
1782778838329290800,1.364290771484375,-0.5558874011039734,-0.9046914577484131,-0.2321287989616394
1782778838339291600,1.374291748046875,-0.5632177591323853,-0.9034696817398071,-0.06475171446800232
1782778838349279700,1.38427978515625,-0.5338962078094482,-0.9065240025520325,0.1007927656173706
1782778838359309800,1.394309814453125,-0.4795292317867279,-0.9059131741523743,0.2822197377681732
1782778838369268500,1.4042685546875,-0.42271876335144043,-0.8228355050086975,0.4550946056842804
1782778838379299000,1.414299072265625,-0.3536909818649292,-0.5858197808265686,0.5455026626586914
1782778838389288400,1.424288330078125,-0.24495697021484375,-0.2168571650981903,0.4990769028663635
1782778838399290000,1.4342900390625,-0.10506882518529892,0.18020524084568024,0.34147366881370544
1782778838409277200,1.444277099609375,0.013439035043120384,0.4550946056842804,0.1264491081237793
1782778838419309800,1.454309814453125,0.07941248267889023,0.5687155723571777,-0.0806342139840126
1782778838429297000,1.464296875,0.09834930300712585,0.5693264007568359,-0.2626720666885376
1782778838439296500,1.474296630859375,0.01160643994808197,0.5962044596672058,-0.44776421785354614
1782778838449286100,1.4842861328125,-0.10445795953273773,0.694553792476654,-0.475253164768219
1782778838459430000,1.494429931640625,-0.2217440903186798,0.759916365146637,-0.4343251883983612
1782778838469274600,1.504274658203125,-0.28038713335990906,0.7483099102973938,-0.36590829491615295
1782778838479307300,1.514307373046875,-0.3219259977340698,0.6621779203414917,-0.30970868468284607
1782778838489294300,1.52429443359375,-0.32559117674827576,0.5326744914054871,-0.2736676335334778
1782778838499294000,1.5342939453125,-0.2626720666885376,0.38728857040405273,-0.2535090744495392
1782778838509283300,1.544283447265625,-0.1722639948129654,0.24373523890972137,-0.2431243658065796
1782778838519313200,1.554313232421875,-0.11484266817569733,0.14049901068210602,-0.22296582162380219
1782778838529272300,1.564272216796875,-0.09896016865968704,0.09896016865968704,-0.20097467303276062
1782778838539304700,1.5743046875,-0.05925392732024193,0.13988813757896423,-0.1869247704744339
1782778838549291800,1.584291748046875,-0.02076941914856434,0.26511552929878235,-0.1722639948129654
1782778838559352600,1.5943525390625,-0.04214970022439957,0.44654250144958496,-0.11056660860776901
1782778838569390000,1.60439013671875,-0.11239920556545258,0.5797111392021179,-0.01710422709584236
1782778838579282700,1.61428271484375,-0.17348572611808777,0.5803219676017761,0.06169738993048668
1782778838589269800,1.624269775390625,-0.18631389737129211,0.49357911944389343,0.09834930300712585
1782778838599381800,1.6343818359375,-0.18631389737129211,0.39767327904701233,0.12034045159816742
1782778838609283600,1.64428369140625,-0.1612684279680252,0.3225368559360504,0.1362229436635971
1782778838619289000,1.6542890625,-0.11484266817569733,0.2889392673969269,0.20097467303276062
1782778838629278700,1.66427880859375,-0.036651913076639175,0.3323107063770294,0.27977627515792847
1782778838638899200,1.673899169921875,0.004886921960860491,0.3793473243713379,0.3072652220726013
1782778838649257500,1.684257568359375,-0.0024434609804302454,0.4795292317867279,0.3029891550540924
1782778838659209200,1.694209228515625,-0.001832595793530345,0.6774495840072632,0.2571742534637451
1782778838669287000,1.704286865234375,0.02015855349600315,0.8295549750328064,0.19486601650714874
1782778838679317200,1.714317138671875,0.02687807008624077,0.9046914577484131,0.19547687470912933
1782778838689276200,1.724276123046875,0.03481931984424591,0.7098253965377808,0.22663100063800812
1782778838699307500,1.7343076171875,0.09468411654233932,0.4746423065662384,0.3591887652873993
1782778838709295600,1.744295654296875,0.192422553896904,0.3481931984424591,0.617584764957428
1782778838719296500,1.754296630859375,0.2987131178379059,0.34758231043815613,0.901637077331543
1782778838729284600,1.76428466796875,0.37201693654060364,0.5992587804794312,1.0793988704681396
1782778838739315700,1.774315673828125,0.43676865100860596,0.6017022728919983,0.940121591091156
1782778838759304200,1.79430419921875,0.37262779474258423,-0.01038470957428217,-0.35674530267715454
1782778838769252600,1.804252685546875,0.23518311977386475,-0.34208452701568604,-1.024420976638794
1782778838779476000,1.81447607421875,0.09834930300712585,-0.8136724829673767,-1.6157386302947998
1782778838789282000,1.824281982421875,-0.0910189226269722,-1.376279354095459,-2.090380907058716
1782778838799312400,1.8343125,-0.2932153046131134,-1.737911581993103,-2.3157901763916016
1782778838809271300,1.844271240234375,-0.3897320330142975,-1.5668693780899048,-2.0421226024627686
1782778838819301600,1.854301513671875,-0.2474004179239273,-0.9462302923202515,-1.2412781715393066
1782778838829290200,1.864290283203125,0.11667526513338089,-0.2724458873271942,-0.23640485107898712
1782778838839290000,1.8742900390625,0.44776421785354614,-0.0024434609804302454,0.5442809462547302
1782778838849279200,1.884279296875,0.4447098970413208,-0.14477506279945374,0.9248499870300293
1782778838859309600,1.8943095703125,0.19120082259178162,-0.3830125033855438,0.9767735004425049
1782778838869268200,1.904268310546875,-0.0959058403968811,-0.5479460954666138,0.6798930168151855
1782778838879298600,1.914298583984375,-0.3396410644054413,-0.5619960427284241,0.25534167885780334
1782778838889287700,1.92428759765625,-0.46303585171699524,-0.5112941861152649,-0.18325957655906677
1782778838899288300,1.934288330078125,-0.4899139404296875,-0.4911356568336487,-0.4966334402561188
1782778838909277000,1.94427685546875,-0.4966334402561188,-0.5082398653030396,-0.6322455406188965
1782778838919308800,1.954308837890625,-0.5149593949317932,-0.5650503635406494,-0.5564982295036316
1782778838929297000,1.964296875,-0.45692721009254456,-0.5931501388549805,-0.20402899384498596
1782778838939297800,1.9742978515625,-0.35185837745666504,-0.5833762884140015,0.2932153046131134
1782778838949285600,1.98428564453125,-0.2779437005519867,-0.5027421116828918,0.7922922372817993
1782778838959317200,1.994317138671875,-0.2724458873271942,-0.33108896017074585,1.19912850856781
1782778838969274600,2.004274658203125,-0.313373863697052,-0.05314527451992035,1.4135421514511108
1782778838979305200,2.01430517578125,-0.36163222789764404,0.2669481039047241,1.4220943450927734
1782778838989294300,2.02429443359375,-0.3732386529445648,0.5656611919403076,1.2797627449035645
1782778838999294200,2.034294189453125,-0.3640756905078888,0.7605272531509399,1.0280861854553223
1782778839009283300,2.044283447265625,-0.3500257730484009,0.8185594081878662,0.7153232097625732
1782778839019313700,2.054313720703125,-0.2919935882091522,0.7226535677909851,0.4141666293144226
1782778839029272300,2.064272216796875,-0.21807889640331268,0.5595525503158569,0.1875356286764145
1782778839039302700,2.074302734375,-0.16920967400074005,0.4392121136188507,0.02626720629632473
1782778839049292000,2.0842919921875,-0.14477506279945374,0.4349360466003418,-0.08674286305904388
1782778839059291600,2.094291748046875,-0.16982053220272064,0.48808133602142334,-0.16065755486488342
1782778839069280800,2.10428076171875,-0.2028072625398636,0.5528330206871033,-0.2272418737411499
1782778839079313400,2.1143134765625,-0.2125810980796814,0.5479460954666138,-0.3286454975605011
1782778839089269800,2.124269775390625,-0.18570303916931152,0.47342056035995483,-0.4355469346046448
1782778839099300000,2.134300048828125,-0.14049901068210602,0.3549126982688904,-0.4966334402561188
1782778839109289500,2.14428955078125,-0.051312681287527084,0.26572638750076294,-0.45692721009254456
1782778839119289000,2.1542890625,0.08002334833145142,0.22846360504627228,-0.32131510972976685
1782778839129278500,2.164278564453125,0.18997909128665924,0.23151792585849762,-0.16554448008537292
1782778839139308800,2.174308837890625,0.26633724570274353,0.2816088795661926,0.0006108652451075613
1782778839149267500,2.184267333984375,0.3188716471195221,0.3292563557624817,0.1612684279680252
1782778839159302100,2.19430224609375,0.33536502718925476,0.31093040108680725,0.2535090744495392
1782778839168850400,2.203850341796875,0.32498031854629517,0.29626965522766113,0.3023782968521118
1782778839179318300,2.214318359375,0.29626965522766113,0.29504790902137756,0.304210901260376
1782778839189276000,2.22427587890625,0.24556782841682434,0.26572638750076294,0.24984388053417206
1782778839199307000,2.23430712890625,0.17531833052635193,0.19608774781227112,0.13988813757896423
1782778839209295600,2.244295654296875,0.14233160018920898,0.11056660860776901,0.005497787147760391
1782778839219295500,2.25429541015625,0.12522737681865692,0.05009094998240471,-0.07208210229873657
1782778839229284600,2.26428466796875,0.15393804013729095,-0.0006108652451075613,-0.08124507963657379
1782778839239317200,2.274317138671875,0.18875735998153687,-0.1062905490398407,-0.02626720629632473
1782778839249169200,2.284169189453125,0.20952677726745605,-0.16859880089759827,0.05497787147760391
1782778839259306200,2.29430615234375,0.18448130786418915,-0.07819075137376785,0.12217304855585098
1782778839269293000,2.30429296875,0.08429940044879913,0.11728613078594208,0.04703662544488907
1782778839279293000,2.31429296875,-0.054367005825042725,0.26633724570274353,-0.15821409225463867
1782778839289282300,2.3242822265625,-0.12461651116609573,0.2889392673969269,-0.32131510972976685
1782778839299313700,2.334313720703125,-0.05619960278272629,0.018936822190880775,-0.24984388053417206
1782778839309271300,2.344271240234375,0.11239920556545258,-0.30054569244384766,-0.005497787147760391
1782778839319302700,2.354302734375,0.27061331272125244,-0.39217549562454224,0.33047810196876526
1782778839329290800,2.364290771484375,0.3597996234893799,-0.20586158335208893,0.6206390857696533
1782778839339290600,2.37429052734375,0.3891211748123169,0.1270599663257599,0.6780604124069214
1782778839349280000,2.384280029296875,0.35552358627319336,0.19914206862449646,0.24678955972194672
1782778839359311400,2.394311279296875,0.23884831368923187,0.2321287989616394,-0.5699372887611389
1782778839369268500,2.4042685546875,0.17409659922122955,0.4245513379573822,-1.2657127380371094
1782778839379300000,2.414300048828125,0.23151792585849762,0.4795292317867279,-1.6194037199020386
1782778839399289000,2.4342890625,0.2932153046131134,-0.2877175211906433,-1.2858713865280151
1782778839409277200,2.444277099609375,0.3084869384765625,-0.912021815776825,-0.79840087890625
1782778839419308800,2.454308837890625,0.4294382631778717,-1.1856894493103027,-0.19853121042251587
1782778839429297000,2.464296875,0.6395758986473083,-0.9810495972633362,0.4306600093841553
1782778839439296300,2.474296142578125,0.816726803779602,-0.5583308339118958,0.8875871896743774
1782778839449285600,2.48428564453125,0.8808676600456238,-0.18509216606616974,0.9859365224838257
1782778839459316200,2.494316162109375,0.8582656979560852,0.06536258012056351,0.8020660877227783
1782778839469275000,2.50427490234375,0.7489207983016968,0.20097467303276062,0.5216789245605469
1782778839479305500,2.514305419921875,0.5314527750015259,0.2223549485206604,0.251676470041275
1782778839489294300,2.52429443359375,0.2736676335334778,0.1771509200334549,0.005497787147760391
1782778839499294500,2.53429443359375,0.08674286305904388,0.1368338167667389,-0.20036379992961884
1782778839509283300,2.544283447265625,-0.02076941914856434,0.06352998316287994,-0.37079519033432007
1782778839519316000,2.55431591796875,-0.10018189996480942,-0.04642575979232788,-0.5308418869972229
1782778839529272600,2.5642724609375,-0.19914206862449646,-0.17592918872833252,-0.7238753437995911
1782778839539302700,2.574302734375,-0.3170390725135803,-0.2968805134296417,-0.8881980776786804
1782778839549291800,2.584291748046875,-0.39645153284072876,-0.43615779280662537,-0.921795666217804
1782778839559292200,2.594292236328125,-0.4086688458919525,-0.5491678714752197,-0.7367035150527954
1782778839569281000,2.604281005859375,-0.375071257352829,-0.5772676467895508,-0.3738495409488678
1782778839579312600,2.614312744140625,-0.3182607889175415,-0.485027015209198,0.07880161702632904
1782778839589270000,2.62427001953125,-0.2370157092809677,-0.20097467303276062,0.49235737323760986
1782778839599300000,2.634300048828125,-0.12034045159816742,0.10323622822761536,0.7574729323387146
1782778839609289500,2.64428955078125,0.015882495790719986,0.3176499307155609,0.8869763612747192
1782778839619291400,2.65429150390625,0.1270599663257599,0.43615779280662537,0.8930850028991699
1782778839629278500,2.664278564453125,0.20402899384498596,0.48808133602142334,0.8093964457511902
1782778839639308800,2.674308837890625,0.2376265823841095,0.46731191873550415,0.6444628238677979
1782778839649267700,2.684267822265625,0.25595253705978394,0.41111230850219727,0.48197266459465027
1782778839659297800,2.6942978515625,0.24129177629947662,0.3683517575263977,0.35185837745666504
1782778839669287200,2.704287109375,0.20891591906547546,0.30543261766433716,0.24190263450145721
1782778839679317500,2.7143173828125,0.21563543379306793,0.29626965522766113,0.17348572611808777
1782778839689276200,2.724276123046875,0.23090706765651703,0.3219259977340698,0.14355333149433136
1782778839699368200,2.7343681640625,0.21868975460529327,0.5668829679489136,0.13744467496871948
1782778839709295600,2.744295654296875,0.1459967941045761,0.6487388610839844,0.11850785464048386
1782778839719296000,2.7542958984375,0.07880161702632904,0.645684540271759,0.07635815441608429
1782778839729284600,2.76428466796875,0.036041051149368286,0.5210680365562439,-0.00733038317412138
1782778839739315000,2.77431494140625,-0.003054326167330146,0.33169981837272644,-0.07513642311096191
1782778839749273600,2.784273681640625,-0.021380282938480377,0.11056660860776901,-0.07452555745840073
1782778839759304000,2.794303955078125,-0.01160643994808197,-0.09957103431224823,-0.039095375686883926
1782778839769293300,2.804293212890625,0.007941247895359993,-0.2272418737411499,-0.009773843921720982
1782778839779158800,2.81415869140625,0.036651913076639175,-0.2718350291252136,0.006108652334660292
1782778839789282000,2.824281982421875,0.025045474991202354,-0.28955012559890747,0.02076941914856434
1782778839799312600,2.834312744140625,0,-0.27977627515792847,0.010995574295520782
1782778839809545700,2.844545654296875,-0.009162978269159794,-0.2217440903186798,-0.039706241339445114
1782778839819304700,2.8543046875,-0.019547687843441963,-0.1612684279680252,-0.0861319974064827
1782778839829290200,2.864290283203125,-0.02321287989616394,-0.09407325088977814,-0.08857546001672745
1782778839839402200,2.87440234375,-0.04642575979232788,-0.014049900695681572,-0.05253441259264946
1782778839849279200,2.884279296875,-0.10262536257505417,0.07147123664617538,0.001832595793530345
1782778839859309800,2.894309814453125,-0.15760323405265808,0.15577064454555511,0.0403171069920063
1782778839869268200,2.904268310546875,-0.20586158335208893,0.23396138846874237,0.06291911751031876
1782778839879226000,2.91422607421875,-0.2626720666885376,0.2321287989616394,0.07024950534105301
1782778839889257500,2.924257568359375,-0.30543261766433716,0.16249015927314758,0.08429940044879913
1782778839899287600,2.93428759765625,-0.29565876722335815,0.11301007121801376,0.12217304855585098
1782778839909277000,2.94427685546875,-0.21563543379306793,0.02321287989616394,0.1062905490398407
1782778839919308300,2.954308349609375,-0.10506882518529892,-0.05497787147760391,0.04642575979232788
1782778839929296600,2.964296630859375,-0.015882495790719986,-0.06780604273080826,0.01038470957428217
1782778839939297800,2.9742978515625,0.04764748737215996,-0.004886921960860491,0.01771509274840355
1782778839949286000,2.984285888671875,0.05803219974040985,0.06780604273080826,0.022602014243602753
1782778839959317500,2.9943173828125,0.05314527451992035,0.3225368559360504,0.12828169763088226
1782778839969274600,3.004274658203125,0.02871066704392433,0.36713001132011414,0.32559117674827576
1782778839979306200,3.01430615234375,0.022602014243602753,0.02076941914856434,0.4966334402561188
1782778839989294300,3.02429443359375,0.08796459436416626,-0.3280346393585205,0.5155702829360962
1782778839999295200,3.034295166015625,0.2382374405860901,-0.3549126982688904,0.37568211555480957
1782778840009283300,3.044283447265625,0.40256020426750183,-0.0507018156349659,0.1814269721508026
1782778840019315000,3.05431494140625,0.5925393104553223,0.28466320037841797,-0.0708603709936142
1782778840039302700,3.074302734375,0.5100724697113037,-0.2217440903186798,-0.8087855577468872
1782778840049291800,3.084291748046875,0.20586158335208893,-0.8338310718536377,-1.176526427268982
1782778840059291400,3.09429150390625,-0.07269296050071716,-1.264491081237793,-1.2932016849517822
1782778840069281000,3.104281005859375,-0.23273965716362,-1.284038782119751,-1.0781772136688232
1782778840079312600,3.114312744140625,-0.17959438264369965,-0.9633345007896423,-0.6542366743087769
1782778840089269800,3.124269775390625,0.02626720629632473,-0.6633996367454529,-0.3023782968521118
1782778840099300000,3.134300048828125,0.19486601650714874,-0.4856378734111786,-0.10751228034496307
1782778840109289500,3.14428955078125,0.23029619455337524,-0.40072759985923767,-0.018936822190880775
1782778840119289300,3.154289306640625,0.16249015927314758,-0.37079519033432007,0.0354301854968071
1782778840129278700,3.16427880859375,0.013439035043120384,-0.3781255781650543,0.13744467496871948
1782778840139308800,3.174308837890625,-0.10201449692249298,-0.4502076804637909,0.19792033731937408
1782778840149267700,3.184267822265625,-0.21807889640331268,-0.607200026512146,0.22846360504627228
1782778840159297800,3.1942978515625,-0.3433062732219696,-0.7757988572120667,0.17287486791610718
1782778840169287200,3.204287109375,-0.42088615894317627,-0.8191702961921692,0.02321287989616394
1782778840179317200,3.214317138671875,-0.45326200127601624,-0.6908885836601257,-0.1966986060142517
1782778840189276000,3.22427587890625,-0.5100724697113037,-0.5742133259773254,-0.39645153284072876
1782778840199307500,3.2343076171875,-0.48319441080093384,-0.3219259977340698,-0.3604104816913605
1782778840209295600,3.244295654296875,-0.40744712948799133,-0.030543262138962746,-0.09712757170200348
1782778840219295500,3.25429541015625,-0.30054569244384766,0.24190263450145721,0.2272418737411499
1782778840229284600,3.26428466796875,-0.18325957655906677,0.5491678714752197,0.48808133602142334
1782778840239315000,3.27431494140625,-0.07024950534105301,0.759305477142334,0.6530149579048157
1782778840249273900,3.28427392578125,0.0507018156349659,0.8491026759147644,0.7556403279304504
1782778840259306000,3.294305908203125,0.13927727937698364,0.8350527882575989,0.8594874143600464
1782778840269293000,3.30429296875,0.14844025671482086,0.7263187766075134,0.9395107626914978
1782778840279293700,3.314293701171875,0.09346238523721695,0.6157521605491638,0.9718865752220154
1782778840289282000,3.324281982421875,-0.029932396486401558,0.475253164768219,0.9340129494667053
1782778840299313200,3.334313232421875,-0.16249015927314758,0.3830125033855438,0.8411614298820496
1782778840309271300,3.344271240234375,-0.25045475363731384,0.342695415019989,0.7141014933586121
1782778840319301400,3.35430126953125,-0.2620611786842346,0.28099802136421204,0.5558874011039734
1782778840329290800,3.364290771484375,-0.2015855312347412,0.23090706765651703,0.3878994286060333
1782778840339290400,3.374290283203125,-0.1215621829032898,0.17287486791610718,0.22296582162380219
1782778840349279700,3.38427978515625,-0.08674286305904388,0.08307767659425735,0.07269296050071716
1782778840359310300,3.394310302734375,-0.07880161702632904,-0.012217304669320583,-0.03481931984424591
1782778840369268700,3.404268798828125,-0.05314527451992035,-0.07269296050071716,-0.10690141469240189
1782778840379301000,3.414301025390625,-0.025656340643763542,-0.12889257073402405,-0.1472185254096985
1782778840389288200,3.4242880859375,-0.009162978269159794,-0.15882496535778046,-0.16004669666290283
1782778840399288000,3.4342880859375,-0.02015855349600315,-0.19120082259178162,-0.16371189057826996
1782778840409172700,3.4441728515625,-0.042760565876960754,-0.1814269721508026,-0.17837265133857727
1782778840419309600,3.4543095703125,-0.05192354694008827,-0.1508837193250656,-0.2021963894367218
1782778840429297000,3.464296875,-0.0354301854968071,-0.11423180252313614,-0.20525072515010834
1782778840438862000,3.473862060546875,-0.014049900695681572,-0.10201449692249298,-0.1869247704744339
1782778840449293600,3.48429345703125,-0.0024434609804302454,-0.10690141469240189,-0.16004669666290283
1782778840459425300,3.49442529296875,-0.0024434609804302454,-0.08124507963657379,-0.12889257073402405
1782778840469274600,3.504274658203125,0.015882495790719986,-0.03420845419168472,-0.09224065393209457
1782778840479305700,3.5143056640625,0.04153883829712868,0.03726277872920036,-0.051312681287527084
1782778840489403600,3.524403564453125,0.05742133408784866,0.07757988572120667,-0.02626720629632473
1782778840499296300,3.534296142578125,0.06536258012056351,0.12217304855585098,-0.028099801391363144
1782778840509283300,3.544283447265625,0.03726277872920036,0.2278527319431305,-0.05253441259264946
1782778840519148300,3.554148193359375,-0.0024434609804302454,0.3017674386501312,-0.08246681094169617
1782778840529272300,3.564272216796875,-0.005497787147760391,0.34025195240974426,-0.12950342893600464
1782778840539303200,3.57430322265625,0.06352998316287994,0.33597588539123535,-0.12767083942890167
1782778840549292000,3.5842919921875,0.13561208546161652,0.36224308609962463,-0.036041051149368286
1782778840559293000,3.59429296875,0.22296582162380219,0.4202753007411957,0.09162978827953339
1782778840569281000,3.604281005859375,0.20463985204696655,0.3701843321323395,0.1417207419872284
1782778840579312600,3.614312744140625,0.16493362188339233,0.1459967941045761,0.18020524084568024
1782778840589269800,3.624269775390625,0.24617868661880493,-0.006108652334660292,0.3072652220726013
1782778840599300900,3.63430078125,0.35124751925468445,-0.06536258012056351,0.4434881806373596
1782778840609321500,3.644321533203125,0.33719760179519653,-0.1368338167667389,0.3286454975605011
1782778840619289300,3.654289306640625,0.3023782968521118,-0.1466076523065567,-0.13500121235847473
1782778840629278500,3.664278564453125,0.26022860407829285,-0.3543018400669098,-0.8924741148948669
1782778840639308500,3.67430859375,0.3335324227809906,-0.6010913848876953,-1.7660114765167236
1782778840649267500,3.684267333984375,0.36651915311813354,-0.7654141783714294,-2.515542984008789
1782778840659297800,3.6942978515625,0.13072516024112701,-0.7953465580940247,-2.9492573738098145
1782778840679318800,3.71431884765625,-0.059864792972803116,-0.08857546001672745,-1.8099937438964844
1782778840689276000,3.72427587890625,0.33536502718925476,0.37201693654060364,-0.5797111392021179
1782778840699306200,3.73430615234375,0.6126978397369385,0.39095374941825867,0.28099802136421204
1782778840709295600,3.744295654296875,0.5803219676017761,0.16432274878025055,0.5546656250953674
1782778840719295500,3.75429541015625,0.40133845806121826,-0.025656340643763542,0.4001167416572571
1782778840729284900,3.764284912109375,0.06658431142568588,-0.21991148591041565,0.09224065393209457
1782778840739315000,3.77431494140625,-0.3121521472930908,-0.3885102868080139,-0.10506882518529892
1782778840749273600,3.784273681640625,-0.6194173693656921,-0.5051855444908142,-0.18020524084568024
1782778840759304000,3.794303955078125,-0.8008443117141724,-0.5229006409645081,-0.2272418737411499
1782778840769293000,3.80429296875,-0.8668177723884583,-0.45142942667007446,-0.2785545587539673
1782778840779293200,3.814293212890625,-0.8900306820869446,-0.39767327904701233,-0.38117989897727966
1782778840789282300,3.8242822265625,-0.921795666217804,-0.4355469346046448,-0.48197266459465027
1782778840799314000,3.83431396484375,-0.9046914577484131,-0.47769662737846375,-0.4789183437824249
1782778840809271300,3.844271240234375,-0.8338310718536377,-0.5057964324951172,-0.33169981837272644
1782778840819302000,3.854302001953125,-0.7556403279304504,-0.5119050741195679,-0.09896016865968704
1782778840829290200,3.864290283203125,-0.6731734871864319,-0.4789183437824249,0.13011430203914642
1782778840839291400,3.87429150390625,-0.5931501388549805,-0.3744603991508484,0.33719760179519653
1782778840849279200,3.884279296875,-0.5253441333770752,-0.21074850857257843,0.4697553813457489
1782778840859309800,3.894309814453125,-0.5155702829360962,-0.04214970022439957,0.5418374538421631
1782778840869268200,3.904268310546875,-0.5027421116828918,0.14233160018920898,0.5601634383201599
1782778840879416800,3.914416748046875,-0.45814892649650574,0.2932153046131134,0.5943718552589417
1782778840889287700,3.92428759765625,-0.40622538328170776,0.3927863538265228,0.6963863968849182
1782778840899287600,3.93428759765625,-0.3445279896259308,0.4294382631778717,0.8393288254737854
1782778840909277000,3.94427685546875,-0.3090978264808655,0.3579670190811157,0.9608910083770752
1782778840919307500,3.9543076171875,-0.3433062732219696,0.2620611786842346,1.0018190145492554
1782778840929296600,3.964296630859375,-0.3933972120285034,0.14905111491680145,0.9492846131324768
1782778840939296500,3.974296630859375,-0.3591887652873993,0.11545353382825851,0.8026769161224365
1782778840949285600,3.98428564453125,-0.33475416898727417,0.11972958594560623,0.5571091175079346
1782778840959316000,3.99431591796875,-0.36102136969566345,0.1466076523065567,0.24923302233219147
1782778840969275000,4.00427490234375,-0.3781255781650543,0.16554448008537292,-0.05253441259264946
1782778840979307300,4.014307373046875,-0.342695415019989,0.11728613078594208,-0.3585779070854187
1782778840989294300,4.02429443359375,-0.2932153046131134,0.048258353024721146,-0.4440990388393402
1782778840999294200,4.034294189453125,-0.2223549485206604,-0.04642575979232788,-0.4544837474822998
1782778841009283300,4.044283447265625,-0.13561208546161652,-0.12034045159816742,-0.4153883755207062
1782778841019315700,4.054315673828125,-0.08429940044879913,-0.1722639948129654,-0.3127630054950714
1782778841029272600,4.0642724609375,-0.07208210229873657,-0.1869247704744339,-0.16249015927314758
1782778841039302700,4.074302734375,-0.04948008432984352,-0.10262536257505417,0.01038470957428217
1782778841049291800,4.084291748046875,-0.022602014243602753,-0.004886921960860491,0.16249015927314758
1782778841059292200,4.094292236328125,-0.012828170321881771,0.06841690838336945,0.25045475363731384
1782778841069280800,4.10428076171875,-0.02626720629632473,0.10384709388017654,0.2565633952617645
1782778841079311400,4.114311279296875,-0.022602014243602753,0.18509216606616974,0.2217440903186798
1782778841089391900,4.124391845703125,0.010995574295520782,0.21868975460529327,0.14966198801994324
1782778841099302400,4.134302490234375,0.07452555745840073,0.24373523890972137,0.08124507963657379
1782778841109289500,4.14428955078125,0.13377949595451355,0.23457226157188416,0.03481931984424591
1782778841119289000,4.1542890625,0.18936823308467865,0.18997909128665924,0.0024434609804302454
1782778841129278500,4.164278564453125,0.2632829248905182,0.23457226157188416,0.051312681287527084
1782778841139310000,4.17431005859375,0.33292156457901,0.3225368559360504,0.16371189057826996
1782778841149267700,4.184267822265625,0.36102136969566345,0.36651915311813354,0.20525072515010834
1782778841159297800,4.1942978515625,0.32986724376678467,0.34208452701568604,0.1459967941045761
1782778841169287200,4.204287109375,0.192422553896904,0.16982053220272064,-0.006108652334660292
1782778841179317500,4.2143173828125,0.11239920556545258,-0.323147714138031,-0.08979719132184982
1782778841189276000,4.22427587890625,0.1417207419872284,-0.8197811841964722,0.07024950534105301
1782778841199306200,4.23430615234375,0.1771509200334549,-0.9242390990257263,0.4966334402561188
1782778841209313800,4.244313720703125,0.21991148591041565,-0.32131510972976685,1.0152580738067627
1782778841219747800,4.254747802734375,0.2626720666885376,0.8448266386985779,1.2944234609603882
1782778841229302800,4.264302734375,0.20097467303276062,1.6517796516418457,1.129489779472351
1782778841239333000,4.2743330078125,0.19486601650714874,1.8985692262649536,0.7489207983016968
1782778841249291800,4.284291748046875,0.16798794269561768,1.626123309135437,0.3188716471195221
1782778841259322000,4.294322021484375,0.02932153269648552,0.9963212013244629,-0.039095375686883926
1782778841269311200,4.304311279296875,-0.08429940044879913,0.4306600093841553,-0.26022860407829285
1782778841279312400,4.3143125,-0.13316862285137177,-0.016493361443281174,-0.34086281061172485
1782778841289300200,4.32430029296875,-0.0959058403968811,-0.3549126982688904,-0.2376265823841095
1782778841299331800,4.334331787109375,0.06780604273080826,-0.5839871764183044,-0.0757472887635231
1782778841309289500,4.34428955078125,0.24923302233219147,-0.7049384713172913,-0.05375614017248154
1782778841319319600,4.354319580078125,0.3243694305419922,-0.5962044596672058,-0.17592918872833252
1782778841329309000,4.364308837890625,0.27977627515792847,-0.2791654169559479,-0.4080579876899719
1782778841339308500,4.37430859375,0.10506882518529892,0.12889257073402405,-0.6243042945861816
1782778841349298000,4.3842978515625,-0.16004669666290283,0.34147366881370544,-0.7177666425704956
1782778841359328800,4.394328857421875,-0.4331034719944,0.304210901260376,-0.720820963382721
1782778841369286700,4.40428662109375,-0.5900958180427551,0.2272418737411499,-0.6542366743087769
1782778841379317800,4.41431787109375,-0.6004805564880371,0.19120082259178162,-0.5198463201522827
1782778841389306400,4.424306396484375,-0.5778785347938538,0.16737708449363708,-0.39156460762023926
1782778841399307000,4.43430712890625,-0.5577199459075928,0.10995574295520782,-0.29626965522766113
1782778841409295400,4.44429541015625,-0.5687155723571777,0.04398229718208313,-0.22602014243602753
1782778841419327200,4.4543271484375,-0.5607742667198181,0.05864306539297104,-0.06963863968849182
1782778841429315000,4.464315185546875,-0.5002986192703247,0.23640485107898712,0.15393804013729095
1782778841439314700,4.474314697265625,-0.4294382631778717,0.4691445231437683,0.3933972120285034
1782778841449304000,4.484303955078125,-0.384845107793808,0.6328563690185547,0.6035348773002625
1782778841459334400,4.49433447265625,-0.35246923565864563,0.7171558141708374,0.7715228199958801
1782778841469252400,4.50425244140625,-0.31031954288482666,0.7800748944282532,0.8930850028991699
1782778841479386400,4.514386474609375,-0.26022860407829285,0.8258898258209229,0.969443142414093
1782778841489271800,4.524271728515625,-0.24007004499435425,0.8319984674453735,1.0384708642959595
1782778841499618800,4.534618896484375,-0.24556782841682434,0.7843509912490845,1.0903944969177246
1782778841509301500,4.544301513671875,-0.3488040566444397,0.5638286471366882,1.092837929725647
1782778841519331800,4.554331787109375,-0.3683517575263977,0.3781255781650543,1.0464121103286743
1782778841529290500,4.56429052734375,-0.30604347586631775,0.30970868468284607,0.9108000993728638
1782778841539320800,4.57432080078125,-0.24434609711170197,0.31581732630729675,0.7379252314567566
1782778841549310200,4.584310302734375,-0.16798794269561768,0.3341432809829712,0.5674937963485718
1782778841559309800,4.594309814453125,-0.10934487730264664,0.3029891550540924,0.3885102868080139
1782778841569227800,4.604227783203125,-0.09468411654233932,0.2028072625398636,0.18081611394882202
1782778841580153000,4.615153076171875,-0.0861319974064827,0.08429940044879913,-0.045204028487205505
1782778841599257000,4.634257080078125,-0.13561208546161652,-0.08491026610136032,-0.40194934606552124
1782778841609358300,4.6443583984375,-0.16554448008537292,-0.15454891324043274,-0.46303585171699524
1782778841620094500,4.655094482421875,-0.12828169763088226,-0.2015855312347412,-0.4282165467739105
1782778841639329300,4.674329345703125,0.015271631069481373,-0.4251621961593628,-0.2791654169559479
1782778841649245000,4.684244873046875,0.09529497474431992,-0.5522221922874451,-0.18875735998153687
1782778841659409700,4.69440966796875,0.15515977144241333,-0.6249151229858398,-0.1258382350206375
1782778841669264400,4.704264404296875,0.18631389737129211,-0.6499606370925903,-0.09834930300712585
1782778841679398000,4.71439794921875,0.20341812074184418,-0.6591235995292664,-0.13439035415649414
1782778841689294300,4.72429443359375,0.18814650177955627,-0.7079927921295166,-0.2541199326515198
1782778841699324700,4.73432470703125,0.1869247704744339,-0.6792821288108826,-0.4196644127368927
1782778841709313800,4.744313720703125,0.16432274878025055,-0.6359107494354248,-0.5778785347938538
1782778841719314700,4.754314697265625,0.12767083942890167,-0.5870414972305298,-0.6878342628479004
1782778841729302800,4.764302734375,0.1362229436635971,-0.47769662737846375,-0.7128797173500061
1782778841739333600,4.774333740234375,0.2119702398777008,-0.37690386176109314,-0.6768386960029602
1782778841749291800,4.784291748046875,0.29016098380088806,-0.3445279896259308,-0.6133087277412415
1782778841759291400,4.79429150390625,0.34086281061172485,-0.34574973583221436,-0.5442809462547302
1782778841769331700,4.804331787109375,0.3066543638706207,-0.3738495409488678,-0.5351179838180542
1782778841780255000,4.8152548828125,0.27061331272125244,-0.5448917746543884,-0.7709119319915771
1782778841799331800,4.834331787109375,0.20525072515010834,-0.2840523421764374,-0.43737950921058655
1782778841809289500,4.84428955078125,0.21624629199504852,0.16737708449363708,0.42760565876960754
1782778841819319800,4.85431982421875,0.3695734739303589,0.6786713004112244,1.5619823932647705
1782778841829308200,4.86430810546875,0.3995058834552765,0.7189884185791016,1.5338826179504395
1782778841839308800,4.874308837890625,0.4056145250797272,0.7037167549133301,1.0030407905578613
1782778841849297400,4.88429736328125,0.4245513379573822,0.5613851547241211,0.36102136969566345
1782778841859328300,4.894328369140625,0.44837507605552673,0.2779437005519867,-0.036041051149368286
1782778841879317000,4.91431689453125,0.33292156457901,-0.16798794269561768,-0.3830125033855438
1782778841889265700,4.924265625,0.11239920556545258,-0.32498031854629517,-0.5204572081565857
1782778841899226000,4.93422607421875,-0.0861319974064827,-0.4605923891067505,-0.5088507533073425
1782778841909294800,4.944294921875,-0.2278527319431305,-0.6206390857696533,-0.313373863697052
1782778841919325700,4.95432568359375,-0.3127630054950714,-0.8460483551025391,-0.20097467303276062
1782778841929315000,4.964315185546875,-0.3378084897994995,-0.9450085163116455,-0.34574973583221436
1782778841939314700,4.974314697265625,-0.32498031854629517,-0.8717046976089478,-0.6548475623130798
1782778841949304000,4.984303955078125,-0.2828305959701538,-0.6310238242149353,-0.8979719281196594
1782778841959335400,4.99433544921875,-0.1459967941045761,-0.25961771607398987,-0.8924741148948669
1782778841969292800,5.004292724609375,0.02626720629632473,0.02321287989616394,-0.6352998614311218
1782778841979324000,5.014323974609375,0.08918632566928864,0.08307767659425735,-0.3023782968521118
1782778841989312500,5.0243125,0.09346238523721695,0.05009094998240471,-0.016493361443281174
1782778841999312400,5.0343125,0.02626720629632473,-0.04886921867728233,0.08857546001672745
1782778842009301500,5.044301513671875,-0.09651670604944229,-0.1264491081237793,0.014049900695681572
1782778842019331800,5.054331787109375,-0.22602014243602753,-0.19975294172763824,-0.182648703455925
1782778842029290500,5.06429052734375,-0.3139847218990326,-0.31031954288482666,-0.4184426963329315
1782778842039322000,5.074322021484375,-0.3139847218990326,-0.3830125033855438,-0.5485569834709167
1782778842049310200,5.084310302734375,-0.2070833146572113,-0.34758231043815613,-0.5436700582504272
1782778842059309800,5.094309814453125,-0.0354301854968071,-0.21868975460529327,-0.4899139404296875
1782778842069299000,5.104298828125,0.1569923609495163,-0.03787364438176155,-0.39584067463874817
1782778842079329500,5.11432958984375,0.3878994286060333,0.13439035415649414,-0.16920967400074005
1782778842089288000,5.124287841796875,0.5803219676017761,0.16554448008537292,0.1466076523065567
1782778842099318500,5.134318603515625,0.6780604124069214,0.11362093687057495,0.4080579876899719
1782778842109307600,5.1443076171875,0.6860016584396362,0.10995574295520782,0.5845980644226074
1782778842119309800,5.154309814453125,0.6114761233329773,0.10506882518529892,0.6621779203414917
1782778842129296600,5.164296630859375,0.5021312236785889,0.17348572611808777,0.6798930168151855
1782778842139327000,5.174326904296875,0.2730567753314972,0.2431243658065796,0.6395758986473083
1782778842149245000,5.184244873046875,0.042760565876960754,0.3640756905078888,0.5112941861152649
1782778842159407400,5.194407470703125,-0.08491026610136032,0.5198463201522827,0.303600013256073
1782778842169305000,5.20430517578125,-0.12461651116609573,0.5479460954666138,0.10323622822761536
1782778842179337500,5.21433740234375,-0.0708603709936142,0.48319441080093384,-0.019547687843441963
1782778842189294000,5.224294189453125,0.033597588539123535,0.3995058834552765,-0.08491026610136032
1782778842199293700,5.234293701171875,0.12095131725072861,0.33658674359321594,-0.13500121235847473
1782778842209374700,5.244374755859375,0.1612684279680252,0.31581732630729675,-0.21380282938480377
1782778842219313700,5.254313720703125,0.1368338167667389,0.35246923565864563,-0.3237585723400116
1782778842229302800,5.264302734375,0.05009094998240471,0.42088615894317627,-0.40683624148368835
1782778842239577000,5.2745771484375,-0.08429940044879913,0.46792277693748474,-0.38606682419776917
1782778842249299700,5.2842998046875,-0.11545353382825851,0.39095374941825867,-0.27550023794174194
1782778842259322000,5.294322021484375,-0.1160643994808197,0.2382374405860901,-0.18448130786418915
1782778842269311200,5.304311279296875,-0.08307767659425735,0.1062905490398407,-0.17592918872833252
1782778842279420200,5.314420166015625,-0.05497787147760391,0.08124507963657379,-0.22602014243602753
1782778842289300200,5.32430029296875,-0.03848451003432274,0.1661553531885147,-0.25106561183929443
1782778842299330600,5.33433056640625,-0.014049900695681572,0.2730567753314972,-0.21868975460529327
1782778842309289200,5.344289306640625,0.012217304669320583,0.35185837745666504,-0.10384709388017654
1782778842319320800,5.35432080078125,0.03176499158143997,0.39767327904701233,0.030543262138962746
1782778842329309000,5.364308837890625,0.015882495790719986,0.43676865100860596,0.08246681094169617
1782778842339309800,5.374309814453125,-0.00427605677396059,0.5076290369033813,0.059864792972803116
1782778842349298000,5.3842978515625,0.01038470957428217,0.6188064813613892,0.00855211354792118
1782778842359328300,5.394328369140625,0.012217304669320583,0.6866125464439392,-0.0354301854968071
1782778842369287000,5.404286865234375,0.025045474991202354,0.6695083379745483,-0.00733038317412138
1782778842379318000,5.414318115234375,0.039095375686883926,0.5619960427284241,0.07452555745840073
1782778842389306400,5.424306396484375,0.09162978827953339,0.5057964324951172,0.15577064454555511
1782778842399307300,5.434307373046875,0.15943582355976105,0.5479460954666138,0.22357667982578278
1782778842409295600,5.444295654296875,0.19364428520202637,0.6615670323371887,0.28649580478668213
1782778842419735300,5.4547353515625,0.19853121042251587,0.7904596328735352,0.4502076804637909
1782778842439315200,5.474315185546875,0.2577851414680481,0.7660250067710876,1.2034045457839966
1782778842449303800,5.4843037109375,0.3090978264808655,0.6536257863044739,1.4819591045379639
1782778842459335000,5.4943349609375,0.28527405858039856,0.5308418869972229,1.330464482307434
1782778842469292800,5.504292724609375,0.3066543638706207,0.5968153476715088,0.8332201838493347
1782778842479292700,5.514292724609375,0.2779437005519867,0.5754350423812866,0.2718350291252136
1782778842489302300,5.52430224609375,0.23884831368923187,0.49357911944389343,-0.27550023794174194
1782778842501720800,5.536720947265625,0.08979719132184982,0.1472185254096985,-1.0659598112106323
1782778842519394000,5.55439404296875,-0.1661553531885147,-0.20830504596233368,-1.238223910331726
1782778842529290800,5.564290771484375,-0.2217440903186798,-0.5571091175079346,-1.0097602605819702
1782778842539321900,5.57432177734375,-0.13072516024112701,-0.9480628371238708,-0.7470881938934326
1782778842549310000,5.58431005859375,0.05375614017248154,-1.072068452835083,-0.5907067060470581
1782778842559310800,5.594310791015625,0.19975294172763824,-0.8222246170043945,-0.5516113042831421
1782778842569299000,5.604298828125,0.2773328125476837,-0.4196644127368927,-0.5473352670669556
1782778842579330000,5.614330078125,0.2687807083129883,-0.06536258012056351,-0.5277875661849976
1782778842589288200,5.6242880859375,0.12217304855585098,0.04398229718208313,-0.4196644127368927
1782778842599319000,5.634319091796875,-0.08185594528913498,-0.1459967941045761,-0.16859880089759827
1782778842609337900,5.644337890625,-0.2840523421764374,-0.4954117238521576,0.07391469180583954
1782778842619308000,5.65430810546875,-0.42271876335144043,-0.7226535677909851,0.23640485107898712
1782778842629296600,5.664296630859375,-0.45875978469848633,-0.808174729347229,0.33475416898727417
1782778842639327700,5.67432763671875,-0.4349360466003418,-0.7819074988365173,0.3732386529445648
1782778842649285600,5.68428564453125,-0.33597588539123535,-0.6334672570228577,0.35613444447517395
1782778842659317500,5.6943173828125,-0.2064724564552307,-0.45875978469848633,0.2620611786842346
1782778842669305000,5.70430517578125,-0.08674286305904388,-0.11789698898792267,0.1319468915462494
1782778842679337000,5.7143369140625,-0.06169738993048668,0.21441370248794556,0.13927727937698364
1782778842689294300,5.72429443359375,-0.05253441259264946,0.48258355259895325,0.25595253705978394
1782778842699325700,5.73432568359375,-0.018325956538319588,0.6328563690185547,0.4813618063926697
1782778842709313800,5.744313720703125,0.0507018156349659,0.627358615398407,0.7128797173500061
1782778842719313400,5.7543134765625,0.07513642311096191,0.5632177591323853,0.9046914577484131
1782778842729302800,5.764302734375,0.03481931984424591,0.5479460954666138,1.0366383790969849
1782778842739333000,5.7743330078125,-0.019547687843441963,0.6108652353286743,1.0983357429504395
1782778842749291800,5.784291748046875,-0.06902777403593063,0.6817256212234497,1.0855075120925903
1782778842759291400,5.79429150390625,-0.1313360333442688,0.7000515460968018,1.0219775438308716
1782778842769372700,5.80437255859375,-0.15515977144241333,0.6499606370925903,0.9437867999076843
1782778842779311000,5.81431103515625,-0.16432274878025055,0.49724429845809937,0.8509352803230286
1782778842789259800,5.824259765625,-0.1514945775270462,0.28038713335990906,0.7031059265136719
1782778842799360800,5.83436083984375,-0.09834930300712585,0.13439035415649414,0.4740314185619354
1782778842809380900,5.844380859375,-0.045204028487205505,0.07880161702632904,0.20463985204696655
1782778842819318800,5.85431884765625,-0.009773843921720982,0.12278391420841217,-0.05925392732024193
1782778842829308400,5.864308349609375,0.0012217304902151227,0.15882496535778046,-0.25961771607398987
1782778842839308300,5.874308349609375,-0.00733038317412138,0.1215621829032898,-0.3683517575263977
1782778842849297400,5.88429736328125,-0.025656340643763542,0.003054326167330146,-0.4245513379573822
1782778842859267000,5.89426708984375,-0.02382374368607998,-0.1111774742603302,-0.39767327904701233
1782778842869377800,5.904377685546875,-0.01771509274840355,-0.17776179313659668,-0.2871066629886627
1782778842879500500,5.91450048828125,0.003054326167330146,-0.22479841113090515,-0.14416420459747314
1782778842889414100,5.9244140625,0.028099801391363144,-0.2535090744495392,-0.04092797264456749
1782778842899307800,5.934307861328125,0.025045474991202354,-0.2724458873271942,-0.04642575979232788
1782778842909295000,5.944295166015625,0.015271631069481373,-0.2791654169559479,-0.13316862285137177
1782778842919436800,5.954436767578125,0.03726277872920036,-0.22113321721553802,-0.21074850857257843
1782778842929284400,5.964284423828125,0.042760565876960754,-0.1007927656173706,-0.24190263450145721
1782778842939316700,5.974316650390625,0.025045474991202354,0.03298672288656235,-0.2535090744495392
1782778842949304000,5.984303955078125,0.01160643994808197,0.13072516024112701,-0.26083946228027344
1782778842959048700,5.994048583984375,0.00733038317412138,0.13439035415649414,-0.2669481039047241
1782778842969292800,6.004292724609375,0.009773843921720982,0.054367005825042725,-0.26511552929878235
1782778842979325700,6.01432568359375,0.0403171069920063,-0.04214970022439957,-0.23457226157188416
1782778842989312500,6.0243125,0.07819075137376785,-0.09346238523721695,-0.21563543379306793
1782778842999312400,6.0343125,0.10201449692249298,-0.0806342139840126,-0.22052235901355743
1782778843009301500,6.044301513671875,0.0959058403968811,-0.0354301854968071,-0.18448130786418915
1782778843019333000,6.0543330078125,0.10262536257505417,-0.056810468435287476,-0.05742133408784866
1782778843029290500,6.06429052734375,0.1563815027475357,-0.17043140530586243,0.12828169763088226
1782778843039322000,6.074322021484375,0.2474004179239273,-0.2718350291252136,0.32620203495025635
1782778843049310000,6.08431005859375,0.3445279896259308,-0.2840523421764374,0.43615779280662537
1782778843059310300,6.094310302734375,0.3604104816913605,-0.17837265133857727,0.4355469346046448
1782778843079330300,6.114330322265625,0.26511552929878235,-0.18814650177955627,-0.45753806829452515
1782778843089288000,6.124287841796875,0.2577851414680481,-0.42577308416366577,-1.482569932937622
1782778843099319600,6.134319580078125,0.33169981837272644,-0.607200026512146,-1.690264105796814
1782778843109307600,6.1443076171875,0.3701843321323395,-0.8356636762619019,-1.5894713401794434
1782778843119308500,6.15430859375,0.34758231043815613,-1.0726794004440308,-1.2858713865280151
1782778843129297000,6.164296875,0.2932153046131134,-1.3048081398010254,-0.9511171579360962
1782778843139326700,6.17432666015625,0.1618792861700058,-1.3054190874099731,-0.6914994716644287
1782778843149285600,6.18428564453125,0.0354301854968071,-1.081842303276062,-0.4813618063926697
1782778843159317200,6.194317138671875,0.019547687843441963,-0.8057312369346619,-0.3078760802745819
1782778843169305000,6.20430517578125,0.11423180252313614,-0.5516113042831421,-0.09651670604944229
1782778843179336700,6.214336669921875,0.24556782841682434,-0.33536502718925476,0.15943582355976105
1782778843189253600,6.224253662109375,0.3237585723400116,-0.12767083942890167,0.3597996234893799
1782778843199385300,6.23438525390625,0.3078760802745819,0.12095131725072861,0.4642575979232788
1782778843209313800,6.244313720703125,0.21502456068992615,0.3341432809829712,0.4331034719944
1782778843219313400,6.2543134765625,0.04703662544488907,0.44287729263305664,0.23884831368923187
1782778843229302800,6.264302734375,-0.11178833991289139,0.41722095012664795,-0.07269296050071716
1782778843239334000,6.274333984375,-0.24556782841682434,0.1814269721508026,-0.394618958234787
1782778843249291800,6.284291748046875,-0.2968805134296417,-0.33475416898727417,-0.5619960427284241
1782778843259323400,6.294323486328125,-0.16310101747512817,-0.7177666425704956,-0.38606682419776917
1782778843269311200,6.304311279296875,-0.03237585723400116,-1.0299187898635864,0.04581489413976669
1782778843279312400,6.3143125,0.04459316283464432,-1.084285855293274,0.5931501388549805
1782778843289300200,6.32430029296875,0.14905111491680145,-0.846659243106842,1.0384708642959595
1782778843299330600,6.33433056640625,0.22907446324825287,-0.48869219422340393,1.2852604389190674
1782778843309289500,6.34428955078125,0.2015855312347412,-0.09162978827953339,1.3420709371566772
1782778843319321900,6.35432177734375,0.1062905490398407,0.28649580478668213,1.2767083644866943
1782778843329309000,6.364308837890625,0.0403171069920063,0.5644394755363464,1.1325441598892212
1782778843339308500,6.37430859375,-0.006108652334660292,0.675006091594696,0.9859365224838257
1782778843349298000,6.3842978515625,-0.01710422709584236,0.646906316280365,0.9175195693969727
1782778843359330000,6.394330078125,0.04948008432984352,0.5222898125648499,0.8961393237113953
1782778843369287200,6.404287109375,0.09407325088977814,0.33719760179519653,0.8692612648010254
1782778843379319300,6.4143193359375,0.16554448008537292,0.2064724564552307,0.8032878041267395
1782778843389306400,6.424306396484375,0.23335053026676178,0.18448130786418915,0.6695083379745483
1782778843399306200,6.43430615234375,0.2535090744495392,0.24068090319633484,0.4917465150356293
1782778843409295400,6.44429541015625,0.2583959996700287,0.3225368559360504,0.2590068578720093
1782778843419325700,6.45432568359375,0.26572638750076294,0.4349360466003418,-0.036651913076639175
1782778843429315000,6.464315185546875,0.24984388053417206,0.5510004758834839,-0.33047810196876526
1782778843439314700,6.474314697265625,0.16737708449363708,0.5705481171607971,-0.5271766781806946
1782778843449303800,6.4843037109375,0.08491026610136032,0.4697553813457489,-0.607810914516449
1782778843459336400,6.49433642578125,0.04642575979232788,0.3225368559360504,-0.6059783101081848
1782778843469292800,6.504292724609375,0.051312681287527084,0.1569923609495163,-0.5455026626586914
1782778843479325400,6.514325439453125,0.05619960278272629,-0.05803219974040985,-0.4593706727027893
1782778843488994600,6.52399462890625,0.09529497474431992,-0.21563543379306793,-0.37629300355911255
1782778843499314400,6.534314453125,0.16798794269561768,-0.25534167885780334,-0.33292156457901
1782778843509301500,6.544301513671875,0.2217440903186798,-0.10690141469240189,-0.3494149148464203
1782778843519423200,6.55442333984375,0.2223549485206604,0.08857546001672745,-0.3787364661693573
1782778843529399600,6.564399658203125,0.19486601650714874,0.2174680233001709,-0.41172316670417786
1782778843539320800,6.57432080078125,0.1466076523065567,0.2828305959701538,-0.41599923372268677
1782778843549310200,6.584310302734375,0.12278391420841217,0.27488934993743896,-0.4001167416572571
1782778843559419000,6.5944189453125,0.15577064454555511,0.21991148591041565,-0.3628539443016052
1782778843569299000,6.604298828125,0.18631389737129211,0.14538592100143433,-0.2736676335334778
1782778843579329800,6.614329833984375,0.19975294172763824,0.10690141469240189,-0.12034045159816742
1782778843589288000,6.624287841796875,0.17837265133857727,0.10873401165008545,-0.003054326167330146
1782778843599320600,6.634320556640625,0.08674286305904388,0.16798794269561768,-0.016493361443281174
1782778843609307600,6.6443076171875,-0.04398229718208313,0.3023782968521118,-0.09407325088977814
1782778843619460000,6.654460205078125,-0.14294247329235077,0.394008070230484,-0.12095131725072861
1782778843629296600,6.664296630859375,-0.19364428520202637,0.18997909128665924,-0.015271631069481373
1782778843639328500,6.67432861328125,-0.1215621829032898,-0.1869247704744339,0.28466320037841797
1782778843649285600,6.68428564453125,0.0708603709936142,-0.4086688458919525,0.6243042945861816
1782778843659317200,6.694317138671875,0.2681698501110077,-0.2669481039047241,0.8741481900215149
1782778843669305300,6.704305419921875,0.3933972120285034,0.2718350291252136,0.9737191796302795
1782778843679336200,6.714336181640625,0.37262779474258423,0.7770205736160278,0.8258898258209229
1782778843689294300,6.72429443359375,0.303600013256073,0.9920451641082764,0.5100724697113037
1782778843699325200,6.7343251953125,0.28588494658470154,0.8723155856132507,0.27550023794174194
1782778843719314700,6.754314697265625,0.14905111491680145,-0.27977627515792847,0.1508837193250656
1782778843729302800,6.764302734375,0.15393804013729095,-0.79840087890625,-0.09957103431224823
1782778843739333000,6.7743330078125,0.012828170321881771,-1.2211196422576904,-0.5064072608947754
1782778843749291800,6.784291748046875,-0.22540926933288574,-1.500285029411316,-0.9731083512306213
1782778843759322000,6.794322021484375,-0.48747047781944275,-1.5357152223587036,-1.3439035415649414
1782778843769311200,6.804311279296875,-0.6096435189247131,-1.1643091440200806,-1.3994922637939453
1782778843779312000,6.81431201171875,-0.5021312236785889,-0.5687155723571777,-1.1099421977996826
1782778843789300500,6.824300537109375,-0.19792033731937408,-0.14905111491680145,-0.578489363193512
1782778843799331800,6.834331787109375,0.06169738993048668,-0.08857546001672745,-0.036651913076639175
1782778843809289500,6.84428955078125,0.18875735998153687,-0.12828169763088226,0.34697145223617554
1782778843819318800,6.85431884765625,0.16859880089759827,-0.12828169763088226,0.5662720799446106
1782778843829308200,6.86430810546875,-0.012828170321881771,-0.19914206862449646,0.5833762884140015
1782778843839308300,6.874308349609375,-0.2779437005519867,-0.3286454975605011,0.3793473243713379
1782778843849297400,6.88429736328125,-0.5516113042831421,-0.4911356568336487,-0.0012217304902151227
1782778843859328500,6.89432861328125,-0.7293730974197388,-0.48685958981513977,-0.40683624148368835
1782778843869286400,6.904286376953125,-0.7538077235221863,-0.3286454975605011,-0.6603453159332275
1782778843879318000,6.914318115234375,-0.7293730974197388,-0.20586158335208893,-0.6896668672561646
1782778843889305900,6.924305908203125,-0.6194173693656921,-0.09346238523721695,-0.4404338300228119
1782778843899306000,6.934305908203125,-0.45204028487205505,-0.016493361443281174,-0.03176499158143997
1782778843909295000,6.944295166015625,-0.32070425152778625,0.06352998316287994,0.38179078698158264
1782778843919327700,6.95432763671875,-0.18936823308467865,0.19425514340400696,0.6731734871864319
1782778843929314800,6.964314697265625,-0.06291911751031876,0.3194825351238251,0.769690215587616
1782778843939315500,6.9743154296875,-0.001832595793530345,0.4960225820541382,0.6163630485534668
1782778843949303800,6.9843037109375,-0.08857546001672745,0.607200026512146,0.4593706727027893
1782778843959335000,6.9943349609375,-0.22479841113090515,0.6585127115249634,0.3445279896259308
1782778843969292800,7.004292724609375,-0.31642818450927734,0.6475171446800232,0.2638937830924988
1782778843979323400,7.014323486328125,-0.34086281061172485,0.5864306092262268,0.24495697021484375
1782778843989312500,7.0243125,-0.32009339332580566,0.49846604466438293,0.2926044464111328
1782778843999312100,7.03431201171875,-0.2718350291252136,0.4092797040939331,0.34574973583221436
1782778844009301500,7.044301513671875,-0.21624629199504852,0.34208452701568604,0.31581732630729675
1782778844019331800,7.054331787109375,-0.17287486791610718,0.2535090744495392,0.152105450630188
1782778844029290800,7.064290771484375,-0.14416420459747314,0.15882496535778046,-0.09285151958465576
1782778844039320800,7.07432080078125,-0.13927727937698364,0.05253441259264946,-0.3500257730484009
1782778844049310000,7.08431005859375,-0.11789698898792267,-0.01710422709584236,-0.5326744914054871
1782778844059311900,7.094311767578125,-0.10506882518529892,-0.042760565876960754,-0.6163630485534668
1782778844069299000,7.104298828125,-0.08979719132184982,-0.0806342139840126,-0.6126978397369385
1782778844079331300,7.114331298828125,-0.059864792972803116,-0.14905111491680145,-0.5027421116828918
1782778844089288200,7.1242880859375,0.039706241339445114,-0.17837265133857727,-0.3396410644054413
1782778844099319000,7.134319091796875,0.1466076523065567,-0.18020524084568024,-0.19303341209888458
1782778844109307600,7.1443076171875,0.192422553896904,-0.16554448008537292,-0.09346238523721695
1782778844119309600,7.1543095703125,0.2272418737411499,-0.10690141469240189,-0.04092797264456749
1782778844128917500,7.16391748046875,0.2168571650981903,-0.04886921867728233,-0.004886921960860491
1782778844139327000,7.174326904296875,0.17531833052635193,-0.030543262138962746,0.018936822190880775
1782778844149438500,7.1844384765625,0.1319468915462494,-0.03848451003432274,0.015882495790719986
1782778844159316000,7.19431591796875,0.10262536257505417,-0.05375614017248154,0.025656340643763542
1782778844169305000,7.20430517578125,0.1313360333442688,-0.019547687843441963,0.06780604273080826
1782778844179335700,7.214335693359375,0.18387043476104736,0.07147123664617538,0.10384709388017654
1782778844189294000,7.224294189453125,0.19792033731937408,0.1569923609495163,0.0861319974064827
1782778844199327000,7.234326904296875,0.17898350954055786,0.24007004499435425,0.01160643994808197
1782778844209313800,7.244313720703125,0.10934487730264664,0.3433062732219696,-0.039095375686883926
1782778844219313400,7.2543134765625,-0.01160643994808197,0.3830125033855438,0.003054326167330146
1782778844229302800,7.264302734375,-0.09224065393209457,0.3023782968521118,0.17837265133857727
1782778844239334100,7.274334228515625,-0.09712757170200348,0.11972958594560623,0.46364670991897583
1782778844249291800,7.284291748046875,-0.07819075137376785,-0.04948008432984352,0.7067710757255554
1782778844259323400,7.294323486328125,-0.030543262138962746,-0.13439035415649414,0.8710938692092896
1782778844279312400,7.3143125,0.12828169763088226,-0.10934487730264664,1.018923282623291
1782778844289300200,7.32430029296875,0.20952677726745605,-0.027488935738801956,0.8619308471679688
1782778844299331300,7.334331298828125,0.26450464129447937,0.06352998316287994,0.4440990388393402
1782778844309289200,7.344289306640625,0.3188716471195221,0.17837265133857727,-0.0910189226269722
1782778844319320300,7.3543203125,0.3390302062034607,0.2370157092809677,-0.4990769028663635
1782778844329309000,7.364308837890625,0.2742784917354584,-0.009773843921720982,-0.8130616545677185
1782778844339308500,7.37430859375,0.01771509274840355,-0.5326744914054871,-1.0097602605819702
1782778844349298000,7.3842978515625,-0.33597588539123535,-1.2034045457839966,-1.092837929725647
1782778844359329500,7.39432958984375,-0.6933320760726929,-1.8448129892349243,-1.0787880420684814
1782778844369286700,7.40428662109375,-0.6530149579048157,-1.7360789775848389,-0.9847147464752197
1782778844379318500,7.414318603515625,-0.3878994286060333,-1.2565498352050781,-0.8723155856132507
1782778844389306400,7.424306396484375,0.013439035043120384,-0.5375614166259766,-0.7360926270484924
1782778844399306200,7.43430615234375,0.35185837745666504,0.20402899384498596,-0.5467243790626526
1782778844409295400,7.44429541015625,0.3494149148464203,0.5253441333770752,-0.37751471996307373
1782778844419325700,7.45432568359375,0.17898350954055786,0.5723807215690613,-0.2321287989616394
1782778844429315000,7.464315185546875,-0.1014036312699318,0.50335294008255,-0.1368338167667389
1782778844439314700,7.474314697265625,-0.4392121136188507,0.33292156457901,-0.14966198801994324
1782778844449304000,7.484303955078125,-0.6407976150512695,0.21930062770843506,-0.23457226157188416
1782778844459335200,7.494335205078125,-0.6878342628479004,0.14905111491680145,-0.294437050819397
1782778844469292800,7.504292724609375,-0.6762278079986572,0.06352998316287994,-0.29016098380088806
1782778844479324700,7.51432470703125,-0.5510004758834839,0.09712757170200348,-0.24007004499435425
1782778844489312500,7.5243125,-0.38179078698158264,0.2528982162475586,-0.1618792861700058
1782778844499313700,7.534313720703125,-0.23945917189121246,0.45265114307403564,-0.06780604273080826
1782778844509301800,7.5443017578125,-0.1508837193250656,0.6206390857696533,0.030543262138962746
1782778844519333000,7.5543330078125,-0.08368854224681854,0.7244861721992493,0.11911872029304504
1782778844529290800,7.564290771484375,-0.02932153269648552,0.7812966704368591,0.15943582355976105
1782778844539323000,7.574322998046875,-0.006719517521560192,0.7782423496246338,0.1869247704744339
1782778844549310200,7.584310302734375,-0.007941247895359993,0.7550294399261475,0.2736676335334778
1782778844559312000,7.594311767578125,-0.04886921867728233,0.656680166721344,0.45875978469848633
1782778844569299200,7.60429931640625,-0.10384709388017654,0.5442809462547302,0.7641924023628235
1782778844579332000,7.61433203125,-0.1918116807937622,0.4050036668777466,1.0958921909332275
1782778844589288000,7.624287841796875,-0.2730567753314972,0.29626965522766113,1.3158037662506104
1782778844599318500,7.634318603515625,-0.32009339332580566,0.2828305959701538,1.3322970867156982
1782778844609338000,7.644338134765625,-0.33597588539123535,0.3127630054950714,1.158811330795288
1782778844619307300,7.654307373046875,-0.2626720666885376,0.35552358627319336,0.8594874143600464
1782778844629297000,7.664296875,-0.1508837193250656,0.3323107063770294,0.5283984541893005
1782778844639327000,7.674326904296875,-0.060475658625364304,0.22968533635139465,0.23457226157188416
1782778844649285600,7.68428564453125,0.009162978269159794,0.08735372871160507,-0.018325956538319588
1782778844659316000,7.69431591796875,0.051312681287527084,-0.07696902006864548,-0.24556782841682434
1782778844669305000,7.70430517578125,0.05619960278272629,-0.18631389737129211,-0.3988949954509735
1782778844679335700,7.714335693359375,0.05253441259264946,-0.22602014243602753,-0.44776421785354614
1782778844689294300,7.72429443359375,0.0507018156349659,-0.24434609711170197,-0.4288274049758911
1782778844699328800,7.734328857421875,0.06475171446800232,-0.2626720666885376,-0.3646865487098694
1782778844709313800,7.744313720703125,0.06780604273080826,-0.3127630054950714,-0.2779437005519867
1782778844719424800,7.7544248046875,0.07024950534105301,-0.3793473243713379,-0.18570303916931152
1782778844729262000,7.764261962890625,0.09346238523721695,-0.44837507605552673,-0.1264491081237793
1782778844740453600,7.77545361328125,0.1014036312699318,-0.4153883755207062,-0.1771509200334549
1782778844759006200,7.794006103515625,0.15882496535778046,-0.17470745742321014,-0.27977627515792847
1782778844769280800,7.80428076171875,0.21074850857257843,-0.00855211354792118,-0.29138273000717163
1782778844779319000,7.814319091796875,0.2376265823841095,0.09773843735456467,-0.21991148591041565
1782778844789300200,7.82430029296875,0.2528982162475586,0.08735372871160507,-0.13988813757896423
1782778844799331000,7.8343310546875,0.2272418737411499,-0.015882495790719986,-0.07147123664617538
1782778844809399000,7.84439892578125,0.1661553531885147,-0.12950342893600464,-0.08368854224681854
1782778844819321000,7.854321044921875,0.09957103431224823,-0.2272418737411499,-0.24678955972194672
1782778844829308200,7.86430810546875,0.06902777403593063,-0.20830504596233368,-0.4343251883983612
1782778844839308500,7.87430859375,0.11178833991289139,-0.1417207419872284,-0.45631635189056396
1782778844849297400,7.88429736328125,0.19547687470912933,-0.03237585723400116,-0.2993239760398865
1782778844859329000,7.8943291015625,0.303600013256073,-0.03237585723400116,-0.08002334833145142
1782778844869286400,7.904286376953125,0.4105014503002167,-0.0708603709936142,0.15393804013729095
1782778844879318000,7.914318115234375,0.4917465150356293,-0.1270599663257599,0.38728857040405273
1782778844889305900,7.924305908203125,0.5754350423812866,-0.06963863968849182,0.5742133259773254
1782778844899305700,7.9343056640625,0.5974262356758118,0.014049900695681572,0.48747047781944275
1782778844919326700,7.95432666015625,0.2877175211906433,-0.12217304855585098,-0.5613851547241211
1782778844929315000,7.964315185546875,0.28038713335990906,-0.33047810196876526,-0.7947356700897217
1782778844939316000,7.97431591796875,0.403781920671463,-0.8203920125961304,-0.8045095205307007
1782778844949304000,7.984303955078125,0.43249258399009705,-1.3548991680145264,-0.8038986921310425
1782778844959334100,7.994334228515625,0.28588494658470154,-1.5833626985549927,-0.8881980776786804
1782778844969292800,8.004292724609375,0.07819075137376785,-1.2272282838821411,-0.8118399381637573
1782778844979323400,8.014323486328125,-0.08124507963657379,-0.5369505286216736,-0.475253164768219
1782778844989312500,8.0243125,-0.1612684279680252,-0.14416420459747314,-0.08491026610136032
1782778844999312600,8.034312744140625,-0.19547687470912933,-0.02321287989616394,0.1814269721508026
1782778845009260800,8.0442607421875,-0.182648703455925,0.02382374368607998,0.26511552929878235
1782778845020050700,8.05505078125,-0.19975294172763824,0.09040805697441101,0.26083946228027344
1782778845039320800,8.07432080078125,-0.41111230850219727,0.2021963894367218,0.054367005825042725
1782778845049310200,8.084310302734375,-0.5552765130996704,0.16371189057826996,0.031154127791523933
1782778845059310800,8.094310791015625,-0.6487388610839844,0.04642575979232788,0.02932153269648552
1782778845069258200,8.10425830078125,-0.6939429044723511,-0.05375614017248154,0.033597588539123535
1782778845079359700,8.11435986328125,-0.6969972252845764,-0.07635815441608429,-0.0006108652451075613
1782778845089339000,8.1243388671875,-0.7018841505050659,-0.060475658625364304,-0.0507018156349659
1782778845100264200,8.13526416015625,-0.6835582256317139,-0.08307767659425735,-0.11911872029304504
1782778845119308800,8.154308837890625,-0.5412266254425049,0.08002334833145142,-0.251676470041275
1782778845129296600,8.164296630859376,-0.45142942667007446,0.3683517575263977,-0.1716531366109848
1782778845139328500,8.17432861328125,-0.34574973583221436,0.7018841505050659,0.06719517707824707
1782778845149285600,8.18428564453125,-0.1875356286764145,0.9627236127853394,0.3439171314239502
1782778845159316000,8.19431591796875,-0.033597588539123535,1.1282681226730347,0.5821545720100403
1782778845169305000,8.20430517578125,-0.02932153269648552,1.2137892246246338,0.8289441466331482
1782778845179337700,8.214337646484376,-0.21930062770843506,0.9077457785606384,1.0067058801651
1782778845189294000,8.224294189453126,-0.4105014503002167,0.45753806829452515,1.0506882667541504
1782778845199326700,8.23432666015625,-0.5681046843528748,0.21135938167572021,0.9810495972633362
1782778845209313800,8.244313720703126,-0.513126790523529,0.3579670190811157,0.9260717034339905
1782778845219313400,8.2543134765625,-0.4129449129104614,0.626747727394104,0.8423831462860107
1782778845229302800,8.264302734375,-0.28099802136421204,0.6982190012931824,0.9431759119033813
