time,seconds_elapsed,z,y,x
1782778882193457400,0.17945751953125,0.46303585171699524,-3.014620065689087,-0.2028072625398636
1782778882204034000,0.190033935546875,0.46303585171699524,-3.014620065689087,-0.2028072625398636
1782778882214027000,0.200027099609375,0.46303585171699524,-3.014620065689087,-0.2028072625398636
1782778882224052200,0.21005224609375,0.46303585171699524,-3.014620065689087,-0.2028072625398636
1782778882234016000,0.22001611328125,-0.242513507604599,0.23884831368923187,0.5656611919403076
1782778882244043800,0.230043701171875,-0.15577064454555511,0.2321287989616394,0.8417723178863525
1782778882254035700,0.24003564453125,-0.08674286305904388,0.2785545587539673,0.9737191796302795
1782778882264034600,0.25003466796875,-0.04337143152952194,0.33292156457901,0.9480628371238708
1782778882274024400,0.2600244140625,-0.027488935738801956,0.39706242084503174,0.8246681094169617
1782778882284055000,0.270054931640625,-0.06536258012056351,0.5534439086914062,0.646906316280365
1782778882294013400,0.280013427734375,-0.08735372871160507,0.5876523852348328,0.4141666293144226
1782778882304044300,0.290044189453125,-0.09040805697441101,0.5442809462547302,0.18448130786418915
1782778882314033200,0.300033203125,-0.09651670604944229,0.4746423065662384,0
1782778882324033000,0.310032958984375,-0.09040805697441101,0.37201693654060364,-0.14355333149433136
1782778882334022100,0.320022216796875,-0.09224065393209457,0.2724458873271942,-0.26083946228027344
1782778882344052500,0.330052490234375,-0.06780604273080826,0.18936823308467865,-0.323147714138031
1782778882354011400,0.340011474609375,0.0006108652451075613,0.12461651116609573,-0.30054569244384766
1782778882364041700,0.350041748046875,0.07330382615327835,0.07391469180583954,-0.22907446324825287
1782778882374030600,0.360030517578125,0.13500121235847473,0.05314527451992035,-0.13988813757896423
1782778882384030700,0.37003076171875,0.1716531366109848,0.03176499158143997,-0.059864792972803116
1782778882394019600,0.38001953125,0.1814269721508026,0.003054326167330146,-0.00855211354792118
1782778882404266000,0.390265869140625,0.18325957655906677,-0.02015855349600315,0.02321287989616394
1782778882414016500,0.4000166015625,0.18814650177955627,-0.031154127791523933,0.04581489413976669
1782778882424040200,0.410040283203125,0.1765400618314743,-0.02932153269648552,0.06719517707824707
1782778882434028300,0.4200283203125,0.15821409225463867,-0.004886921960860491,0.08002334833145142
1782778882444137500,0.430137451171875,0.14355333149433136,0.021380282938480377,0.08246681094169617
1782778882454017000,0.44001708984375,0.1160643994808197,0.04581489413976669,0.1062905490398407
1782778882464050200,0.45005029296875,0.07819075137376785,0.07819075137376785,0.14233160018920898
1782778882473932300,0.459932373046875,0.039095375686883926,0.12828169763088226,0.1411098688840866
1782778882484041000,0.470041015625,0.025656340643763542,0.22479841113090515,0.10506882518529892
1782778882494025700,0.480025634765625,0.010995574295520782,0.19975294172763824,0.039095375686883926
1782778882504056600,0.490056640625,-0.0024434609804302454,0.11484266817569733,0.013439035043120384
1782778882514014700,0.5000146484375,0.03420845419168472,0.12461651116609573,0.024434609338641167
1782778882524046300,0.51004638671875,0.08796459436416626,0.025045474991202354,0.030543262138962746
1782778882534034400,0.520034423828125,0.10384709388017654,-0.013439035043120384,0.08185594528913498
1782778882544035600,0.53003564453125,0.17531833052635193,0.02382374368607998,0.1973094791173935
1782778882554023400,0.5400234375,0.28649580478668213,0.045204028487205505,0.313373863697052
1782778882564055300,0.55005517578125,0.3286454975605011,0.10567969083786011,0.4190535545349121
1782778882574012200,0.56001220703125,0.28466320037841797,0.5375614166259766,0.5516113042831421
1782778882594031900,0.580031982421875,0.12461651116609573,1.0238101482391357,0.3084869384765625
1782778882604033000,0.590032958984375,0.09834930300712585,0.7715228199958801,-0.26083946228027344
1782778882614020900,0.600020751953125,0.2272418737411499,0.6957755088806152,-0.7037167549133301
1782778882624052500,0.610052490234375,0.5650503635406494,0.6487388610839844,-0.8680394887924194
1782778882634009900,0.620009765625,0.6951646208763123,0.4703662395477295,-0.7336491346359253
1782778882644041500,0.63004150390625,0.6951646208763123,0.08857546001672745,-0.49724429845809937
1782778882654029300,0.640029296875,0.5473352670669556,-0.7281513810157776,-0.26022860407829285
1782778882664029400,0.650029541015625,0.3280346393585205,-1.6071864366531372,-0.1007927656173706
1782778882674018600,0.6600185546875,0.06841690838336945,-1.9901989698410034,-0.1368338167667389
1782778882684049000,0.670048828125,-0.26145032048225403,-1.7666223049163818,-0.26633724570274353
1782778882694007300,0.68000732421875,-0.4294382631778717,-1.1398745775222778,-0.394618958234787
1782778882704037600,0.69003759765625,-0.41172316670417786,-0.4343251883983612,-0.5558874011039734
1782778882714027000,0.700027099609375,-0.34758231043815613,-0.05192354694008827,-0.6762278079986572
1782778882724058600,0.71005859375,-0.3017674386501312,-0.09040805697441101,-0.6206390857696533
1782778882734016000,0.72001611328125,-0.2987131178379059,-0.523511528968811,-0.5308418869972229
1782778882744046300,0.73004638671875,-0.4153883755207062,-1.1276572942733765,-0.5564982295036316
1782778882754035700,0.74003564453125,-0.5962044596672058,-1.5540411472320557,-0.675616979598999
1782778882764035600,0.75003564453125,-0.7922922372817993,-1.7666223049163818,-0.8051204085350037
1782778882774024400,0.7600244140625,-0.9138544201850891,-1.633453607559204,-0.9132435321807861
1782778882784056600,0.770056640625,-0.8863654732704163,-1.0787880420684814,-1.0286970138549805
1782778882794013400,0.780013427734375,-0.797789990901947,-0.29077184200286865,-1.120937705039978
1782778882804045300,0.79004541015625,-0.7330383062362671,0.3689626157283783,-1.1368201971054077
1782778882814033200,0.800033203125,-0.637132465839386,0.8228355050086975,-1.0335839986801147
1782778882824032300,0.8100322265625,-0.455705463886261,1.0592403411865234,-0.8130616545677185
1782778882834021600,0.820021728515625,-0.2577851414680481,1.1166616678237915,-0.45631635189056396
1782778882844052000,0.830052001953125,-0.1111774742603302,0.9712757468223572,0.016493361443281174
1782778882854010400,0.84001025390625,-0.012828170321881771,0.7055493593215942,0.5259549617767334
1782778882864043300,0.850043212890625,0.0861319974064827,0.4440990388393402,0.9437867999076843
1782778882874030000,0.860030029296875,0.1508837193250656,0.2926044464111328,1.1691961288452148
1782778882884032300,0.8700322265625,0.16982053220272064,0.26939156651496887,1.1997393369674683
1782778882894019000,0.88001904296875,0.10873401165008545,0.3237585723400116,1.0934487581253052
1782778882904052500,0.890052490234375,0.01710422709584236,0.45265114307403564,0.9095783233642578
1782778882914008300,0.90000830078125,-0.033597588539123535,0.5583308339118958,0.6444628238677979
1782778882924040000,0.9100400390625,-0.06963863968849182,0.5668829679489136,0.3481931984424591
1782778882934028300,0.9200283203125,-0.08674286305904388,0.45875978469848633,0.07024950534105301
1782778882944030500,0.930030517578125,-0.06963863968849182,0.28955012559890747,-0.1508837193250656
1782778882954040600,0.94004052734375,-0.015271631069481373,0.15271630883216858,-0.2675589919090271
1782778882964157000,0.950156982421875,0.04092797264456749,0.09834930300712585,-0.2767219543457031
1782778882974006000,0.960006103515625,0.06841690838336945,0.09346238523721695,-0.2021963894367218
1782778882984037600,0.97003759765625,0.09346238523721695,0.1014036312699318,-0.05253441259264946
1782778882994025700,0.980025634765625,0.12950342893600464,0.17104226350784302,0.13561208546161652
1782778883004056800,0.990056884765625,0.17104226350784302,0.22540926933288574,0.3176499307155609
1782778883014014700,1.0000146484375,0.19058994948863983,0.20341812074184418,0.4893030524253845
1782778883024045000,1.010045166015625,0.17043140530586243,0.11362093687057495,0.6218608021736145
1782778883034034200,1.0200341796875,0.1270599663257599,0.02871066704392433,0.6792821288108826
1782778883044186600,1.0301865234375,0.06291911751031876,-0.03481931984424591,0.6194173693656921
1782778883054023200,1.040023193359375,0.042760565876960754,-0.0507018156349659,0.5455026626586914
1782778883064056600,1.050056640625,0.04459316283464432,-0.029932396486401558,0.49296826124191284
1782778883074121700,1.060121826171875,0.060475658625364304,0.054367005825042725,0.45814892649650574
1782778883084043500,1.07004345703125,0.0861319974064827,0.10751228034496307,0.4239404797554016
1782778883094032000,1.080031982421875,0.10445795953273773,0.15027284622192383,0.4129449129104614
1782778883104033800,1.09003369140625,0.1612684279680252,0.25595253705978394,0.4642575979232788
1782778883113855200,1.099855224609375,0.1918116807937622,0.43249258399009705,0.5400048494338989
1782778883124020700,1.110020751953125,0.1459967941045761,0.5192354321479797,0.5595525503158569
1782778883134009900,1.120009765625,0.059864792972803116,0.46853363513946533,0.4966334402561188
1782778883144041200,1.130041259765625,0.039706241339445114,0.32620203495025635,0.3439171314239502
1782778883154029300,1.140029296875,0.11545353382825851,0.07269296050071716,0.24617868661880493
1782778883164030700,1.15003076171875,0.27122417092323303,-0.04398229718208313,0.36163222789764404
1782778883174018600,1.1600185546875,0.4893030524253845,0.15027284622192383,0.7409795522689819
1782778883184049000,1.170048828125,0.7953465580940247,0.5809328556060791,1.0629055500030518
1782778883194007300,1.18000732421875,1.1826350688934326,1.0580185651779175,1.0250319242477417
1782778883204038100,1.1900380859375,1.3139711618423462,1.1178834438323975,0.3885102868080139
1782778883214027000,1.200027099609375,1.0122036933898926,0.8772025108337402,-0.5894849896430969
1782778883234016000,1.22001611328125,0.45814892649650574,0.47342056035995483,-1.6218472719192505
1782778883244047600,1.230047607421875,0.37201693654060364,0.06169738993048668,-1.5833626985549927
1782778883254035700,1.24003564453125,0.3029891550540924,-0.5174028873443604,-1.4605787992477417
1782778883264036900,1.250036865234375,0.22663100063800812,-1.1154398918151855,-1.4575244188308716
1782778883274024400,1.2600244140625,0.17348572611808777,-1.531439185142517,-1.5063936710357666
1782778883284056300,1.270056396484375,0.14233160018920898,-1.5424346923828125,-1.4245377779006958
1782778883294013400,1.280013427734375,0.152105450630188,-1.1942415237426758,-1.1954632997512817
1782778883304043800,1.290043701171875,0.12217304855585098,-0.8301658630371094,-0.9669997096061707
1782778883314033200,1.300033203125,-0.007941247895359993,-0.5797111392021179,-0.7929030656814575
1782778883324033300,1.310033203125,-0.17837265133857727,-0.42149701714515686,-0.6866125464439392
1782778883334022100,1.320022216796875,-0.3793473243713379,-0.36590829491615295,-0.6444628238677979
1782778883344052500,1.330052490234375,-0.5711590051651001,-0.44165557622909546,-0.6487388610839844
1782778883354011100,1.34001123046875,-0.7440338730812073,-0.7458664774894714,-0.685390830039978
1782778883364043000,1.35004296875,-0.8319984674453735,-1.2131783962249756,-0.6902777552604675
1782778883374030300,1.3600302734375,-0.7397578358650208,-1.5821410417556763,-0.598647952079773
1782778883384032000,1.370031982421875,-0.5571091175079346,-1.6682729721069336,-0.40256020426750183
1782778883394019600,1.38001953125,-0.423329621553421,-1.500285029411316,-0.1264491081237793
1782778883404051200,1.39005126953125,-0.3530801236629486,-1.1239920854568481,0.2278527319431305
1782778883414008600,1.400008544921875,-0.3292563557624817,-0.7189884185791016,0.5393940210342407
1782778883424040400,1.41004052734375,-0.3488040566444397,-0.4202753007411957,0.6585127115249634
1782778883434028300,1.4200283203125,-0.37140607833862305,-0.12461651116609573,0.6133087277412415
1782778883444028200,1.430028076171875,-0.3225368559360504,0.14416420459747314,0.4691445231437683
1782778883454017300,1.440017333984375,-0.2174680233001709,0.40744712948799133,0.342695415019989
1782778883464047600,1.450047607421875,-0.1875356286764145,0.685390830039978,0.30970868468284607
1782778883474146000,1.46014599609375,-0.24923302233219147,0.6969972252845764,0.37140607833862305
1782778883484038700,1.47003857421875,-0.24923302233219147,0.6976081132888794,0.413555771112442
1782778883494135000,1.480135009765625,-0.242513507604599,0.6835582256317139,0.4086688458919525
1782778883504028000,1.49002783203125,-0.2834414839744568,0.6524040699005127,0.3530801236629486
1782778883514014700,1.5000146484375,-0.33719760179519653,0.6609562039375305,0.25534167885780334
1782778883524002000,1.510001953125,-0.37568211555480957,0.6597344875335693,0.13988813757896423
1782778883534004000,1.52000390625,-0.38728857040405273,0.6615670323371887,0.05314527451992035
1782778883544034300,1.530034423828125,-0.3677408695220947,0.5998696684837341,-0.00855211354792118
1782778883554023400,1.5400234375,-0.2822197377681732,0.513737678527832,-0.003054326167330146
1782778883564053800,1.5500537109375,-0.1569923609495163,0.42088615894317627,0.04642575979232788
1782778883574012200,1.56001220703125,-0.024434609338641167,0.3194825351238251,0.09957103431224823
1782778883584043000,1.57004296875,0.0959058403968811,0.2638937830924988,0.15515977144241333
1782778883594031600,1.580031494140625,0.1875356286764145,0.24068090319633484,0.22846360504627228
1782778883604033800,1.59003369140625,0.2577851414680481,0.24984388053417206,0.3243694305419922
1782778883614020900,1.600020751953125,0.3017674386501312,0.2840523421764374,0.42210787534713745
1782778883624053500,1.610053466796875,0.3139847218990326,0.3182607889175415,0.48380526900291443
1782778883634009900,1.620009765625,0.30482175946235657,0.3646865487098694,0.5119050741195679
1782778883643846400,1.629846435546875,0.28955012559890747,0.42149701714515686,0.5216789245605469
1782778883653998800,1.639998779296875,0.30482175946235657,0.4660901725292206,0.5119050741195679
1782778883664033800,1.65003369140625,0.3500257730484009,0.4893030524253845,0.49296826124191284
1782778883674201600,1.66020166015625,0.3732386529445648,0.4691445231437683,0.48319441080093384
1782778883684160500,1.670160400390625,0.37629300355911255,0.403781920671463,0.4795292317867279
1782778883694007600,1.680007568359375,0.3781255781650543,0.3500257730484009,0.4331034719944
1782778883704040000,1.6900400390625,0.3787364661693573,0.3121521472930908,0.34086281061172485
1782778883714136300,1.70013623046875,0.3494149148464203,0.303600013256073,0.24923302233219147
1782778883724027000,1.71002685546875,0.2926044464111328,0.37140607833862305,0.17287486791610718
1782778883734016000,1.72001611328125,0.23029619455337524,0.38728857040405273,0.07696902006864548
1782778883744047600,1.730047607421875,0.23579397797584534,0.394618958234787,-0.006719517521560192
1782778883754035700,1.74003564453125,0.26083946228027344,0.5082398653030396,0.0012217304902151227
1782778883764036600,1.75003662109375,0.24495697021484375,0.6774495840072632,0.01160643994808197
1782778883774024400,1.7600244140625,0.29626965522766113,1.0225883722305298,0.05497787147760391
1782778883794013700,1.780013671875,0.8429940342903137,1.8863518238067627,0.18570303916931152
1782778883804044800,1.790044921875,1.0109820365905762,1.795332908630371,-0.06108652427792549
1782778883814033200,1.800033203125,0.9358455538749695,1.4123204946517944,-0.7067710757255554
1782778883824033500,1.810033447265625,0.6762278079986572,1.1264355182647705,-1.3298536539077759
1782778883834021600,1.820021728515625,0.4282165467739105,0.8161159753799438,-1.5998560190200806
1782778883844053200,1.83005322265625,0.22602014243602753,0.3701843321323395,-1.5008958578109741
1782778883854010400,1.84001025390625,0.030543262138962746,-0.1258382350206375,-1.2223412990570068
1782778883864042200,1.850042236328125,-0.029932396486401558,-0.6627888083457947,-0.9321803450584412
1782778883874030000,1.860030029296875,0.2015855312347412,-1.0671815872192383,-0.6053674817085266
1782778883884031500,1.870031494140625,0.5937610268592834,-1.6352862119674683,-0.08124507963657379
1782778883894019000,1.88001904296875,0.6298020482063293,-1.9468275308609009,0.08552113175392151
1782778883904049400,1.89004931640625,0.48197266459465027,-1.9199494123458862,0.16310101747512817
1782778883914008300,1.90000830078125,0.2028072625398636,-1.5106697082519531,0.26572638750076294
1782778883924039200,1.9100390625,-0.025045474991202354,-1.0152580738067627,0.35674530267715454
1782778883934028300,1.9200283203125,-0.17531833052635193,-0.6517932415008545,0.3280346393585205
1782778883944028200,1.930028076171875,-0.33169981837272644,-0.49846604466438293,0.16249015927314758
1782778883954017300,1.940017333984375,-0.4996877610683441,-0.4660901725292206,-0.07635815441608429
1782778883964048000,1.9500478515625,-0.6426302194595337,-0.5180137157440186,-0.40256020426750183
1782778883974036700,1.96003662109375,-0.7648032903671265,-0.6053674817085266,-0.7825183868408203
1782778883984036900,1.970036865234375,-0.8533787727355957,-0.7153232097625732,-1.1197160482406616
1782778883994025700,1.980025634765625,-0.8863654732704163,-0.8796459436416626,-1.3103059530258179
1782778884004057300,1.990057373046875,-0.8332201838493347,-0.96883225440979,-1.2431107759475708
1782778884014014700,2.0000146484375,-0.7379252314567566,-1.0286970138549805,-0.9181304574012756
1782778884024046600,2.010046630859375,-0.6530149579048157,-1.0714576244354248,-0.42210787534713745
1782778884034034400,2.020034423828125,-0.5406157374382019,-1.009149432182312,0.12339477986097336
1782778884044034300,2.030034423828125,-0.3781255781650543,-0.8362745046615601,0.5919284224510193
1782778884054023200,2.040023193359375,-0.2272418737411499,-0.6340781450271606,0.8979719281196594
1782778884064055600,2.0500556640625,-0.14355333149433136,-0.4392121136188507,1.0433578491210938
1782778884074012200,2.06001220703125,-0.12217304855585098,-0.22479841113090515,1.0409144163131714
1782778884084044800,2.070044921875,-0.04337143152952194,0.03787364438176155,0.9529497623443604
1782778884094032000,2.080031982421875,0.00366519158706069,0.3597996234893799,0.8258898258209229
1782778884104034000,2.090033935546875,0.001832595793530345,0.616973876953125,0.6817256212234497
1782778884114020900,2.100020751953125,0.045204028487205505,0.7489207983016968,0.5748242139816284
1782778884124051200,2.11005126953125,0.09957103431224823,0.7941248416900635,0.5387831330299377
1782778884134009900,2.120009765625,0.1007927656173706,0.7483099102973938,0.5253441333770752
1782778884144041200,2.130041259765625,0.06841690838336945,0.6133087277412415,0.4948008358478546
1782778884154029300,2.140029296875,0.01710422709584236,0.4954117238521576,0.44287729263305664
1782778884164030000,2.150030029296875,-0.0507018156349659,0.5088507533073425,0.33719760179519653
1782778884174018600,2.1600185546875,-0.11789698898792267,0.6017022728919983,0.18020524084568024
1782778884184049000,2.170048828125,-0.1612684279680252,0.7214318513870239,0.030543262138962746
1782778884194007600,2.180007568359375,-0.17409659922122955,0.8558222055435181,-0.08674286305904388
1782778884204040000,2.1900400390625,-0.14966198801994324,0.9126327037811279,-0.1667662113904953
1782778884214027000,2.200027099609375,-0.08429940044879913,0.8546004891395569,-0.19608774781227112
1782778884224059600,2.2100595703125,-0.006719517521560192,0.6860016584396362,-0.20830504596233368
1782778884234016000,2.22001611328125,0.09040805697441101,0.42271876335144043,-0.22479841113090515
1782778884244046300,2.23004638671875,0.2064724564552307,0.08979719132184982,-0.2076941877603531
1782778884254035700,2.24003564453125,0.29016098380088806,-0.25534167885780334,-0.12278391420841217
1782778884264035600,2.25003564453125,0.3237585723400116,-0.5717698931694031,0.02687807008624077
1782778884274024700,2.260024658203125,0.2993239760398865,-0.8142833709716797,0.2223549485206604
1782778884284056300,2.270056396484375,0.25106561183929443,-1.016479730606079,0.4691445231437683
1782778884294013400,2.280013427734375,0.19364428520202637,-1.1166616678237915,0.7550294399261475
1782778884304044800,2.290044921875,0.11789698898792267,-1.1924089193344116,1.0812314748764038
1782778884314033200,2.300033203125,0.0806342139840126,-1.1313223838806152,1.1423180103302002
1782778884324144400,2.310144287109375,0.08552113175392151,-0.9254608750343323,1.0525208711624146
1782778884334022100,2.320022216796875,0.11056660860776901,-0.6139195561408997,0.7898487448692322
1782778884344054800,2.3300546875,0.16065755486488342,-0.27611109614372253,0.375071257352829
1782778884354011100,2.34001123046875,0.2590068578720093,0.0012217304902151227,-0.07757988572120667
1782778884364042200,2.350042236328125,0.4147774875164032,0.2926044464111328,-0.4001167416572571
1782778884374030600,2.360030517578125,0.6426302194595337,0.375071257352829,-0.5161811113357544
1782778884384032000,2.370031982421875,0.8326093554496765,0.3280346393585205,-0.4508185386657715
1782778884394019600,2.38001953125,0.9065240025520325,0.6585127115249634,-0.10262536257505417
1782778884404051000,2.390051025390625,0.8894197940826416,1.2944234609603882,0.3500257730484009
1782778884414008600,2.400008544921875,0.816726803779602,1.709811806678772,0.5363397002220154
1782778884434028300,2.4200283203125,0.6676757335662842,1.7599027156829834,-0.21563543379306793
1782778884444029400,2.430029541015625,0.7947356700897217,1.4691308736801147,-0.6591235995292664
1782778884454017300,2.440017333984375,0.9364564418792725,1.0012081861495972,-0.9566149711608887
1782778884464049000,2.450048828125,0.8851437568664551,0.375071257352829,-1.0769554376602173
1782778884474036700,2.46003662109375,0.7385360598564148,-0.2987131178379059,-1.0629055500030518
1782778884484038100,2.4700380859375,0.7171558141708374,-0.7739662528038025,-1.0195341110229492
1782778884494025700,2.480025634765625,0.6096435189247131,-1.2296717166900635,-1.0910053253173828
1782778884504056300,2.490056396484375,0.3628539443016052,-1.5057828426361084,-1.2651019096374512
1782778884514014700,2.5000146484375,0.13866640627384186,-1.4538593292236328,-1.434922456741333
1782778884524044800,2.510044921875,0,-1.171028733253479,-1.4343116283416748
1782778884534034200,2.5200341796875,-0.06902777403593063,-0.8924741148948669,-1.2388347387313843
1782778884544034000,2.530033935546875,-0.10506882518529892,-0.8118399381637573,-0.9926560521125793
1782778884554023200,2.540023193359375,-0.13561208546161652,-0.9089674949645996,-0.797789990901947
1782778884564053800,2.5500537109375,-0.19486601650714874,-1.1044443845748901,-0.6798930168151855
1782778884574012200,2.56001220703125,-0.3170390725135803,-1.284038782119751,-0.6878342628479004
1782778884584042800,2.570042724609375,-0.48319441080093384,-1.32863187789917,-0.8191702961921692
1782778884594031900,2.580031982421875,-0.5809328556060791,-1.1808024644851685,-0.9963212013244629
1782778884604031700,2.59003173828125,-0.6218608021736145,-0.8607091307640076,-1.13926362991333
1782778884614020900,2.600020751953125,-0.7067710757255554,-0.5729916095733643,-1.207069754600525
1782778884624052500,2.610052490234375,-0.7440338730812073,-0.3225368559360504,-1.1441506147384644
1782778884634009900,2.620009765625,-0.7018841505050659,-0.1508837193250656,-0.969443142414093
1782778884644041700,2.630041748046875,-0.616973876953125,-0.09040805697441101,-0.6982190012931824
1782778884654029300,2.640029296875,-0.5167919993400574,-0.0555887371301651,-0.3439171314239502
1782778884664029400,2.650029541015625,-0.3878994286060333,-0.00427605677396059,0.025045474991202354
1782778884674018600,2.6600185546875,-0.2321287989616394,0.08307767659425735,0.37140607833862305
1782778884684051000,2.670051025390625,-0.09346238523721695,0.1508837193250656,0.6530149579048157
1782778884694007300,2.68000732421875,-0.003054326167330146,0.13439035415649414,0.8576548099517822
1782778884704038100,2.6900380859375,0.04581489413976669,0.07513642311096191,0.9718865752220154
1782778884714027000,2.700027099609375,0.06169738993048668,0.030543262138962746,0.9364564418792725
1782778884724059600,2.7100595703125,0.1007927656173706,0.09285151958465576,0.6511823534965515
1782778884734016000,2.72001611328125,0.1264491081237793,0.17531833052635193,0.42149701714515686
1782778884744050700,2.73005078125,0.1258382350206375,0.30543261766433716,0.21624629199504852
1782778884754035700,2.74003564453125,0.12034045159816742,0.4355469346046448,0.04581489413976669
1782778884764149200,2.750149169921875,0.09651670604944229,0.5650503635406494,-0.09468411654233932
1782778884774024400,2.7600244140625,0.04092797264456749,0.5900958180427551,-0.20341812074184418
1782778884784055000,2.770054931640625,0.012217304669320583,0.5528330206871033,-0.26633724570274353
1782778884794013700,2.780013671875,0.016493361443281174,0.4715879559516907,-0.2987131178379059
1782778884804044000,2.7900439453125,0.048258353024721146,0.39217549562454224,-0.2877175211906433
1782778884814033200,2.800033203125,0.1111774742603302,0.33719760179519653,-0.23457226157188416
1782778884824034600,2.81003466796875,0.18997909128665924,0.30543261766433716,-0.12278391420841217
1782778884834021600,2.820021728515625,0.27000242471694946,0.27488934993743896,0.02687807008624077
1782778884844052000,2.830052001953125,0.3243694305419922,0.27488934993743896,0.192422553896904
1782778884854010600,2.8400107421875,0.3488040566444397,0.2938261926174164,0.3579670190811157
1782778884864041200,2.850041259765625,0.3543018400669098,0.3023782968521118,0.4990769028663635
1782778884874030000,2.860030029296875,0.3481931984424591,0.33536502718925476,0.607200026512146
1782778884884030000,2.870030029296875,0.3445279896259308,0.3604104816913605,0.6841690540313721
1782778884894019000,2.88001904296875,0.3396410644054413,0.38240164518356323,0.7275404930114746
1782778884904049400,2.89004931640625,0.3445279896259308,0.40194934606552124,0.7428121566772461
1782778884913781000,2.899781005859375,0.3439171314239502,0.37079519033432007,0.7116580009460449
1782778884924040200,2.910040283203125,0.34208452701568604,0.3640756905078888,0.6933320760726929
1782778884934028300,2.9200283203125,0.35613444447517395,0.4349360466003418,0.7483099102973938
1782778884944028000,2.93002783203125,0.35185837745666504,0.5705481171607971,0.8741481900215149
1782778884954044000,2.9400439453125,0.3494149148464203,0.7422012686729431,1.0293079614639282
1782778884964047600,2.950047607421875,0.3640756905078888,0.8045095205307007,1.1301007270812988
1782778884974036500,2.960036376953125,0.3628539443016052,0.6640105247497559,1.1068878173828125
1782778884984036600,2.97003662109375,0.35246923565864563,0.384845107793808,0.9737191796302795
1782778884994025700,2.980025634765625,0.27550023794174194,0.06536258012056351,0.8313875794410706
1782778885004056300,2.990056396484375,0.1661553531885147,-0.15332718193531036,0.8753699064254761
1782778885014015000,3.000014892578125,0.06841690838336945,-0.22418753802776337,1.1410962343215942
1782778885024045000,3.010045166015625,-0.024434609338641167,-0.0507018156349659,1.6273449659347534
1782778885034034200,3.0200341796875,-0.08491026610136032,0.42638394236564636,2.222327709197998
1782778885044035300,3.030035400390625,-0.14477506279945374,0.7409795522689819,2.5277602672576904
1782778885054023200,3.040023193359375,-0.12217304855585098,0.7220427393913269,2.361604928970337
1782778885074012200,3.06001220703125,0.6218608021736145,0.47280970215797424,0.9993755221366882
1782778885084042800,3.070042724609375,1.035416603088379,0.35185837745666504,-0.06169738993048668
1782778885094031600,3.080031494140625,1.188132882118225,0.46181413531303406,-0.8936958312988281
1782778885104032000,3.090031982421875,1.004873275756836,0.5161811113357544,-1.2589932680130005
1782778885114020900,3.100020751953125,0.6322455406188965,0.47830748558044434,-1.111163854598999
1782778885124051200,3.11005126953125,0.24862214922904968,0.19608774781227112,-0.6475171446800232
1782778885134009900,3.120009765625,-0.07819075137376785,-0.40683624148368835,-0.26083946228027344
1782778885144040200,3.130040283203125,-0.3481931984424591,-1.0323622226715088,-0.08979719132184982
1782778885154029600,3.140029541015625,-0.598647952079773,-1.3518447875976562,-0.05497787147760391
1782778885164030500,3.150030517578125,-0.6010913848876953,-1.0897835493087769,-0.14416420459747314
1782778885174018600,3.1600185546875,-0.5259549617767334,-0.7360926270484924,-0.31459560990333557
1782778885184049400,3.17004931640625,-0.45875978469848633,-0.47708576917648315,-0.5229006409645081
1782778885194007300,3.18000732421875,-0.4349360466003418,-0.3836233615875244,-0.7519751191139221
1782778885204038400,3.190038330078125,-0.4453207552433014,-0.4343251883983612,-0.9608910083770752
1782778885214027000,3.200027099609375,-0.4899139404296875,-0.5809328556060791,-1.112385630607605
1782778885224058000,3.21005810546875,-0.5595525503158569,-0.7409795522689819,-1.2345587015151978
1782778885234016000,3.22001611328125,-0.6316346526145935,-0.8619308471679688,-1.340238332748413
1782778885244048000,3.2300478515625,-0.6829473376274109,-0.9095783233642578,-1.4043792486190796
1782778885254035500,3.240035400390625,-0.6762278079986572,-0.8863654732704163,-1.3921618461608887
1782778885264036600,3.25003662109375,-0.6310238242149353,-0.8008443117141724,-1.2870930433273315
1782778885274024400,3.2600244140625,-0.6126978397369385,-0.5754350423812866,-1.0311405658721924
1782778885284056300,3.270056396484375,-0.6035348773002625,-0.27977627515792847,-0.7153232097625732
1782778885294013400,3.280013427734375,-0.5577199459075928,-0.06169738993048668,-0.41111230850219727
1782778885304045600,3.290045654296875,-0.48197266459465027,0.07513642311096191,-0.12034045159816742
1782778885314033200,3.300033203125,-0.3952298164367676,0.06719517707824707,0.14355333149433136
1782778885324033300,3.310033203125,-0.34758231043815613,-0.01038470957428217,0.36163222789764404
1782778885334022100,3.320022216796875,-0.3176499307155609,-0.06902777403593063,0.5271766781806946
1782778885344054800,3.3300546875,-0.2822197377681732,-0.0806342139840126,0.6328563690185547
1782778885354011100,3.34001123046875,-0.2431243658065796,-0.02382374368607998,0.6646214127540588
1782778885364051700,3.3500517578125,-0.2272418737411499,0.08429940044879913,0.6194173693656921
1782778885374030600,3.360030517578125,-0.23090706765651703,0.2590068578720093,0.5308418869972229
1782778885384030500,3.370030517578125,-0.2590068578720093,0.4893030524253845,0.40194934606552124
1782778885394129000,3.38012890625,-0.2669481039047241,0.749531626701355,0.24434609711170197
1782778885404019500,3.39001953125,-0.24495697021484375,0.9969320893287659,0.07269296050071716
1782778885414008600,3.400008544921875,-0.23457226157188416,1.158811330795288,-0.08796459436416626
1782778885424041200,3.410041259765625,-0.26633724570274353,1.2082914113998413,-0.19914206862449646
1782778885433862700,3.419862548828125,-0.2767219543457031,1.1691961288452148,-0.25534167885780334
1782778885444028200,3.430028076171875,-0.23457226157188416,1.083064079284668,-0.25534167885780334
1782778885454017300,3.440017333984375,-0.17470745742321014,0.9657779335975647,-0.20097467303276062
1782778885464047600,3.450047607421875,-0.1362229436635971,0.7910705208778381,-0.09346238523721695
1782778885474128400,3.46012841796875,-0.12278391420841217,0.5754350423812866,0.04642575979232788
1782778885484148000,3.47014794921875,-0.12828169763088226,0.342695415019989,0.19486601650714874
1782778885494025700,3.480025634765625,-0.14966198801994324,0.1466076523065567,0.3237585723400116
1782778885504056300,3.490056396484375,-0.17776179313659668,0.0403171069920063,0.4147774875164032
1782778885514123800,3.500123779296875,-0.2223549485206604,-0.016493361443281174,0.4801400899887085
1782778885524047400,3.51004736328125,-0.2938261926174164,-0.07330382615327835,0.5345070958137512
1782778885534034200,3.5200341796875,-0.3640756905078888,-0.13988813757896423,0.5540547966957092
1782778885544034300,3.530034423828125,-0.3781255781650543,-0.17898350954055786,0.513126790523529
1782778885553705200,3.539705322265625,-0.32009339332580566,-0.17287486791610718,0.4202753007411957
1782778885564023300,3.550023193359375,-0.26572638750076294,-0.17470745742321014,0.303600013256073
1782778885574020400,3.560020263671875,-0.2724458873271942,-0.08552113175392151,0.1368338167667389
1782778885584043000,3.57004296875,-0.3029891550540924,0.039706241339445114,0.01466076634824276
1782778885594031600,3.580031494140625,-0.3335324227809906,0.19120082259178162,-0.10262536257505417
1782778885604032000,3.590031982421875,-0.3793473243713379,0.34147366881370544,-0.23090706765651703
1782778885614020900,3.600020751953125,-0.4153883755207062,0.24556782841682434,-0.3885102868080139
1782778885624052500,3.610052490234375,-0.38117989897727966,-0.1368338167667389,-0.4660901725292206
1782778885634009900,3.620009765625,-0.2993239760398865,-0.5448917746543884,-0.3591887652873993
1782778885644041500,3.63004150390625,-0.16065755486488342,-0.31459560990333557,0.12034045159816742
1782778885654029600,3.640029541015625,0.08674286305904388,0.32009339332580566,0.827722430229187
1782778885664030000,3.650030029296875,0.3549126982688904,0.6322455406188965,1.2797627449035645
1782778885674018600,3.6600185546875,0.4856378734111786,0.5907067060470581,1.0659598112106323
1782778885684049000,3.670048828125,0.37629300355911255,0.4612032473087311,0.27488934993743896
1782778885694007600,3.680007568359375,0.2125810980796814,0.5717698931694031,-0.6597344875335693
1782778885714027000,3.700027099609375,-0.17348572611808777,0.7806857824325562,-1.6352862119674683
1782778885724058600,3.71005859375,-0.4996877610683441,0.13377949595451355,-1.6365079879760742
1782778885734016000,3.72001611328125,-0.5998696684837341,-0.7379252314567566,-1.379333734512329
1782778885744047600,3.730047607421875,-0.4593706727027893,-1.6768250465393066,-0.9877691268920898
1782778885754035700,3.74003564453125,-0.29138273000717163,-2.289522886276245,-0.45265114307403564
1782778885764036900,3.750036865234375,-0.1716531366109848,-2.392759084701538,0.07330382615327835
1782778885774024400,3.7600244140625,-0.16065755486488342,-2.070833206176758,0.44654250144958496
1782778885784055000,3.770054931640625,-0.2816088795661926,-1.4599679708480835,0.7159340381622314
1782778885794013700,3.780013671875,-0.4899139404296875,-0.827722430229187,0.8491026759147644
1782778885804044000,3.7900439453125,-0.6963863968849182,-0.3530801236629486,0.7776314616203308
1782778885814033200,3.800033203125,-0.8924741148948669,-0.1661553531885147,0.48197266459465027
1782778885824033000,3.810032958984375,-1.053742527961731,-0.2125810980796814,0.08735372871160507
1782778885834021600,3.820021728515625,-1.0989465713500977,-0.413555771112442,-0.2785545587539673
1782778885844053000,3.830052978515625,-1.081842303276062,-0.6572909951210022,-0.5564982295036316
1782778885854010400,3.84001025390625,-1.0708467960357666,-0.7611380815505981,-0.7312057018280029
1782778885864042500,3.85004248046875,-1.112385630607605,-0.7464773058891296,-0.7623597979545593
1782778885874030000,3.860030029296875,-1.1081095933914185,-0.7342600226402283,-0.4697553813457489
1782778885884030500,3.870030517578125,-0.998153805732727,-0.6823364496231079,0.16737708449363708
1782778885894019000,3.88001904296875,-0.8717046976089478,-0.5277875661849976,0.9639453291893005
1782778885904049400,3.89004931640625,-0.779464066028595,-0.22907446324825287,1.6475036144256592
1782778885914008300,3.90000830078125,-0.66584312915802,0.05742133408784866,2.116647958755493
1782778885924039200,3.9100390625,-0.5002986192703247,0.2272418737411499,2.4862215518951416
1782778885934028300,3.9200283203125,-0.40683624148368835,0.3219259977340698,2.718961238861084
1782778885944028000,3.93002783203125,-0.46364670991897583,0.22052235901355743,2.744006633758545
1782778885954017300,3.940017333984375,-0.5674937963485718,0.36224308609962463,2.5998425483703613
1782778885964047600,3.950047607421875,-0.6212499737739563,0.4605923891067505,2.283414363861084
1782778885974036500,3.960036376953125,-0.6377432942390442,0.4758640229701996,1.8967366218566895
1782778885984036600,3.97003662109375,-0.6352998614311218,0.5002986192703247,1.5008958578109741
1782778885994025700,3.980025634765625,-0.5870414972305298,0.5271766781806946,0.8478809595108032
1782778886004056300,3.990056396484375,-0.5271766781806946,0.48380526900291443,0.4001167416572571
1782778886014014700,4.0000146484375,-0.48258355259895325,0.3549126982688904,-0.027488935738801956
1782778886024047600,4.010047607421875,-0.4502076804637909,0.19608774781227112,-0.38606682419776917
1782778886034034400,4.020034423828125,-0.4202753007411957,0.1563815027475357,-0.6395758986473083
1782778886044034000,4.030033935546875,-0.39767327904701233,0.2583959996700287,-0.8002334833145142
1782778886054023200,4.040023193359375,-0.3445279896259308,0.42271876335144043,-0.8478809595108032
1782778886064055800,4.050055908203125,-0.24007004499435425,0.5760459303855896,-0.7305948138237
1782778886074012400,4.060012451171875,-0.10506882518529892,0.6701191663742065,-0.46364670991897583
1782778886084043000,4.07004296875,0.01038470957428217,0.6951646208763123,-0.11362093687057495
1782778886094031600,4.080031494140625,0.059864792972803116,0.6585127115249634,0.20952677726745605
1782778886104033800,4.09003369140625,0.04581489413976669,0.5852088928222656,0.44715335965156555
1782778886114130200,4.100130126953125,0.009162978269159794,0.5216789245605469,0.5858197808265686
1782778886124020700,4.110020751953125,-0.036041051149368286,0.44776421785354614,0.6377432942390442
1782778886134009900,4.120009765625,-0.09162978827953339,0.3646865487098694,0.6206390857696533
1782778886144041700,4.130041748046875,-0.15332718193531036,0.30054569244384766,0.5241223573684692
1782778886154029300,4.140029296875,-0.19120082259178162,0.2480112910270691,0.3378084897994995
1782778886164030500,4.150030517578125,-0.17470745742321014,0.2889392673969269,0.07513642311096191
1782778886174018300,4.160018310546875,-0.1362229436635971,0.4331034719944,-0.23151792585849762
1782778886184049000,4.170048828125,-0.17287486791610718,0.5766568183898926,-0.5601634383201599
1782778886194007600,4.180007568359375,-0.28038713335990906,0.6768386960029602,-0.8753699064254761
1782778886204038100,4.1900380859375,-0.3243694305419922,0.8222246170043945,-1.1154398918151855
1782778886214027000,4.200027099609375,-0.30054569244384766,0.8991936445236206,-1.3213015794754028
1782778886224058000,4.21005810546875,-0.2632829248905182,0.7000515460968018,-1.576032280921936
1782778886234016000,4.22001611328125,-0.2119702398777008,0.2125810980796814,-1.9517145156860352
1782778886244046300,4.23004638671875,-0.18509216606616974,-0.4801400899887085,-2.4575109481811523
1782778886254035500,4.240035400390625,-0.21624629199504852,-1.19607412815094,-2.9107728004455566
1782778886264036900,4.250036865234375,-0.23457226157188416,-1.2504411935806274,-2.509434461593628
1782778886274024700,4.260024658203125,-0.21441370248794556,0.12950342893600464,-1.519832730293274
1782778886284056300,4.270056396484375,-0.10445795953273773,0.8552113175392151,-0.7098253965377808
1782778886294013400,4.280013427734375,0.1459967941045761,1.5680910348892212,-0.13011430203914642
1782778886304045300,4.29004541015625,0.494189977645874,1.757459282875061,0.08002334833145142
1782778886314033000,4.300032958984375,0.7861835956573486,1.2473868131637573,-0.05864306539297104
1782778886324033800,4.31003369140625,0.8741481900215149,0.42210787534713745,-0.3952298164367676
1782778886334022100,4.320022216796875,0.6597344875335693,-0.4648684561252594,-0.8881980776786804
1782778886354011100,4.34001123046875,-0.2174680233001709,-1.7507398128509521,-1.6450600624084473
1782778886364042800,4.350042724609375,-0.5002986192703247,-1.89979088306427,-1.8710802793502808
1782778886374030600,4.360030517578125,-0.44837507605552673,-1.7153096199035645,-2.0622811317443848
1782778886384032000,4.370031982421875,-0.08185594528913498,-1.1655309200286865,-2.0812180042266846
1782778886394019600,4.38001953125,0.2528982162475586,-0.5595525503158569,-1.8509217500686646
1782778886404051500,4.390051513671875,0.3543018400669098,-0.1362229436635971,-1.3494013547897339
1782778886414008600,4.400008544921875,0.29626965522766113,-0.03787364438176155,-0.7086036801338196
1782778886424039200,4.4100390625,-0.033597588539123535,-0.6792821288108826,0.04337143152952194
1782778886434028300,4.4200283203125,-0.3677408695220947,-1.359786033630371,0.24129177629947662
1782778886444028400,4.4300283203125,-0.5577199459075928,-1.8216001987457275,0.13805554807186127
1782778886454017300,4.440017333984375,-0.5595525503158569,-1.99752938747406,-0.2577851414680481
1782778886464047600,4.450047607421875,-0.37751471996307373,-1.7256942987442017,-0.9071348905563354
1782778886474036500,4.460036376953125,-0.08979719132184982,-1.122159481048584,-1.6090190410614014
1782778886484038000,4.470037841796875,0.2015855312347412,-0.4331034719944,-2.0677788257598877
1782778886494025700,4.480025634765625,0.39584067463874817,0.04459316283464432,-2.1923954486846924
1782778886504056300,4.490056396484375,0.4911356568336487,0.35552358627319336,-1.919338583946228
1782778886514014700,4.5000146484375,0.4642575979232788,0.6334672570228577,-1.2388347387313843
1782778886524045000,4.510045166015625,0.27488934993743896,0.7971791625022888,-0.3084869384765625
1782778886534034200,4.5200341796875,0.04214970022439957,0.799011766910553,0.6682865619659424
1782778886544035000,4.53003515625,-0.1417207419872284,0.6359107494354248,1.5375478267669678
1782778886554023200,4.540023193359375,-0.26450464129447937,0.38240164518356323,2.166738986968994
1782778886564053500,4.550053466796875,-0.26939156651496887,0.1368338167667389,2.4660630226135254
1782778886574012400,4.560012451171875,-0.17592918872833252,0.012828170321881771,2.412306785583496
1782778886584044800,4.570044921875,-0.04642575979232788,0.11056660860776901,2.0812180042266846
1782778886594031900,4.580031982421875,0.08796459436416626,0.39706242084503174,1.55892813205719
1782778886604032000,4.590031982421875,0.19608774781227112,0.7024950385093689,0.9376781582832336
1782778886614020900,4.600020751953125,0.22540926933288574,0.941343367099762,0.32559117674827576
1782778886624051500,4.610051513671875,0.2125810980796814,1.054964303970337,-0.2168571650981903
1782778886634009900,4.620009765625,0.22602014243602753,1.0305296182632446,-0.6298020482063293
1782778886644042500,4.63004248046875,0.20952677726745605,0.8637634515762329,-0.8301658630371094
1782778886654029600,4.640029541015625,0.1569923609495163,0.6145304441452026,-0.817337691783905
1782778886664029200,4.650029296875,0.11667526513338089,0.38179078698158264,-0.646295428276062
1782778886674018600,4.6600185546875,0.0757472887635231,0.20463985204696655,-0.3854559659957886
1782778886684018200,4.67001806640625,0.039095375686883926,0.13011430203914642,-0.10018189996480942
1782778886694936300,4.680936279296875,0.028099801391363144,0.1313360333442688,0.15577064454555511
1782778886714027000,4.700027099609375,-0.01466076634824276,0.34513887763023376,0.5351179838180542
1782778886724057000,4.71005712890625,-0.07330382615327835,0.4996877610683441,0.6236934065818787
1782778886734016000,4.72001611328125,-0.14355333149433136,0.646906316280365,0.6035348773002625
1782778886744046300,4.73004638671875,-0.20586158335208893,0.7849618196487427,0.5002986192703247
1782778886754035700,4.74003564453125,-0.2535090744495392,0.8319984674453735,0.3543018400669098
1782778886764149200,4.750149169921875,-0.2577851414680481,0.8478809595108032,0.23396138846874237
1782778886774024400,4.7600244140625,-0.18448130786418915,0.8637634515762329,0.16737708449363708
1782778886784024300,4.7700244140625,-0.08979719132184982,0.7971791625022888,0.12278391420841217
1782778886794105000,4.78010498046875,-0.0555887371301651,0.6414085030555725,0.09529497474431992
1782778886804044000,4.7900439453125,-0.0959058403968811,0.42210787534713745,0.06352998316287994
1782778886814033200,4.800033203125,-0.19058994948863983,0.22540926933288574,-0.0507018156349659
1782778886824032300,4.8100322265625,-0.31520646810531616,0.06414084881544113,-0.2675589919090271
1782778886834021600,4.820021728515625,-0.4282165467739105,-0.11972958594560623,-0.5180137157440186
1782778886844053200,4.83005322265625,-0.3188716471195221,-0.12461651116609573,-0.2565633952617645
1782778886854010600,4.8400107421875,-0.04948008432984352,0.05497787147760391,0.16065755486488342
1782778886864042200,4.850042236328125,0.12400564551353455,0.11789698898792267,0.5632177591323853
1782778886874030000,4.860030029296875,0.16737708449363708,0.475253164768219,0.6963863968849182
1782778886884031500,4.870031494140625,0.16920967400074005,0.8674286603927612,0.6023131608963013
1782778886894019000,4.88001904296875,0.252287358045578,1.0445796251296997,0.5461135506629944
1782778886914008300,4.90000830078125,0.32131510972976685,0.3689626157283783,0.3433062732219696
1782778886924040400,4.91004052734375,0.17959438264369965,-0.24373523890972137,0.28955012559890747
1782778886934028300,4.9200283203125,0.06963863968849182,-0.759305477142334,0.32681289315223694
1782778886944028700,4.930028564453125,-0.04092797264456749,-1.226617455482483,0.29504790902137756
1782778886954049000,4.940049072265625,-0.2015855312347412,-1.7733417749404907,0.09773843735456467
1782778886964049000,4.950048828125,-0.30115658044815063,-2.2430970668792725,-0.2840523421764374
1782778886974036500,4.960036376953125,-0.2779437005519867,-2.41413950920105,-0.7428121566772461
1782778886984038100,4.9700380859375,-0.28527405858039856,-2.132530689239502,-1.1191051006317139
1782778886994025700,4.980025634765625,-0.2993239760398865,-1.5070046186447144,-1.2272282838821411
1782778887004057300,4.990057373046875,-0.28527405858039856,-0.96883225440979,-1.0005972385406494
1782778887014014700,5.0000146484375,-0.2718350291252136,-0.7715228199958801,-0.5253441333770752
1782778887024046300,5.01004638671875,-0.33292156457901,-0.9187413454055786,-0.059864792972803116
1782778887034034200,5.0200341796875,-0.4746423065662384,-1.1447614431381226,0.2278527319431305
1782778887044034300,5.030034423828125,-0.6236934065818787,-1.2498302459716797,0.29138273000717163
1782778887054023200,5.040023193359375,-0.7440338730812073,-1.2748757600784302,0.16920967400074005
1782778887064055000,5.050054931640625,-0.8142833709716797,-1.236391305923462,-0.024434609338641167
1782778887074012400,5.060012451171875,-0.7660250067710876,-0.99876469373703,-0.1716531366109848
1782778887084012000,5.070011962890625,-0.6249151229858398,-0.6145304441452026,-0.27488934993743896
1782778887094889000,5.080888916015625,-0.42760565876960754,-0.17837265133857727,-0.2272418737411499
1782778887114020900,5.100020751953125,-0.05742133408784866,0.19303341209888458,0.35063666105270386
1782778887124051200,5.11005126953125,0.11484266817569733,0.21441370248794556,0.6902777552604675
1782778887134009900,5.120009765625,0.2321287989616394,0.2889392673969269,0.9755517840385437
1782778887144040200,5.130040283203125,0.22663100063800812,0.4398229718208313,1.149037480354309
1782778887154029600,5.140029541015625,0.17348572611808777,0.607200026512146,1.2388347387313843
1782778887164151000,5.150151123046875,0.1661553531885147,0.7861835956573486,1.2455542087554932
1782778887174929700,5.1609296875,0.1771509200334549,0.8772025108337402,1.1753047704696655
1782778887194007300,5.18000732421875,0.16249015927314758,0.6798930168151855,1.0305296182632446
1782778887204038000,5.190037841796875,0.11972958594560623,0.4502076804637909,0.8655960559844971
1782778887213986300,5.199986328125,0.11972958594560623,0.27061331272125244,0.6059783101081848
1782778887224120600,5.21012060546875,0.17470745742321014,0.18875735998153687,0.34574973583221436
1782778887234016000,5.22001611328125,0.24556782841682434,0.10445795953273773,0.14355333149433136
1782778887244046600,5.230046630859375,0.31581732630729675,0.06352998316287994,0.02015855349600315
1782778887254035700,5.24003564453125,0.38240164518356323,0.0555887371301651,-0.04153883829712868
1782778887264037600,5.25003759765625,0.4440990388393402,0.18631389737129211,-0.04153883829712868
1782778887274024400,5.2600244140625,0.46303585171699524,0.3341432809829712,0.04092797264456749
1782778887284055000,5.270054931640625,0.47708576917648315,0.403781920671463,0.2064724564552307
1782778887294013400,5.280013427734375,0.46731191873550415,0.33719760179519653,0.3738495409488678
1782778887304044800,5.290044921875,0.44776421785354614,0.23090706765651703,0.4386012554168701
1782778887314081500,5.30008154296875,0.42699480056762695,0.18325957655906677,0.40072759985923767
1782778887324034600,5.31003466796875,0.40256020426750183,0.21319197118282318,0.29504790902137756
1782778887334022100,5.320022216796875,0.40194934606552124,0.31093040108680725,0.1569923609495163
1782778887344053500,5.330053466796875,0.4050036668777466,0.43799036741256714,0.028099801391363144
1782778887353632000,5.339632080078125,0.3982841372489929,0.5852088928222656,-0.05375614017248154
1782778887364043800,5.350043701171875,0.3897320330142975,0.7342600226402283,-0.09407325088977814
1782778887374030300,5.3600302734375,0.37201693654060364,0.807563841342926,-0.12095131725072861
1782778887384031200,5.37003125,0.3530801236629486,0.7354817390441895,-0.13316862285137177
1782778887394019600,5.38001953125,0.35185837745666504,0.6065891981124878,-0.10445795953273773
1782778887404051000,5.390051025390625,0.37568211555480957,0.475253164768219,-0.042760565876960754
1782778887414008600,5.400008544921875,0.40194934606552124,0.31093040108680725,-0.03848451003432274
1782778887424039400,5.410039306640625,0.3842342495918274,0.10262536257505417,-0.1869247704744339
1782778887434028300,5.4200283203125,0.33169981837272644,-0.02076941914856434,-0.43188172578811646
1782778887444028200,5.430028076171875,0.23090706765651703,-0.06902777403593063,-0.4715879559516907
1782778887454017300,5.440017333984375,0.11972958594560623,0.49296826124191284,-0.22418753802776337
1782778887474036700,5.46003662109375,0.28527405858039856,0.9902125597000122,0.513126790523529
1782778887484038000,5.470037841796875,0.4893030524253845,0.9755517840385437,0.6725626587867737
1782778887494025700,5.480025634765625,0.617584764957428,0.7024950385093689,0.6346889734268188
1782778887504056800,5.490056884765625,0.6407976150512695,0.2987131178379059,0.5455026626586914
1782778887514014700,5.5000146484375,0.5613851547241211,-0.1667662113904953,0.44654250144958496
1782778887524046000,5.510046142578125,0.40256020426750183,-0.588874101638794,0.33475416898727417
1782778887534034200,5.5200341796875,0.22357667982578278,-0.9920451641082764,0.19120082259178162
1782778887544035000,5.53003515625,0.09040805697441101,-1.3231340646743774,-0.022602014243602753
1782778887554023400,5.5400234375,-0.01771509274840355,-1.5583171844482422,-0.43799036741256714
1782778887564053800,5.5500537109375,-0.1313360333442688,-1.6187928915023804,-1.1441506147384644
1782778887573971700,5.5599716796875,-0.17287486791610718,-1.441641926765442,-1.8374826908111572
1782778887584105200,5.570105224609375,-0.14233160018920898,-1.1869112253189087,-2.1459696292877197
1782778887594031900,5.580031982421875,-0.07269296050071716,-1.015868902206421,-1.9437731504440308
1782778887604033000,5.590032958984375,0.0403171069920063,-0.9541715383529663,-1.3530665636062622
1782778887614020900,5.600020751953125,0.11301007121801376,-0.9706648588180542,-0.6542366743087769
1782778887624051500,5.610051513671875,0.03481931984424591,-1.0005972385406494,-0.16982053220272064
1782778887634010000,5.620010009765625,-0.09407325088977814,-0.9175195693969727,0.05253441259264946
1782778887644040400,5.63004052734375,-0.2431243658065796,-0.8772025108337402,0.0757472887635231
1782778887653988900,5.63998876953125,-0.40744712948799133,-0.9040805697441101,-0.13988813757896423
1782778887664090000,5.650090087890625,-0.4960225820541382,-0.8717046976089478,-0.5577199459075928
1782778887674079500,5.66007958984375,-0.45326200127601624,-0.6774495840072632,-0.9615018963813782
1782778887684018200,5.67001806640625,-0.2590068578720093,-0.27611109614372253,-1.1465940475463867
1782778887694882300,5.68088232421875,-0.02076941914856434,0.04886921867728233,-0.8930850028991699
1782778887714027000,5.700027099609375,0.37201693654060364,0.5711590051651001,-0.006719517521560192
1782778887724057600,5.7100576171875,0.48869219422340393,0.7648032903671265,0.44287729263305664
1782778887734016000,5.72001611328125,0.543059229850769,0.9187413454055786,0.8387179970741272
1782778887744046300,5.73004638671875,0.48747047781944275,1.0005972385406494,1.1423180103302002
1782778887754035700,5.74003564453125,0.33658674359321594,1.009149432182312,1.3365731239318848
1782778887764004600,5.750004638671875,0.22602014243602753,0.9755517840385437,1.377501130104065
1782778887778689800,5.764689697265625,0.21991148591041565,0.950506329536438,1.2052371501922607
1782778887794013700,5.780013671875,0.29138273000717163,1.0115928649902344,0.8979719281196594
1782778887804044000,5.7900439453125,0.2840523421764374,1.0555751323699951,0.6597344875335693
1782778887814033200,5.800033203125,0.25045475363731384,1.015868902206421,0.4331034719944
1782778887824032300,5.8100322265625,0.2376265823841095,0.8875871896743774,0.23151792585849762
1782778887834021600,5.820021728515625,0.26633724570274353,0.749531626701355,0.04214970022439957
1782778887844054000,5.830053955078125,0.32070425152778625,0.627358615398407,-0.11301007121801376
1782778887854010600,5.8400107421875,0.3591887652873993,0.5406157374382019,-0.19364428520202637
1782778887864043000,5.85004296875,0.36590829491615295,0.48319441080093384,-0.17470745742321014
1782778887873711400,5.85971142578125,0.3274237811565399,0.4306600093841553,-0.08979719132184982
1782778887884032300,5.8700322265625,0.29016098380088806,0.3634648323059082,0.022602014243602753
1782778887894019000,5.88001904296875,0.29504790902137756,0.32559117674827576,0.14477506279945374
1782778887904052000,5.890052001953125,0.3121521472930908,0.3066543638706207,0.25534167885780334
1782778887914008300,5.90000830078125,0.33658674359321594,0.3194825351238251,0.36224308609962463
1782778887924149200,5.910149169921875,0.35674530267715454,0.3494149148464203,0.44654250144958496
1782778887934028300,5.9200283203125,0.36651915311813354,0.4386012554168701,0.43799036741256714
1782778887944028400,5.9300283203125,0.33475416898727417,0.5345070958137512,0.304210901260376
1782778887954017000,5.94001708984375,0.27000242471694946,0.5687155723571777,0.1062905490398407
1782778887964050000,5.9500498046875,0.20891591906547546,0.5461135506629944,-0.08002334833145142
1782778887973996300,5.959996337890625,0.14844025671482086,0.4715879559516907,-0.18081611394882202
1782778887984128300,5.970128173828125,0.11239920556545258,0.384845107793808,-0.1716531366109848
1782778887994025700,5.980025634765625,0.10262536257505417,0.2987131178379059,-0.09407325088977814
1782778888004056300,5.990056396484375,0.11056660860776901,0.21380282938480377,-0.018325956538319588
1782778888014014700,6.0000146484375,0.1007927656173706,0.16859880089759827,0.0006108652451075613
1782778888024045300,6.01004541015625,0.07757988572120667,0.07452555745840073,-0.16432274878025055
1782778888034034400,6.020034423828125,0.04153883829712868,-0.014049900695681572,-0.5320636034011841
1782778888044035300,6.030035400390625,-0.02932153269648552,-0.08857546001672745,-0.9731083512306213
1782778888054023200,6.040023193359375,-0.08979719132184982,-0.3878994286060333,-1.056796908378601
1782778888064055000,6.050054931640625,0.024434609338641167,0.2675589919090271,-0.12339477986097336
1782778888074012400,6.060012451171875,0.22968533635139465,0.6414085030555725,0.9144652485847473
1782778888084044000,6.0700439453125,0.31642818450927734,0.7226535677909851,1.7342463731765747
1782778888094032000,6.080031982421875,0.423329621553421,0.627358615398407,1.9309450387954712
1782778888114020900,6.100020751953125,0.23579397797584534,0.25045475363731384,0.7971791625022888
1782778888124052200,6.11005224609375,0.19975294172763824,0.2919935882091522,0.4660901725292206
1782778888134009900,6.120009765625,0.09285151958465576,0.252287358045578,0.3481931984424591
1782778888144009500,6.130009521484375,0.028099801391363144,0.03726277872920036,0.2932153046131134
1782778888154090500,6.140090576171875,0.033597588539123535,-0.3579670190811157,0.20036379992961884
1782778888164030000,6.150030029296875,0.010995574295520782,-0.8649851679801941,0.06352998316287994
1782778888173977900,6.159977783203125,-0.0354301854968071,-1.2577714920043945,-0.252287358045578
1782778888184079000,6.1700791015625,-0.1508837193250656,-1.2999212741851807,-0.7000515460968018
1782778888194099000,6.180098876953125,-0.3634648323059082,-0.9920451641082764,-1.073290228843689
1782778888204039200,6.1900390625,-0.5406157374382019,-0.485027015209198,-1.1154398918151855
1782778888214027000,6.200027099609375,-0.5650503635406494,-0.1618792861700058,-0.8252789378166199
1782778888224058600,6.21005859375,-0.4801400899887085,-0.19914206862449646,-0.3842342495918274
1782778888234016000,6.22001611328125,-0.4031710624694824,-0.36102136969566345,-0.02076941914856434
1782778888244047400,6.23004736328125,-0.41233405470848083,-0.40256020426750183,0.13744467496871948
1782778888254035700,6.24003564453125,-0.5021312236785889,-0.35185837745666504,0.06658431142568588
1782778888264004600,6.250004638671875,-0.6279694437980652,-0.3781255781650543,-0.15027284622192383
1782778888274085600,6.260085693359375,-0.7128797173500061,-0.49235737323760986,-0.40194934606552124
1782778888284024300,6.2700244140625,-0.7354817390441895,-0.5418374538421631,-0.617584764957428
1782778888294768600,6.2807685546875,-0.7104362845420837,-0.5002986192703247,-0.7831292152404785
1782778888314033200,6.300033203125,-0.35613444447517395,-0.23273965716362,-0.6023131608963013
1782778888324033000,6.310032958984375,-0.08735372871160507,-0.13072516024112701,-0.26145032048225403
1782778888334022100,6.320022216796875,0.2076941877603531,0.09285151958465576,0.1319468915462494
1782778888344053800,6.3300537109375,0.43188172578811646,0.394008070230484,0.4343251883983612
1782778888354011100,6.34001123046875,0.5613851547241211,0.6957755088806152,0.6676757335662842
1782778888364044000,6.3500439453125,0.5320636034011841,0.9162978529930115,0.8894197940826416
1782778888374030600,6.360030517578125,0.22663100063800812,0.826500654220581,1.1465940475463867
1782778888384032800,6.37003271484375,-0.10018189996480942,0.4996877610683441,1.3836097717285156
1782778888394019600,6.38001953125,-0.3188716471195221,0.12889257073402405,1.5326608419418335
1782778888404052200,6.39005224609375,-0.38179078698158264,-0.11545353382825851,1.5485434532165527
1782778888414008600,6.400008544921875,-0.27000242471694946,-0.18325957655906677,1.4202617406845093
1782778888424041200,6.410041259765625,-0.11545353382825851,-0.08002334833145142,1.1869112253189087
1782778888434028300,6.4200283203125,0,0.1215621829032898,0.8588765263557434
1782778888444030200,6.4300302734375,0.07941248267889023,0.3170390725135803,0.46303585171699524
1782778888454017000,6.44001708984375,0.11850785464048386,0.3677408695220947,0.11545353382825851
1782778888464049700,6.450049560546875,0.08857546001672745,0.29993483424186707,-0.12461651116609573
1782778888474036700,6.46003662109375,0.05009094998240471,0.23090706765651703,-0.22663100063800812
1782778888483995400,6.469995361328125,0.028099801391363144,0.09896016865968704,-0.22357667982578278
1782778888494025700,6.480025634765625,0.01160643994808197,-0.025045474991202354,-0.11789698898792267
1782778888504056300,6.490056396484375,0.014049900695681572,-0.039095375686883926,0.06658431142568588
1782778888514014700,6.5000146484375,0.05619960278272629,0.07391469180583954,0.2577851414680481
1782778888524045300,6.51004541015625,0.1472185254096985,0.3536909818649292,0.5314527750015259
1782778888534034200,6.5200341796875,0.19853121042251587,0.4245513379573822,0.7739662528038025
1782778888544036600,6.53003662109375,0.24129177629947662,0.39217549562454224,0.9297369122505188
1782778888554023200,6.540023193359375,0.24434609711170197,0.32681289315223694,0.9669997096061707
1782778888564053800,6.5500537109375,0.19914206862449646,0.2528982162475586,0.8857545852661133
1782778888574002200,6.560002197265625,0.13011430203914642,0.2174680233001709,0.6896668672561646
1782778888584105200,6.570105224609375,0.07880161702632904,0.21624629199504852,0.42577308416366577
1782778888594031900,6.580031982421875,0.06414084881544113,0.22296582162380219,0.19486601650714874
1782778888604032000,6.590031982421875,0.08307767659425735,0.21563543379306793,0.0659734457731247
1782778888614020900,6.600020751953125,0.14355333149433136,0.2168571650981903,0.03420845419168472
1782778888623616800,6.60961669921875,0.2223549485206604,0.21441370248794556,0.0024434609804302454
1782778888634048300,6.62004833984375,0.27550023794174194,0.1508837193250656,-0.12217304855585098
1782778888644042800,6.630042724609375,0.2583959996700287,0.02076941914856434,-0.4239404797554016
1782778888654029600,6.640029541015625,0.1814269721508026,-0.2076941877603531,-0.8594874143600464
1782778888664029400,6.650029541015625,0.08002334833145142,-0.47830748558044434,-1.2394455671310425
1782778888674018600,6.6600185546875,-0.04642575979232788,-0.788627028465271,-1.2834278345108032
1782778888684018200,6.67001806640625,-0.1014036312699318,-0.31093040108680725,-0.4789183437824249
1782778888695260200,6.68126025390625,0.045204028487205505,-0.027488935738801956,0.3139847218990326
1782778888714027000,6.700027099609375,0.19058994948863983,0.24556782841682434,0.8228355050086975
1782778888724058000,6.71005810546875,0.2785545587539673,0.33169981837272644,0.6414085030555725
1782778888734016000,6.72001611328125,0.2968805134296417,0.2822197377681732,0.3445279896259308
1782778888754035700,6.74003564453125,-0.14355333149433136,-0.5381723046302795,-0.5644394755363464
1782778888764036000,6.7500361328125,-0.384845107793808,-1.1673635244369507,-1.1496484279632568
1782778888773984000,6.75998388671875,-0.3988949954509735,-1.4782938957214355,-1.671938180923462
1782778888784117500,6.770117431640625,-0.34574973583221436,-1.5375478267669678,-2.2186625003814697
1782778888793973000,6.779972900390625,-0.25595253705978394,-1.214400053024292,-2.5509731769561768
1782778888804106500,6.7901064453125,-0.12095131725072861,-0.6188064813613892,-2.406809091567993
1782778888814033200,6.800033203125,-0.04214970022439957,-0.2174680233001709,-1.797776460647583
1782778888824033300,6.810033203125,-0.11178833991289139,-0.1716531366109848,-0.9920451641082764
1782778888834021600,6.820021728515625,-0.22357667982578278,-0.27550023794174194,-0.30115658044815063
1782778888844052700,6.830052734375,-0.394618958234787,-0.39095374941825867,0.18997909128665924
1782778888854010400,6.84001025390625,-0.5638286471366882,-0.38728857040405273,0.5351179838180542
1782778888864041700,6.850041748046875,-0.665232241153717,-0.33658674359321594,0.655458390712738
1782778888874030000,6.860030029296875,-0.684779942035675,-0.2871066629886627,0.5546656250953674
1782778888884030200,6.8700302734375,-0.6304129362106323,-0.27061331272125244,0.3017674386501312
1782778888894019000,6.88001904296875,-0.5125159621238708,-0.16982053220272064,-0.03481931984424591
1782778888904050200,6.89005029296875,-0.3732386529445648,0.006719517521560192,-0.30604347586631775
1782778888914008300,6.90000830078125,-0.1966986060142517,0.22357667982578278,-0.3597996234893799
1782778888924039000,6.910038818359375,-0.07391469180583954,0.3445279896259308,-0.22968533635139465
1782778888934028300,6.9200283203125,0.02321287989616394,0.5082398653030396,-0.0024434609804302454
1782778888944029400,6.930029541015625,0.08002334833145142,0.7929030656814575,0.3225368559360504
1782778888954045700,6.940045654296875,0.1062905490398407,1.024420976638794,0.9578366875648499
1782778888964048600,6.950048583984375,0.03848451003432274,1.0403034687042236,1.3396275043487549
1782778888974036500,6.960036376953125,-0.024434609338641167,1.0329731702804565,1.5546520948410034
1782778888984038700,6.97003857421875,-0.05253441259264946,1.0616837739944458,1.632842779159546
1782778888994135000,6.980135009765625,-0.06230825558304787,1.0769554376602173,1.6084082126617432
1782778889004030000,6.990030029296875,-0.04886921867728233,1.368949055671692,1.660942554473877
1782778889014014700,7.0000146484375,-0.07696902006864548,1.218676209449768,1.6682729721069336
1782778889024045300,7.01004541015625,-0.0861319974064827,0.7177666425704956,1.4025466442108154
1782778889034034200,7.0200341796875,-0.07941248267889023,0.5314527750015259,0.9175195693969727
1782778889044035000,7.03003515625,-0.12400564551353455,0.5968153476715088,0.46670106053352356
1782778889054023200,7.040023193359375,-0.13500121235847473,0.6621779203414917,0.14966198801994324
1782778889064053500,7.050053466796875,0.0012217304902151227,0.7483099102973938,0.05375614017248154
1782778889074012400,7.060012451171875,0.07513642311096191,0.7550294399261475,0.15821409225463867
1782778889084154000,7.070154052734375,-0.0012217304902151227,0.5613851547241211,0.5070181488990784
1782778889094001400,7.08000146484375,0.051312681287527084,0.304210901260376,0.6939429044723511
