time,seconds_elapsed,z,y,x
1782778855201717500,0.180717529296875,6.6624531745910645,3.528864622116089,5.08017110824585
1782778855211653600,0.190653564453125,5.669724464416504,3.4600207805633545,5.174525260925293
1782778855221706800,0.200706787109375,4.666501998901367,3.609741449356079,5.817553997039795
1782778855231716400,0.21071630859375,4.446893215179443,4.067437171936035,6.858650207519531
1782778855241316600,0.220316650390625,4.884176731109619,4.3441362380981445,7.3005757331848145
1782778855251736000,0.230736083984375,4.839590549468994,4.585742473602295,7.567868709564209
1782778855261723100,0.24072314453125,4.9039130210876465,4.7870588302612305,8.285797119140625
1782778855271725000,0.25072509765625,9.871577262878418,1.513676404953003,-0.20908260345458984
1782778855281734700,0.260734619140625,11.3855619430542,0.9974458813667297,-1.2852052450180054
1782778855291713800,0.2707138671875,13.01301383972168,0.4586338400840759,-2.156787633895874
1782778855301723600,0.2807236328125,14.506162643432617,0.20631057024002075,-1.914290189743042
1782778855311733500,0.2907333984375,15.5836181640625,0.2910892963409424,-1.3149263858795166
1782778855321712600,0.300712646484375,16.896194458007812,0.5448023676872253,-0.33628249168395996
1782778855331722500,0.310722412109375,18.71084976196289,0.9170061349868774,0.2502394914627075
1782778855341732400,0.320732421875,20.623571395874023,1.3022117614746094,0.37292611598968506
1782778855351711700,0.330711669921875,23.464069366455078,1.7084846496582031,-0.15027594566345215
1782778855361721300,0.340721435546875,26.66741943359375,2.7511987686157227,-2.074118137359619
1782778855371731000,0.35073095703125,28.48154067993164,4.068144798278809,-3.1078920364379883
1782778855381710000,0.3607099609375,28.82532501220703,5.272652626037598,-1.589995265007019
1782778855391720000,0.370719970703125,30.477449417114258,6.795054912567139,-0.41362667083740234
1782778855401729800,0.380729736328125,32.354591369628906,8.286467552185059,-0.12521982192993164
1782778855411709200,0.390709228515625,32.9792594909668,7.732581615447998,1.786920189857483
1782778855421718800,0.40071875,34.28291320800781,7.516532897949219,3.5686755180358887
1782778855431728600,0.410728759765625,36.26686096191406,7.556452751159668,4.972171783447266
1782778855441708000,0.4207080078125,39.388641357421875,6.7294416427612305,5.992702960968018
1782778855451717600,0.430717529296875,41.93699645996094,5.319676399230957,5.679686546325684
1782778855461727500,0.4407275390625,43.13218688964844,4.608983516693115,5.919867038726807
1782778855471737000,0.450737060546875,44.476104736328125,4.129156112670898,5.166752815246582
1782778855481716500,0.460716552734375,44.0615348815918,3.7148385047912598,3.7493181228637695
1782778855491726000,0.47072607421875,41.10253143310547,3.4787437915802,2.4295525550842285
1782778855501736000,0.48073583984375,36.1453742980957,4.014055252075195,1.9598820209503174
1782778855511715000,0.490715087890625,31.070533752441406,4.515578746795654,1.2585318088531494
1782778855521725000,0.500724853515625,26.2830753326416,5.209475517272949,0.9764170050621033
1782778855531734800,0.51073486328125,22.209123611450195,5.828993797302246,1.1893582344055176
1782778855541714000,0.5207138671875,18.768741607666016,5.837717056274414,1.2847540378570557
1782778855551723800,0.530723876953125,16.923263549804688,5.1537580490112305,1.1823608875274658
1782778855561733600,0.540733642578125,16.539241790771484,4.201131343841553,0.7885099649429321
1782778855571712800,0.550712646484375,17.402812957763672,3.143244743347168,0.8000760674476624
1782778855581722600,0.56072265625,19.092872619628906,1.8205153942108154,-0.6854667663574219
1782778855591732200,0.570732177734375,20.66646957397461,0.8452854156494141,-1.986628532409668
1782778855601711600,0.580711669921875,21.331562042236328,0.6309949159622192,-2.140530824661255
1782778855611721200,0.59072119140625,20.240116119384766,0.889885663986206,-1.1616928577423096
1782778855621731000,0.60073095703125,17.253662109375,1.1011874675750732,-0.46258020401000977
1782778855631710200,0.610710205078125,14.48951530456543,1.0722123384475708,-0.8047772645950317
1782778855641720000,0.620719970703125,12.791470527648926,1.196306824684143,-1.2711845636367798
1782778855651730000,0.63072998046875,11.609428405761719,1.4711682796478271,-1.4192039966583252
1782778855661709300,0.640709228515625,10.558225631713867,1.735352635383606,-1.4237991571426392
1782778855671963100,0.650963134765625,9.458538055419922,2.0582692623138428,-1.4596699476242065
1782778855681736700,0.66073681640625,8.770116806030273,2.308363437652588,-1.4122471809387207
1782778855691708000,0.6707080078125,8.316466331481934,2.365208148956299,-1.3257466554641724
1782778855701717500,0.680717529296875,8.20278263092041,2.1959617137908936,-1.9805848598480225
1782778855711727400,0.690727294921875,8.352682113647461,2.0031278133392334,-2.5116660594940186
1782778855721737200,0.7007373046875,8.474020004272461,1.940213918685913,-2.2180423736572266
1782778855731716400,0.71071630859375,8.260242462158203,1.8920044898986816,-1.8427066802978516
1782778855741726200,0.720726318359375,7.914864540100098,1.9005539417266846,-1.5351543426513672
1782778855751736000,0.730736083984375,7.699127674102783,1.759440541267395,-1.4412071704864502
1782778855761397200,0.740397216796875,7.761894226074219,1.5184980630874634,-1.4874327182769775
1782778855771725000,0.75072509765625,8.371676445007324,1.2168822288513184,-1.5881890058517456
1782778855781734700,0.760734619140625,9.241121292114258,0.9467872977256775,-1.5811562538146973
1782778855791805400,0.770805419921875,9.874181747436523,0.6644096970558167,-1.4275974035263062
1782778855801833200,0.780833251953125,10.344529151916504,0.5337873101234436,-1.2321795225143433
1782778855811703000,0.790703125,10.821813583374023,0.43331900238990784,-1.053952932357788
1782778855821712600,0.800712646484375,11.27946662902832,0.311557412147522,-1.0410898923873901
1782778855831722500,0.810722412109375,11.652589797973633,0.15988242626190186,-1.1666593551635742
1782778855841732400,0.820732421875,11.869318008422852,0.16095048189163208,-1.041269302368164
1782778855851711700,0.830711669921875,11.78835678100586,0.35508230328559875,-0.5837809443473816
1782778855861721300,0.840721435546875,11.943460464477539,0.5435276031494141,-0.13630777597427368
1782778855871731000,0.85073095703125,12.080648422241211,0.5321000814437866,0.054572343826293945
1782778855881710000,0.8607099609375,11.99133586883545,0.312788724899292,-0.36680838465690613
1782778855891720000,0.870719970703125,11.617652893066406,0.2426244020462036,-0.46255162358283997
1782778855901729800,0.880729736328125,12.247856140136719,0.19935905933380127,-0.606600821018219
1782778855911709200,0.890709228515625,13.265726089477539,0.2522485852241516,-0.20806390047073364
1782778855921718800,0.90071875,15.332891464233398,0.4267570376396179,0.8579522967338562
1782778855931728600,0.910728759765625,17.988021850585938,0.6089583039283752,2.172217607498169
1782778855941708000,0.9207080078125,20.945674896240234,0.8585385680198669,3.0977892875671387
1782778855961727500,0.9407275390625,28.216352462768555,1.1938515901565552,1.9506806135177612
1782778855971737000,0.950737060546875,30.915401458740234,1.717186689376831,-0.4497066140174866
1782778855981716500,0.960716552734375,30.897451400756836,2.8225955963134766,-3.4706296920776367
1782778855991726000,0.97072607421875,29.156085968017578,3.4022414684295654,-3.5229439735412598
1782778856001736000,0.98073583984375,26.846343994140625,4.418386459350586,-3.226473808288574
1782778856011715000,0.990715087890625,27.195005416870117,5.546393394470215,-1.5883572101593018
1782778856021725000,1.000724853515625,31.155094146728516,5.139250755310059,-0.41870617866516113
1782778856031734800,1.01073486328125,35.18784713745117,5.246395587921143,0.2577265501022339
1782778856041714000,1.0207138671875,38.22333908081055,6.3101019859313965,0.86452317237854
1782778856051723800,1.030723876953125,40.11729431152344,6.960870742797852,2.0154495239257812
1782778856061733600,1.040733642578125,40.069557189941406,7.454000473022461,3.0571155548095703
1782778856071712800,1.050712646484375,37.23963928222656,7.6592912673950195,4.7675886154174805
1782778856081722600,1.06072265625,34.31758117675781,7.576668739318848,5.960051536560059
1782778856091732200,1.070732177734375,33.70195007324219,6.99903678894043,5.840991973876953
1782778856101711600,1.080711669921875,35.11425018310547,6.01090145111084,5.270389556884766
1782778856111721200,1.09072119140625,36.69187545776367,4.675846576690674,2.8075504302978516
1782778856121731000,1.10073095703125,35.9132194519043,3.914640188217163,0.5058763027191162
1782778856131710200,1.110710205078125,32.19422912597656,4.821815013885498,1.008294701576233
1782778856141720000,1.120719970703125,27.648273468017578,5.41779899597168,1.5501528978347778
1782778856151730000,1.13072998046875,23.250370025634766,5.705323219299316,1.6890556812286377
1782778856161709300,1.140709228515625,20.031063079833984,5.716094970703125,2.071606159210205
1782778856171719000,1.150718994140625,17.77743148803711,5.335493087768555,2.082998752593994
1782778856181728500,1.160728515625,16.57164764404297,4.768178462982178,1.7393841743469238
1782778856191707600,1.170707763671875,15.934621810913086,4.367469787597656,1.7571957111358643
1782778856201717500,1.180717529296875,15.446197509765625,3.7415871620178223,1.2587332725524902
1782778856211727400,1.190727294921875,15.443340301513672,2.766205310821533,-0.15809541940689087
1782778856221737200,1.2007373046875,15.722248077392578,2.122485399246216,-1.128643274307251
1782778856231716400,1.21071630859375,15.930051803588867,1.7723495960235596,-1.9337923526763916
1782778856241726200,1.220726318359375,15.347118377685547,1.5627524852752686,-2.6655631065368652
1782778856251736000,1.230736083984375,13.962972640991211,1.6103017330169678,-2.753406286239624
1782778856261715200,1.240715087890625,12.775938034057617,1.8849140405654907,-2.640244483947754
1782778856271724800,1.250724853515625,11.262383460998535,2.002786159515381,-2.220839023590088
1782778856281734700,1.260734619140625,9.740986824035645,2.5124688148498535,-1.3312660455703735
1782778856291375600,1.270375732421875,8.492581367492676,2.8885157108306885,-0.8461369872093201
1782778856301723600,1.2807236328125,7.542574882507324,2.869258403778076,-0.8979946374893188
1782778856311733500,1.2907333984375,6.758703708648682,2.6662673950195312,-1.3779523372650146
1782778856321712600,1.300712646484375,6.559778213500977,2.5977721214294434,-1.4191296100616455
1782778856331722500,1.310722412109375,6.378373146057129,2.3573691844940186,-1.750772476196289
1782778856341732400,1.320732421875,6.207761764526367,2.0798730850219727,-2.055398941040039
1782778856351711700,1.330711669921875,6.1943864822387695,1.865965723991394,-1.8700573444366455
1782778856361721300,1.340721435546875,6.162167072296143,1.7428134679794312,-1.7622058391571045
1782778856371731000,1.35073095703125,6.597909450531006,1.5033048391342163,-1.7928119897842407
1782778856381710000,1.3607099609375,7.859297752380371,1.4312607049942017,-1.6265933513641357
1782778856391720000,1.370719970703125,9.35224437713623,1.2488508224487305,-1.3696181774139404
1782778856401729800,1.380729736328125,10.540748596191406,1.021620512008667,-1.3418452739715576
1782778856411709000,1.390708984375,11.195056915283203,0.9619805812835693,-1.0786148309707642
1782778856421718800,1.40071875,11.478812217712402,1.0237854719161987,-0.6258931756019592
1782778856431728600,1.410728759765625,11.367692947387695,1.148475170135498,-0.292087197303772
1782778856441707800,1.420707763671875,10.91888427734375,1.1855788230895996,-0.44921064376831055
1782778856451827000,1.430826904296875,10.287995338439941,1.0588632822036743,-0.4997853636741638
1782778856461727200,1.440727294921875,9.904067993164062,0.46179652214050293,-1.4692986011505127
1782778856471737000,1.450737060546875,9.832802772521973,0.24995481967926025,-2.5179922580718994
1782778856481612000,1.460612060546875,9.74429988861084,0.3106975555419922,-2.4677507877349854
1782778856491726000,1.47072607421875,9.33409309387207,0.2662118673324585,-1.653153657913208
1782778856501736000,1.48073583984375,9.912713050842285,0.6735693216323853,-0.8092142343521118
1782778856511715000,1.490715087890625,10.574405670166016,1.0224535465240479,1.145979642868042
1782778856521725000,1.500724853515625,12.115594863891602,0.939466655254364,2.344231367111206
1782778856531734800,1.51073486328125,14.136106491088867,0.3270221948623657,1.4067752361297607
1782778856541714000,1.5207138671875,16.25933837890625,0.05019056797027588,0.2934502959251404
1782778856551723800,1.530723876953125,18.985992431640625,-0.473646879196167,-0.33624178171157837
1782778856561733600,1.540733642578125,22.185646057128906,-0.4484752416610718,-0.7406740188598633
1782778856571712800,1.550712646484375,23.879737854003906,-0.0019124746322631836,-1.1451952457427979
1782778856581722600,1.56072265625,23.148775100708008,1.0493223667144775,-1.544019103050232
1782778856601711600,1.580711669921875,18.224023818969727,4.010120868682861,-1.274886965751648
1782778856611721200,1.59072119140625,16.925567626953125,6.148441791534424,0.5206972360610962
1782778856621731000,1.60073095703125,21.209918975830078,7.953591823577881,2.848245620727539
1782778856631710200,1.610710205078125,28.45237922668457,8.08614730834961,3.481369972229004
1782778856641720000,1.620719970703125,34.55316162109375,6.426751136779785,4.780008316040039
1782778856651730000,1.63072998046875,42.42466354370117,4.995254993438721,6.731515407562256
1782778856661709000,1.640708984375,52.94940948486328,3.798841714859009,9.93832778930664
1782778856671719000,1.650718994140625,60.885719299316406,2.5752248764038086,11.822126388549805
1782778856681728800,1.660728759765625,63.61981201171875,1.8849989175796509,10.66773796081543
1782778856691708000,1.6707080078125,58.7589225769043,1.5439114570617676,8.502716064453125
1782778856701717500,1.680717529296875,49.015377044677734,2.398175001144409,8.031632423400879
1782778856711727400,1.690727294921875,39.575294494628906,3.7070674896240234,7.7759785652160645
1782778856721737200,1.7007373046875,31.351749420166016,5.2952446937561035,8.265110969543457
1782778856731716400,1.71071630859375,25.82139778137207,6.109424114227295,8.299774169921875
1782778856741726200,1.720726318359375,22.18610382080078,5.775513648986816,6.706822872161865
1782778856751736000,1.730736083984375,20.8760929107666,4.809687614440918,4.068586349487305
1782778856761715200,1.740715087890625,21.44124984741211,3.101039171218872,1.4252917766571045
1782778856771725000,1.75072509765625,23.003883361816406,1.824472188949585,-0.35071462392807007
1782778856781734700,1.760734619140625,24.208415985107422,1.162121295928955,-0.8580852150917053
1782778856791713800,1.7707138671875,23.864534378051758,2.03752064704895,0.8320288062095642
1782778856801723600,1.7807236328125,22.490333557128906,2.649489402770996,2.609452486038208
1782778856811733500,1.7907333984375,21.39820098876953,3.547795534133911,3.838062286376953
1782778856821712600,1.800712646484375,19.958908081054688,4.5395002365112305,4.516180038452148
1782778856831722500,1.810722412109375,17.643550872802734,5.475078582763672,4.216001033782959
1782778856841732400,1.820732421875,17.76605987548828,5.529148578643799,3.3936197757720947
1782778856851711700,1.830711669921875,17.830204010009766,4.118748188018799,1.5955302715301514
1782778856861721300,1.840721435546875,15.297760009765625,1.2341409921646118,-2.531334638595581
1782778856871731000,1.85073095703125,11.384657859802246,-0.8607444763183594,-5.816948890686035
1782778856881710000,1.8607099609375,8.330572128295898,-1.6526687145233154,-5.794495105743408
1782778856891720000,1.870719970703125,4.08599328994751,-2.203047752380371,-7.132882595062256
1782778856901729800,1.880729736328125,1.838676929473877,-1.1672720909118652,-6.276346206665039
1782778856911709200,1.890709228515625,1.3268165588378906,-0.514124870300293,-4.545499801635742
1782778856921718800,1.90071875,2.7037267684936523,-0.27833104133605957,-3.2557859420776367
1782778856931728600,1.910728759765625,4.59713888168335,0.3710775375366211,-2.086737632751465
1782778856941708000,1.9207080078125,7.103769302368164,0.09062039852142334,-1.389388918876648
1782778856951717600,1.930717529296875,11.908146858215332,-0.6546059846878052,-2.605792999267578
1782778856961727500,1.9407275390625,13.627058029174805,-1.5836378335952759,-3.4377129077911377
1782778856971677400,1.950677490234375,14.265077590942383,-1.8021562099456787,-3.6302649974823
1782778856982525000,1.96152490234375,14.259634017944336,-2.085132122039795,-3.7028636932373047
1782778857001736000,1.98073583984375,10.985085487365723,-1.477647066116333,-2.743006706237793
1782778857011715000,1.990715087890625,9.374592781066895,-0.7728914022445679,-1.7647795677185059
1782778857021725000,2.000724853515625,8.169286727905273,-0.07030260562896729,-1.0006202459335327
1782778857031734800,2.01073486328125,7.080378532409668,0.6170216798782349,-0.2463057041168213
1782778857041714000,2.0207138671875,6.1928863525390625,1.194629192352295,0.27747535705566406
1782778857051723800,2.030723876953125,5.778621196746826,1.4667168855667114,0.3289543390274048
1782778857061733600,2.040733642578125,5.874748229980469,1.5136476755142212,-0.15371859073638916
1782778857071712800,2.050712646484375,6.498305320739746,1.4937469959259033,-0.645767867565155
1782778857081722600,2.06072265625,7.587061882019043,1.4465147256851196,-0.8212883472442627
1782778857091732200,2.070732177734375,8.526848793029785,1.447183609008789,-0.6795711517333984
1782778857101711600,2.080711669921875,8.937549591064453,1.3333348035812378,-0.4381145238876343
1782778857111678000,2.090677978515625,8.925444602966309,1.3110840320587158,-0.3719933032989502
1782778857121700600,2.10070068359375,8.511711120605469,1.032279372215271,-0.49184536933898926
1782778857131710200,2.110710205078125,8.25742244720459,0.8944659233093262,-0.7085974812507629
1782778857141720000,2.120719970703125,8.669504165649414,0.8198809623718262,-0.6428936719894409
1782778857151943400,2.130943359375,9.790020942687988,0.4342222213745117,-0.2209821343421936
1782778857161709300,2.140709228515625,11.880423545837402,0.5235159397125244,0.5158052444458008
1782778857171719000,2.150718994140625,15.213479042053223,1.1631524562835693,1.1394647359848022
1782778857181728800,2.160728759765625,19.3165283203125,2.4766845703125,2.3930892944335938
1782778857191708000,2.1707080078125,21.972028732299805,3.5524849891662598,1.7151328325271606
1782778857201717500,2.180717529296875,22.927539825439453,3.46010684967041,-0.5222522020339966
1782778857211727400,2.190727294921875,24.016830444335938,3.3834400177001953,-2.255979537963867
1782778857221737200,2.2007373046875,28.85802459716797,3.1885530948638916,-1.6887612342834473
1782778857241726200,2.220726318359375,42.12559509277344,2.773606538772583,8.699878692626953
1782778857251736000,2.230736083984375,50.152931213378906,3.9969253540039062,15.3953275680542
1782778857261715200,2.240715087890625,56.88416290283203,4.827765464782715,18.478275299072266
1782778857271725000,2.25072509765625,59.43708801269531,2.936518669128418,17.252849578857422
1782778857281734700,2.260734619140625,58.94683837890625,0.8914799094200134,12.109842300415039
1782778857291713800,2.2707138671875,55.12831115722656,0.5399020314216614,9.798018455505371
1782778857301723600,2.2807236328125,48.37651824951172,1.881982445716858,10.055222511291504
1782778857311733500,2.2907333984375,42.16269302368164,3.098172664642334,10.305736541748047
1782778857321712600,2.300712646484375,36.766151428222656,4.316896438598633,10.116806030273438
1782778857331722500,2.310722412109375,32.09453582763672,5.025979518890381,8.87652587890625
1782778857341732400,2.320732421875,28.845108032226562,4.761697292327881,7.111202239990234
1782778857351711700,2.330711669921875,26.398181915283203,4.185693740844727,5.413717746734619
1782778857361721300,2.340721435546875,24.0782470703125,3.503852128982544,4.153026580810547
1782778857371731000,2.35073095703125,21.59762191772461,2.506153106689453,2.9314804077148438
1782778857381710000,2.3607099609375,19.396705627441406,1.52464759349823,1.8740932941436768
1782778857391720000,2.370719970703125,17.605222702026367,0.9255664348602295,1.3526415824890137
1782778857401729800,2.380729736328125,16.225757598876953,0.15709179639816284,0.48506659269332886
1782778857411709200,2.390709228515625,16.31139373779297,-0.9468659162521362,-1.311976671218872
1782778857421718800,2.40071875,16.59041976928711,-1.6615196466445923,-2.6069176197052
1782778857431728600,2.410728759765625,16.081729888916016,-1.801694631576538,-3.3555352687835693
1782778857441708000,2.4207080078125,14.678133010864258,-1.6499552726745605,-3.622814178466797
1782778857451717600,2.430717529296875,13.102959632873535,-0.5292387008666992,-2.8745174407958984
1782778857461727500,2.4407275390625,11.337196350097656,0.28732430934906006,-2.0464072227478027
1782778857471737000,2.450737060546875,10.381443977355957,0.9764515161514282,-2.4663124084472656
1782778857481716500,2.460716552734375,10.052813529968262,1.5664434432983398,-2.38492488861084
1782778857491726000,2.47072607421875,8.374322891235352,1.5608627796173096,-1.8441146612167358
1782778857501736000,2.48073583984375,6.680879592895508,2.019735336303711,-1.1689865589141846
1782778857511715000,2.490715087890625,5.020796775817871,2.229361057281494,-0.2766572833061218
1782778857521725000,2.500724853515625,3.62501859664917,2.353809118270874,1.0211840867996216
1782778857531734800,2.51073486328125,2.481339454650879,2.5549840927124023,1.8834749460220337
1782778857541714000,2.5207138671875,2.3562560081481934,2.1940815448760986,1.6039519309997559
1782778857551723800,2.530723876953125,3.979459285736084,1.2768313884735107,0.24389514327049255
1782778857561733600,2.540733642578125,7.187838554382324,0.2504581809043884,-1.0968985557556152
1782778857571712800,2.550712646484375,10.750246047973633,-0.5371922254562378,-2.2861263751983643
1782778857581722600,2.56072265625,14.306068420410156,-0.8729403018951416,-2.2668421268463135
1782778857591732200,2.570732177734375,16.714038848876953,-0.8347781300544739,-1.60641610622406
1782778857601711400,2.58071142578125,17.311616897583008,-0.6862598657608032,-0.7417708039283752
1782778857611721200,2.59072119140625,15.497064590454102,-0.5624849796295166,-0.029555782675743103
1782778857621731000,2.60073095703125,13.382813453674316,-0.2977082133293152,0.5703681111335754
1782778857631710200,2.610710205078125,11.078910827636719,-0.3087593913078308,0.46760180592536926
1782778857641720000,2.620719970703125,9.324668884277344,-0.40358102321624756,-0.017217352986335754
1782778857651730000,2.63072998046875,8.23723316192627,-0.2955557703971863,-0.40532416105270386
1782778857661709300,2.640709228515625,7.579866409301758,-0.20705682039260864,-0.387304425239563
1782778857671659000,2.650658935546875,7.216513633728027,-0.08241459727287292,-0.48415976762771606
1782778857681789700,2.660789794921875,7.590653419494629,0.21379178762435913,-0.3496050238609314
1782778857691708000,2.6707080078125,8.85342025756836,0.3334615230560303,0.32778310775756836
1782778857701717500,2.680717529296875,11.800254821777344,0.44104889035224915,0.565987229347229
1782778857711727400,2.690727294921875,12.995433807373047,0.33303219079971313,0.7854957580566406
1782778857721737200,2.7007373046875,12.830373764038086,0.24225422739982605,0.5231372117996216
1782778857731716400,2.71071630859375,12.748779296875,0.3074153661727905,0.3082461953163147
1782778857741726200,2.720726318359375,12.160457611083984,0.6347131729125977,0.7806797623634338
1782778857751736000,2.730736083984375,11.40035629272461,0.829693615436554,0.8219491243362427
1782778857761715200,2.740715087890625,13.814979553222656,0.7760233879089355,0.7680906653404236
1782778857771725000,2.75072509765625,18.610925674438477,0.8191768527030945,1.085974931716919
1782778857781734700,2.760734619140625,23.475589752197266,0.8849356174468994,0.17270565032958984
1782778857791713800,2.7707138671875,28.87332534790039,1.4810373783111572,-0.5599981546401978
1782778857801723600,2.7807236328125,32.0459098815918,2.409001588821411,-0.6083928346633911
1782778857811733500,2.7907333984375,32.28844451904297,3.5159130096435547,-0.2315877079963684
1782778857821712600,2.800712646484375,31.152660369873047,3.7415575981140137,0.5472019910812378
1782778857831722500,2.810722412109375,31.098331451416016,4.6305670738220215,2.2031474113464355
1782778857841732400,2.820732421875,34.101219177246094,4.799464225769043,4.010494709014893
1782778857851711700,2.830711669921875,38.165809631347656,4.461433410644531,4.40108585357666
1782778857861721300,2.840721435546875,40.56163024902344,4.016716003417969,3.9059481620788574
1782778857881710000,2.8607099609375,42.240806579589844,2.389775037765503,3.121119499206543
1782778857891720000,2.870719970703125,42.783409118652344,1.9254049062728882,4.357819080352783
1782778857901729800,2.880729736328125,43.931068420410156,1.808434009552002,7.036176681518555
1782778857911709200,2.890709228515625,45.37641906738281,2.203665256500244,8.676142692565918
1782778857921718800,2.90071875,43.240509033203125,2.4423470497131348,8.737401962280273
1782778857931728600,2.910728759765625,38.04764175415039,2.8045973777770996,7.977425575256348
1782778857941707800,2.920707763671875,32.06794738769531,3.274022340774536,6.55088996887207
1782778857951717600,2.930717529296875,26.282712936401367,3.8097329139709473,4.992663383483887
1782778857961727500,2.9407275390625,21.48002815246582,3.753412961959839,3.262113332748413
1782778857971737000,2.950737060546875,17.47160530090332,3.4863851070404053,1.9419981241226196
1782778857981716500,2.960716552734375,14.496832847595215,3.064485549926758,1.951986312866211
1782778857991726000,2.97072607421875,13.51568603515625,2.418807029724121,2.0744123458862305
1782778858001736000,2.98073583984375,14.936565399169922,1.3224587440490723,2.095802068710327
1782778858011715000,2.990715087890625,16.454425811767578,0.2514288127422333,0.9799991846084595
1782778858021725000,3.000724853515625,17.447399139404297,-0.8893027901649475,-0.5237419605255127
1782778858031734800,3.01073486328125,18.25027084350586,-1.507980227470398,-1.3114314079284668
1782778858041714000,3.0207138671875,18.73495864868164,-1.7146391868591309,-1.486729621887207
1782778858051723800,3.030723876953125,18.54427146911621,-1.347785472869873,-0.8985303640365601
1782778858061733600,3.040733642578125,17.681467056274414,-0.7309295535087585,0.029584765434265137
1782778858071712800,3.050712646484375,16.453956604003906,0.206923708319664,1.3308663368225098
1782778858081722600,3.06072265625,14.320344924926758,0.6666268706321716,1.7775440216064453
1782778858091732200,3.070732177734375,12.0867338180542,0.6377952694892883,0.30871760845184326
1782778858101711400,3.08071142578125,10.316145896911621,0.6038373708724976,0.5464907288551331
1782778858111721200,3.09072119140625,8.619799613952637,0.8137547373771667,0.4432186782360077
1782778858121731000,3.10073095703125,7.4708099365234375,0.8523044586181641,-0.2715529799461365
1782778858131710200,3.110710205078125,6.995182991027832,0.6412712931632996,-0.6371622681617737
1782778858141720000,3.120719970703125,7.418178081512451,0.5768200159072876,-0.8694010972976685
1782778858151730000,3.13072998046875,8.118378639221191,0.7260227203369141,-0.4816150665283203
1782778858161709000,3.140708984375,8.711538314819336,0.8616586327552795,0.2931559383869171
1782778858171614500,3.150614501953125,9.355825424194336,0.9484440088272095,0.717495858669281
1782778858181728500,3.160728515625,10.522603034973145,0.9407702684402466,0.6600983738899231
1782778858191707600,3.170707763671875,10.97867202758789,0.705062210559845,0.6107970476150513
1782778858201281000,3.180281005859375,11.247675895690918,0.4537600576877594,0.21740545332431793
1782778858211727400,3.190727294921875,11.123603820800781,0.15305471420288086,-0.21424585580825806
1782778858221737200,3.2007373046875,11.082645416259766,-0.1553310751914978,-0.7950187921524048
1782778858231716400,3.21071630859375,11.069561004638672,-0.4110707938671112,-1.172271728515625
1782778858241835500,3.22083544921875,11.137272834777832,-0.5099037885665894,-1.3316779136657715
1782778858251705600,3.23070556640625,11.407991409301758,-0.5019608736038208,-1.191218376159668
1782778858261715200,3.240715087890625,11.43165397644043,-0.5447925329208374,-1.0309031009674072
1782778858271724800,3.250724853515625,11.277663230895996,-0.5375897288322449,-0.8546129465103149
1782778858281569300,3.2605693359375,10.934012413024902,-0.37612470984458923,-0.4991832971572876
1782778858291713800,3.2707138671875,10.26179313659668,-0.17055529356002808,0.04613292217254639
1782778858301723600,3.2807236328125,9.912130355834961,0.0777280330657959,0.2960788905620575
1782778858311733500,3.2907333984375,9.772819519042969,0.12234780192375183,0.25071385502815247
1782778858321865200,3.300865234375,10.270288467407227,0.16631194949150085,-0.0049825310707092285
1782778858331722500,3.310722412109375,11.732809066772461,0.03455990552902222,-0.07721120119094849
1782778858341732400,3.320732421875,14.301887512207031,-0.11875182390213013,0.10676974058151245
1782778858351711500,3.33071142578125,15.874502182006836,-0.30296164751052856,0.3003764748573303
1782778858361721300,3.340721435546875,15.900640487670898,-0.3945644497871399,0.6802234649658203
1782778858371731000,3.35073095703125,15.422708511352539,-0.0495908260345459,1.139617919921875
1782778858381710300,3.36071044921875,16.19330596923828,0.4747326970100403,1.56343412399292
1782778858391720000,3.370719970703125,18.453327178955078,1.099513053894043,1.511677622795105
1782778858401729800,3.380729736328125,21.585113525390625,1.0276122093200684,0.2795417308807373
1782778858411709000,3.390708984375,24.37384033203125,1.6189953088760376,-1.6427757740020752
1782778858421718800,3.40071875,25.244110107421875,2.2911765575408936,-1.8674952983856201
1782778858441707800,3.420707763671875,29.881534576416016,4.128381729125977,2.799306869506836
1782778858451717600,3.430717529296875,34.09830856323242,3.665098190307617,3.1355624198913574
1782778858461667800,3.440667724609375,38.847251892089844,2.9704904556274414,2.8699257373809814
1782778858471798300,3.45079833984375,41.16315460205078,2.7441391944885254,2.824937105178833
1782778858481656600,3.460656494140625,42.01846694946289,3.008063316345215,4.043433666229248
1782778858491787000,3.470787109375,43.067378997802734,3.0315141677856445,5.441463470458984
1782778858501736000,3.48073583984375,43.56431579589844,2.6376614570617676,5.751032829284668
1782778858511715000,3.490715087890625,45.00160598754883,2.583103895187378,6.779458045959473
1782778858521725000,3.500724853515625,47.30538558959961,2.6913766860961914,8.210529327392578
1782778858531675100,3.510675048828125,48.771629333496094,2.2606751918792725,9.06706714630127
1782778858542654200,3.521654296875,47.449947357177734,1.7884163856506348,8.230968475341797
1782778858561733600,3.540733642578125,36.925113677978516,2.5253889560699463,6.520452976226807
1782778858571712800,3.550712646484375,30.53135108947754,2.780271291732788,4.896414279937744
1782778858581722600,3.56072265625,24.49913787841797,3.0651772022247314,3.4004859924316406
1782778858591732200,3.570732177734375,19.857051849365234,3.4604685306549072,2.7281765937805176
1782778858601711600,3.580711669921875,16.61859703063965,3.421055316925049,2.0181093215942383
1782778858611721200,3.59072119140625,14.382875442504883,2.975572109222412,0.857940673828125
1782778858621731000,3.60073095703125,13.112091064453125,2.1395821571350098,-0.6171261072158813
1782778858631710200,3.610710205078125,13.687410354614258,1.3392640352249146,-1.9096347093582153
1782778858641720000,3.620719970703125,15.283729553222656,0.5474528670310974,-2.8122477531433105
1782778858651730000,3.63072998046875,16.102048873901367,-0.047882258892059326,-3.4528374671936035
1782778858661709300,3.640709228515625,15.956350326538086,-0.32146841287612915,-3.6817564964294434
1782778858671719000,3.650718994140625,15.435157775878906,-0.1855379343032837,-3.5836353302001953
1782778858681728500,3.660728515625,14.658185005187988,0.24350503087043762,-2.6803789138793945
1782778858691707600,3.670707763671875,13.144275665283203,0.9401059150695801,-1.8828487396240234
1782778858701717500,3.680717529296875,11.228124618530273,1.1208884716033936,-1.8395030498504639
1782778858711727400,3.690727294921875,8.935477256774902,1.231044054031372,-1.8940404653549194
1782778858721737200,3.7007373046875,6.914935111999512,1.3489060401916504,-1.7111505270004272
1782778858731716400,3.71071630859375,5.088006019592285,1.4988164901733398,-1.6952075958251953
1782778858741726200,3.720726318359375,4.066893100738525,1.2229371070861816,-2.040760040283203
1782778858751736000,3.730736083984375,4.181960582733154,0.9714629054069519,-2.613697052001953
1782778858761715200,3.740715087890625,4.712195873260498,0.8532607555389404,-2.875235080718994
1782778858771724800,3.750724853515625,5.7013654708862305,0.792149543762207,-2.528013229370117
1782778858781734700,3.760734619140625,7.163693428039551,0.4662746787071228,-2.506415367126465
1782778858791713800,3.7707138671875,8.918560981750488,0.21514225006103516,-2.927669048309326
1782778858801723600,3.7807236328125,9.985078811645508,-0.008019804954528809,-3.1483449935913086
1782778858811733500,3.7907333984375,10.524067878723145,-0.2705575227737427,-3.116489887237549
1782778858821712600,3.800712646484375,10.680920600891113,-0.4496943950653076,-3.3193984031677246
1782778858831722500,3.810722412109375,10.695034980773926,-0.48328888416290283,-3.177860975265503
1782778858841732400,3.820732421875,10.665033340454102,-0.3659118413925171,-2.6522207260131836
1782778858851711700,3.830711669921875,10.684627532958984,-0.13348889350891113,-2.0449302196502686
1782778858861721300,3.840721435546875,10.775586128234863,0.09481608867645264,-1.6199562549591064
1782778858871839500,3.850839599609375,10.803768157958984,0.18337535858154297,-1.701906681060791
1782778858881710300,3.86071044921875,10.412261009216309,0.5608540177345276,-1.1412036418914795
1782778858891720000,3.870719970703125,9.978876113891602,0.9521790742874146,-0.300032377243042
1782778858901729800,3.880729736328125,9.755335807800293,1.1543257236480713,0.019711315631866455
1782778858911709000,3.890708984375,9.90492057800293,0.9767225384712219,-0.23860639333724976
1782778858921492200,3.9004921875,10.579004287719727,1.0128982067108154,-0.39470016956329346
1782778858931728600,3.910728759765625,10.846589088439941,0.8559768199920654,-0.4230373799800873
1782778858941707800,3.920707763671875,11.262051582336426,0.9951561689376831,0.07643097639083862
1782778858951717600,3.930717529296875,12.340248107910156,0.7730004191398621,-0.1119680404663086
1782778858961727500,3.9407275390625,14.038161277770996,0.3133206367492676,-0.9379008412361145
1782778858971737000,3.950737060546875,15.716621398925781,0.3168938159942627,-0.8487790822982788
1782778858981716500,3.960716552734375,17.252504348754883,0.7226818203926086,0.49406003952026367
1782778858991726000,3.97072607421875,19.695762634277344,1.195976972579956,0.9685661792755127
1782778859001736000,3.98073583984375,21.746910095214844,2.2153820991516113,1.0451282262802124
1782778859011715000,3.990715087890625,23.564620971679688,2.9654691219329834,-0.05254924297332764
1782778859021725000,4.000724853515625,25.540931701660156,3.9806008338928223,-2.5796291828155518
1782778859031734800,4.01073486328125,27.38611602783203,5.328503608703613,-3.8273415565490723
1782778859041714200,4.020714111328125,27.754596710205078,6.732789039611816,-2.8690009117126465
1782778859051723800,4.030723876953125,28.797378540039062,8.673530578613281,-0.015986919403076172
1782778859061733600,4.040733642578125,31.73635482788086,9.804966926574707,2.4480104446411133
1782778859081722600,4.06072265625,38.86438751220703,6.244379997253418,1.4073576927185059
1782778859091732200,4.070732177734375,42.86850357055664,4.681017875671387,2.5463621616363525
1782778859101711600,4.080711669921875,49.57272720336914,3.3740315437316895,5.321971893310547
1782778859111721200,4.09072119140625,56.030696868896484,1.6441489458084106,5.766131401062012
1782778859121671400,4.10067138671875,56.44415283203125,1.5679889917373657,5.8575592041015625
1782778859131801900,4.1108017578125,49.51988220214844,2.764893054962158,7.238358974456787
1782778859141720000,4.120719970703125,39.80641174316406,4.956453323364258,9.124159812927246
1782778859151730000,4.13072998046875,32.263248443603516,6.721992492675781,9.074445724487305
1782778859161709000,4.140708984375,27.00183868408203,7.741701602935791,8.070703506469727
1782778859171719000,4.150718994140625,23.516155242919922,7.9456305503845215,7.1879472732543945
1782778859181728800,4.160728759765625,21.420818328857422,7.304263591766357,5.993977069854736
1782778859191707600,4.170707763671875,19.743989944458008,6.099262714385986,4.097490310668945
1782778859201717500,4.180717529296875,18.952293395996094,4.768013954162598,2.1433849334716797
1782778859211727400,4.190727294921875,19.722076416015625,3.2356386184692383,0.09702914953231812
1782778859221737200,4.2007373046875,21.059669494628906,2.120821475982666,-1.2479407787322998
1782778859231716400,4.21071630859375,21.361373901367188,1.70928156375885,-1.5831358432769775
1782778859241726200,4.220726318359375,19.750751495361328,1.8109757900238037,-0.5624562501907349
1782778859251736000,4.230736083984375,17.247385025024414,2.125465154647827,0.7639599442481995
1782778859261715200,4.240715087890625,14.801626205444336,2.6438634395599365,1.6786820888519287
1782778859271725000,4.25072509765625,12.124399185180664,3.0537919998168945,1.862255334854126
1782778859281734700,4.260734619140625,10.428238868713379,3.1525893211364746,1.7147111892700195
1782778859291713800,4.2707138671875,9.249505043029785,3.3943991661071777,0.7203754186630249
1782778859301723600,4.2807236328125,8.399405479431152,3.826221227645874,0.7059569954872131
1782778859311733500,4.2907333984375,7.703114986419678,3.774704933166504,1.3291709423065186
1782778859321712600,4.300712646484375,7.236545562744141,3.8356375694274902,0.9156235456466675
1782778859331722500,4.310722412109375,6.830325126647949,3.5174994468688965,0.6824021339416504
1782778859341732400,4.320732421875,6.620233535766602,3.264575958251953,0.26864680647850037
1782778859351711700,4.330711669921875,6.398533821105957,2.9963841438293457,-0.3961428999900818
1782778859361721300,4.340721435546875,6.333970069885254,2.3441524505615234,-1.3383475542068481
1782778859371731000,4.35073095703125,6.385364532470703,1.7017691135406494,-2.2995493412017822
1782778859381710300,4.36071044921875,7.00742244720459,1.2782719135284424,-3.0406246185302734
1782778859391720000,4.370719970703125,7.878236770629883,0.9199596643447876,-3.272913694381714
1782778859401729800,4.380729736328125,8.84917163848877,0.7594783306121826,-3.2012343406677246
1782778859411709200,4.390709228515625,9.923501968383789,0.6475058794021606,-2.988431692123413
1782778859421718800,4.40071875,10.821874618530273,0.5575332641601562,-2.647210121154785
1782778859431728600,4.410728759765625,11.257842063903809,0.5472321510314941,-2.2871460914611816
1782778859441648400,4.4206484375,11.15556526184082,0.6968196630477905,-2.0875487327575684
1782778859451749600,4.43074951171875,10.691390991210938,0.780975341796875,-1.6462411880493164
1782778859463282700,4.44228271484375,9.95854377746582,0.826880931854248,-1.1931960582733154
1782778859482097000,4.461096923828125,8.75398063659668,1.0539920330047607,-0.6973304748535156
1782778859492106800,4.471106689453125,8.626545906066895,1.1494745016098022,-0.34364554286003113
1782778859502178600,4.481178466796875,8.723387718200684,1.2269740104675293,0.12131959199905396
1782778859512187400,4.4911875,8.874619483947754,1.0563888549804688,0.6296021938323975
1782778859522105300,4.501105224609375,8.907350540161133,1.0185247659683228,1.1575905084609985
1782778859532163300,4.511163330078125,9.228338241577148,0.9947316646575928,1.9939004182815552
1782778859542094300,4.52109423828125,9.84292984008789,0.9197689890861511,2.9371097087860107
1782778859552044500,4.53104443359375,10.497453689575195,0.7141698598861694,3.542142152786255
1782778859562175000,4.541175048828125,11.05999755859375,0.5666381120681763,3.985703229904175
1782778859572033500,4.551033447265625,12.09805679321289,0.12139379978179932,3.74428653717041
1782778859582821600,4.561821533203125,13.861051559448242,-0.17174243927001953,3.7111711502075195
1782778859602022400,4.5810224609375,18.330028533935547,-0.2736097574234009,3.434023141860962
1782778859612162800,4.591162841796875,22.09724998474121,-0.3557664155960083,2.9370439052581787
1782778859622111500,4.601111572265625,25.292098999023438,0.15309929847717285,2.046628713607788
1782778859632090600,4.611090576171875,27.40378761291504,1.2215816974639893,2.0409843921661377
1782778859642100500,4.6211005859375,26.832237243652344,2.067154884338379,2.418668746948242
1782778859652110300,4.6311103515625,25.109493255615234,4.29111385345459,3.350928544998169
1782778859662089500,4.64108935546875,24.5905818939209,6.973729610443115,5.162927150726318
1782778859672099300,4.651099365234375,27.088287353515625,7.287080764770508,6.71086311340332
1782778859682109000,4.66110888671875,32.83623504638672,6.0224175453186035,4.854133605957031
1782778859692088300,4.67108837890625,40.43551254272461,4.215145111083984,2.4152109622955322
1782778859702098000,4.681097900390625,45.0591926574707,2.761230230331421,2.5260331630706787
1782778859712107800,4.691107666015625,48.76302719116211,1.447749137878418,5.223977565765381
1782778859722117600,4.70111767578125,53.00067901611328,1.185178279876709,8.987934112548828
1782778859732096800,4.7110966796875,56.20465087890625,1.9434629678726196,12.424718856811523
1782778859742106600,4.721106689453125,55.950279235839844,2.438477039337158,13.372199058532715
1782778859752116500,4.731116455078125,51.184898376464844,2.5050199031829834,11.706541061401367
1782778859762095600,4.741095703125,43.46839904785156,2.791376829147339,9.579758644104004
1782778859772045800,4.7510458984375,36.296661376953125,3.563469648361206,8.064064025878906
1782778859783465000,4.76246484375,30.432952880859375,4.297330856323242,6.061733722686768
1782778859802104300,4.781104248046875,23.01360321044922,4.875730514526367,4.267658233642578
1782778859812114000,4.791114013671875,19.852294921875,4.4382476806640625,3.877182960510254
1782778859822093000,4.801093017578125,17.578571319580078,3.9657862186431885,3.6394853591918945
1782778859832103000,4.81110302734375,16.96186637878418,3.0990397930145264,3.6900486946105957
1782778859842112800,4.82111279296875,17.65554428100586,2.1147990226745605,3.1743552684783936
1782778859852092000,4.831091796875,18.605789184570312,1.0836598873138428,2.0896034240722656
1782778859862101800,4.841101806640625,18.825355529785156,0.3413618803024292,0.7377611398696899
1782778859872111600,4.851111572265625,18.186893463134766,-0.32735422253608704,-0.4317219853401184
1782778859882090800,4.8610908203125,16.355117797851562,-0.6709383130073547,-1.0895750522613525
1782778859892100600,4.8711005859375,14.016881942749023,-0.5727659463882446,-1.158509373664856
1782778859902110200,4.881110107421875,11.552373886108398,-0.047718048095703125,-0.8388714790344238
1782778859912089300,4.89108935546875,9.520533561706543,0.3407038450241089,-1.2080278396606445
1782778859922099200,4.90109912109375,7.457162857055664,0.6688172817230225,0.26925262808799744
1782778859932109000,4.911109130859375,5.606359481811523,1.399670124053955,0.22344063222408295
1782778859943223800,4.922223876953125,3.8204307556152344,1.6567096710205078,-0.3165661692619324
1782778859962048300,4.94104833984375,2.351759910583496,1.5906236171722412,-1.759819746017456
1782778859972178700,4.9511787109375,2.1722354888916016,1.5002822875976562,-2.2825896739959717
1782778859982097000,4.961096923828125,2.7077713012695312,1.3753297328948975,-2.59442400932312
1782778859992106800,4.971106689453125,3.844876289367676,1.3170863389968872,-2.3746469020843506
1782778860002116400,4.981116455078125,5.425132751464844,1.1911051273345947,-2.053252935409546
1782778860012095500,4.991095458984375,7.2007670402526855,0.9069273471832275,-2.0866737365722656
1782778860022105300,5.001105224609375,8.72488784790039,0.572925865650177,-2.5653867721557617
1782778860032115200,5.011115234375,9.94345760345459,0.21857374906539917,-2.7242021560668945
1782778860042094300,5.02109423828125,10.821317672729492,0.12503337860107422,-2.3161776065826416
1782778860052104200,5.031104248046875,11.304868698120117,0.11587303876876831,-2.090534210205078
1782778860062114000,5.041114013671875,11.482353210449219,0.3524641990661621,-1.6270532608032227
1782778860072019200,5.051019287109375,11.411175727844238,0.2871425747871399,-1.486004114151001
1782778860082103000,5.06110302734375,11.221029281616211,0.5442444086074829,-1.1972944736480713
1782778860092112600,5.071112548828125,10.730332374572754,0.6629597544670105,-0.8947075605392456
1782778860102092000,5.081092041015625,9.587350845336914,0.5343610644340515,-1.1226222515106201
1782778860112101600,5.0911015625,8.83845329284668,0.656517744064331,-1.09645676612854
1782778860122172400,5.10117236328125,8.340974807739258,0.5545529127120972,-1.1334282159805298
1782778860132200000,5.111199951171875,8.131319046020508,0.2826242446899414,-1.2901198863983154
1782778860142100500,5.1211005859375,8.652767181396484,0.02087259292602539,-1.5210283994674683
1782778860152110300,5.1311103515625,9.541926383972168,0.04669708013534546,-1.1587879657745361
1782778860162198800,5.14119873046875,11.152822494506836,0.23858243227005005,-0.47678399085998535
1782778860172099300,5.151099365234375,12.987009048461914,0.37615662813186646,0.06616175174713135
1782778860182109200,5.161109130859375,14.715482711791992,0.46640583872795105,0.9474312663078308
1782778860192088300,5.17108837890625,18.312833786010742,0.1458713412284851,1.967073678970337
1782778860202098000,5.181097900390625,22.38845443725586,-0.5257228016853333,2.1735966205596924
1782778860212107800,5.191107666015625,27.305419921875,-1.0500212907791138,0.13712501525878906
1782778860222117600,5.20111767578125,31.334579467773438,-1.5218112468719482,-4.643715858459473
1782778860232096800,5.2110966796875,31.406694412231445,-0.8422840237617493,-6.896242141723633
1782778860242106600,5.221106689453125,28.662797927856445,1.702027440071106,-4.238173007965088
1782778860252116500,5.231116455078125,24.980709075927734,4.80523157119751,0.9477425217628479
1782778860262095600,5.241095703125,26.270936965942383,7.087174415588379,3.687063694000244
1782778860282115000,5.261114990234375,35.616268157958984,5.137510776519775,3.8182661533355713
1782778860292094500,5.271094482421875,39.62276840209961,4.767293453216553,4.650107383728027
1782778860302104300,5.281104248046875,42.62007141113281,4.139370441436768,5.7592573165893555
1782778860312114000,5.291114013671875,47.69491195678711,2.5383400917053223,6.395656585693359
1782778860322093000,5.301093017578125,51.957794189453125,1.7025113105773926,6.6585164070129395
1782778860332103000,5.31110302734375,51.64595031738281,1.620739459991455,7.027428150177002
1782778860342112800,5.32111279296875,46.78738021850586,2.085850477218628,7.769515037536621
1782778860352092200,5.331092041015625,40.30900573730469,2.9720849990844727,8.721400260925293
1782778860362101800,5.341101806640625,35.16558074951172,4.376460552215576,9.430167198181152
1782778860372111600,5.351111572265625,31.930316925048828,5.242345809936523,9.127735137939453
1782778860382090800,5.3610908203125,29.125429153442383,5.612087726593018,7.776913166046143
1782778860392100600,5.3711005859375,26.165653228759766,5.371798515319824,5.665316104888916
1782778860402110200,5.381110107421875,23.294551849365234,5.013360023498535,3.6916048526763916
1782778860412089600,5.391089599609375,20.318058013916016,4.769532680511475,2.6059985160827637
1782778860422099200,5.40109912109375,17.444725036621094,4.436771392822266,2.572265863418579
1782778860432109000,5.411109130859375,16.064109802246094,3.84435772895813,1.9440213441848755
1782778860442088400,5.42108837890625,16.03337860107422,3.1292061805725098,0.9512275457382202
1782778860452098000,5.43109814453125,16.516189575195312,2.8856654167175293,0.7291945815086365
1782778860462108000,5.44110791015625,17.537702560424805,2.6385116577148438,0.7312380075454712
1782778860472117800,5.45111767578125,17.57440185546875,2.63688063621521,0.5228830575942993
1782778860482097000,5.461096923828125,16.038379669189453,3.074155807495117,1.1486693620681763
1782778860492106800,5.471106689453125,13.946218490600586,3.4223408699035645,1.6428346633911133
1782778860502116400,5.481116455078125,11.71658706665039,3.506819725036621,1.394249439239502
1782778860512095500,5.491095458984375,9.624492645263672,3.3951401710510254,0.6316244602203369
1782778860522105300,5.501105224609375,7.52646541595459,2.9391260147094727,-0.5628733038902283
1782778860532115200,5.511115234375,5.830118179321289,2.516874313354492,-1.6800998449325562
1782778860542094300,5.52109423828125,4.590153217315674,2.300248146057129,-2.6582672595977783
1782778860552104200,5.531104248046875,3.8993210792541504,2.0632107257843018,-2.2853641510009766
1782778860562114000,5.541114013671875,3.6632471084594727,1.993862509727478,-2.3501217365264893
1782778860572093200,5.55109326171875,3.7083287239074707,1.7184945344924927,-2.7595510482788086
1782778860582103000,5.56110302734375,4.17678165435791,1.352606177330017,-3.0338099002838135
1782778860592112600,5.571112548828125,5.166928291320801,1.0904250144958496,-3.0504074096679688
1782778860602092000,5.581092041015625,6.537344932556152,0.7420729994773865,-3.009140729904175
1782778860612101600,5.5911015625,7.583200454711914,0.49215948581695557,-3.101552724838257
1782778860622111500,5.601111572265625,8.26448917388916,0.3338249921798706,-3.0944910049438477
1782778860632090600,5.611090576171875,8.992295265197754,0.04286801815032959,-3.277465343475342
1782778860642100500,5.6211005859375,10.046552658081055,-0.12184369564056396,-3.21685791015625
1782778860652110300,5.6311103515625,10.919438362121582,0.00602269172668457,-2.808444023132324
1782778860662089700,5.64108984375,11.67667007446289,0.268452525138855,-2.19972562789917
1782778860672099300,5.651099365234375,11.567526817321777,0.4801775813102722,-1.8318058252334595
1782778860682109200,5.661109130859375,10.473616600036621,0.6975892186164856,-1.7532318830490112
1782778860692207600,5.67120751953125,9.221007347106934,1.023069977760315,-1.5164703130722046
1782778860702098000,5.681097900390625,8.137045860290527,1.1058924198150635,-1.2699377536773682
1782778860712107800,5.691107666015625,7.903233528137207,1.1055238246917725,-1.1561425924301147
1782778860721830400,5.700830322265625,8.461284637451172,0.9687427878379822,-1.3127754926681519
1782778860732096800,5.7110966796875,9.275028228759766,0.6437520980834961,-1.3180420398712158
1782778860742106600,5.721106689453125,10.798980712890625,0.4225130081176758,-0.7217302322387695
1782778860752116500,5.731116455078125,14.174909591674805,0.4699087142944336,-0.15002113580703735
1782778860762095600,5.741095703125,16.79349708557129,0.4470488131046295,0.30658143758773804
1782778860772105500,5.75110546875,17.778175354003906,0.33050763607025146,0.46456754207611084
1782778860782115300,5.761115234375,20.056364059448242,-0.08586424589157104,0.5858229994773865
1782778860792094500,5.771094482421875,23.767742156982422,-0.13882213830947876,0.10886591672897339
1782778860802104300,5.781104248046875,27.277708053588867,-0.5143114328384399,-0.9242807030677795
1782778860812114000,5.791114013671875,29.73275375366211,-0.7860602736473083,-2.3936614990234375
1782778860822093000,5.801093017578125,30.070545196533203,-0.05354875326156616,-3.004009246826172
1782778860842112800,5.82111279296875,28.540815353393555,2.0794198513031006,0.8629540205001831
1782778860852092200,5.831092041015625,31.18010711669922,2.660627841949463,0.9765939712524414
1782778860862101800,5.841101806640625,35.2938232421875,2.122056484222412,0.2516704797744751
1782778860872111600,5.851111572265625,39.100555419921875,1.388765573501587,-0.2652536630630493
1782778860882090800,5.8610908203125,41.47527313232422,1.467756748199463,0.0736168622970581
1782778860892100600,5.8711005859375,42.1291618347168,1.9607341289520264,0.4037727117538452
1782778860902110200,5.881110107421875,41.78563690185547,1.8505809307098389,1.0139816999435425
1782778860912089600,5.891089599609375,40.36977005004883,2.7444839477539062,4.484649658203125
1782778860922099200,5.90109912109375,38.68550491333008,3.9169745445251465,9.231436729431152
1782778860932109000,5.911109130859375,39.118682861328125,4.4965057373046875,11.177154541015625
1782778860942088400,5.92108837890625,41.01054382324219,4.333194732666016,10.555910110473633
1782778860952098000,5.93109814453125,41.814056396484375,3.2805209159851074,7.243619441986084
1782778860962108000,5.94110791015625,39.507022857666016,2.60870361328125,3.366924285888672
1782778860972117800,5.95111767578125,37.01628875732422,2.3909573554992676,0.9662489295005798
1782778860982097000,5.961096923828125,34.0391845703125,2.3590891361236572,-0.2245272994041443
1782778860992106800,5.971106689453125,30.064720153808594,2.954671859741211,0.15694892406463623
1782778861002116400,5.981116455078125,25.227680206298828,3.2764527797698975,1.0757851600646973
1782778861012095500,5.991095458984375,20.271421432495117,3.2855277061462402,1.3094793558120728
1782778861022105300,6.001105224609375,16.694711685180664,3.076709747314453,1.5561580657958984
1782778861032115200,6.011115234375,15.336402893066406,2.7172443866729736,1.8960239887237549
1782778861042094300,6.02109423828125,15.186594009399414,2.1757586002349854,1.5101425647735596
1782778861052104200,6.031104248046875,14.803484916687012,1.1992634534835815,0.07737141847610474
1782778861062114000,6.041114013671875,14.085824012756348,0.14992249011993408,-1.6836295127868652
1782778861072093200,6.05109326171875,14.20977783203125,-0.5464740991592407,-3.9053235054016113
1782778861082103000,6.06110302734375,13.375397682189941,-0.5107017755508423,-4.640843391418457
1782778861092112600,6.071112548828125,12.690189361572266,0.2108445167541504,-3.5783281326293945
1782778861102092000,6.081092041015625,10.52649974822998,1.8968265056610107,-2.389705181121826
1782778861112101600,6.0911015625,8.212357521057129,2.0656309127807617,-0.44830387830734253
1782778861122111500,6.101111572265625,6.672430515289307,2.840740203857422,-0.8191274404525757
1782778861132090600,6.111090576171875,5.5023698806762695,2.9951441287994385,-1.4825326204299927
1782778861142100500,6.1211005859375,3.667267322540283,2.7710561752319336,-2.5892419815063477
1782778861152110300,6.1311103515625,3.1734957695007324,2.783018112182617,-3.116956949234009
1782778861162089700,6.14108984375,4.05636739730835,2.9977970123291016,-3.4837183952331543
1782778861172099300,6.151099365234375,4.539609432220459,2.6704931259155273,-4.455732345581055
1782778861182109200,6.161109130859375,4.538708686828613,2.340236186981201,-4.734057903289795
1782778861192088300,6.17108837890625,4.34792423248291,2.3225061893463135,-4.616032600402832
1782778861202098200,6.18109814453125,4.539146423339844,1.9386740922927856,-4.82928466796875
1782778861212107800,6.191107666015625,5.544507026672363,1.8517667055130005,-3.751375913619995
1782778861222117600,6.20111767578125,7.600019931793213,2.0900349617004395,-1.8804682493209839
1782778861232096800,6.2110966796875,10.535197257995605,2.1683754920959473,-1.11122465133667
1782778861242106600,6.221106689453125,12.70765209197998,1.4449565410614014,-2.207153558731079
1782778861252116500,6.231116455078125,13.204418182373047,0.929620087146759,-3.8481922149658203
1782778861262095600,6.241095703125,12.074773788452148,0.6101122498512268,-4.516825199127197
1782778861272105500,6.25110546875,10.372854232788086,0.5314960479736328,-4.5733489990234375
1782778861282115300,6.261115234375,8.324933052062988,1.0461647510528564,-3.4754538536071777
1782778861292094500,6.271094482421875,6.9669904708862305,1.2531527280807495,-2.5662014484405518
1782778861302104300,6.281104248046875,6.501601219177246,1.5881156921386719,-1.783065915107727
1782778861312114000,6.291114013671875,6.915286064147949,1.7535494565963745,-1.0693163871765137
1782778861322093000,6.301093017578125,7.848921775817871,1.4536147117614746,-0.9860445857048035
1782778861332103000,6.31110302734375,9.289299011230469,1.2735483646392822,-1.4509072303771973
1782778861342112800,6.32111279296875,10.202753067016602,1.1620982885360718,-1.4358333349227905
1782778861352092200,6.331092041015625,10.960236549377441,0.7851666212081909,-1.6783853769302368
1782778861362101800,6.341101806640625,11.62503719329834,0.5722687244415283,-2.2180309295654297
1782778861372111600,6.351111572265625,12.351922988891602,0.6174375414848328,-1.5314301252365112
1782778861382090800,6.3610908203125,13.996042251586914,0.7329768538475037,-0.5453963279724121
1782778861392100600,6.3711005859375,16.517765045166016,1.1257116794586182,0.6421202421188354
1782778861402110200,6.381110107421875,18.769819259643555,1.1220093965530396,0.874619722366333
1782778861412089600,6.391089599609375,22.327648162841797,1.227827787399292,-0.09790658950805664
1782778861422099200,6.40109912109375,26.504161834716797,1.573718547821045,-1.344409704208374
1782778861432109000,6.411109130859375,29.497684478759766,2.182694673538208,-2.229046583175659
1782778861442088400,6.42108837890625,29.931718826293945,2.942005157470703,-2.3290019035339355
1782778861452098000,6.43109814453125,27.97490692138672,3.5070090293884277,-1.8981696367263794
1782778861462108000,6.44110791015625,26.952674865722656,4.853222846984863,-0.11185002326965332
1782778861472057900,6.451057861328125,29.214900970458984,5.955341339111328,1.8000588417053223
1782778861482188500,6.4611884765625,31.691654205322266,5.76675271987915,2.341756582260132
1782778861492106800,6.471106689453125,33.803466796875,5.705498695373535,3.295175075531006
1782778861502056700,6.481056640625,36.584163665771484,6.015720367431641,4.071439743041992
1782778861512187400,6.4911875,37.86767578125,5.801644802093506,3.4292993545532227
1782778861522105300,6.501105224609375,37.287994384765625,4.998258113861084,2.8636505603790283
1782778861532115200,6.511115234375,37.17193603515625,4.781341552734375,3.78945255279541
1782778861542094300,6.52109423828125,37.55108642578125,5.034154415130615,5.47519063949585
1782778861552104200,6.531104248046875,38.92903137207031,4.887871742248535,5.785285472869873
1782778861562114000,6.541114013671875,40.373905181884766,4.155914306640625,4.664185523986816
1782778861572093200,6.55109326171875,41.089378356933594,3.820974588394165,3.029249668121338
1782778861582103000,6.56110302734375,38.858028411865234,4.224332809448242,1.598131775856018
1782778861592113000,6.57111279296875,34.25751495361328,4.671950817108154,1.5754601955413818
1782778861602092000,6.581092041015625,29.8523006439209,5.400816917419434,2.207099199295044
1782778861612101600,6.5911015625,25.59854507446289,5.58911657333374,1.8407591581344604
1782778861622111500,6.601111572265625,20.60204315185547,4.955875396728516,0.4469754695892334
1782778861632090600,6.611090576171875,17.252458572387695,4.304086685180664,-0.4215131998062134
1782778861642100500,6.6211005859375,17.527400970458984,4.472283363342285,-0.28739720582962036
1782778861652110300,6.6311103515625,17.164812088012695,2.683467149734497,0.49399566650390625
1782778861662089700,6.64108984375,14.279211044311523,2.832603693008423,-1.0350966453552246
1782778861672099300,6.651099365234375,13.489967346191406,2.1140780448913574,-0.320647269487381
1782778861682109200,6.661109130859375,16.49039077758789,1.3226544857025146,-0.5180147290229797
1782778861692088300,6.67108837890625,21.57464027404785,1.0711846351623535,-0.04849359393119812
1782778861702098200,6.68109814453125,26.460979461669922,0.4599412679672241,0.10648602247238159
1782778861712107800,6.691107666015625,27.797229766845703,0.5067312717437744,-0.8452937006950378
1782778861722058000,6.70105810546875,24.426517486572266,0.3094186782836914,-1.4738653898239136
1782778861732188400,6.7111884765625,18.476533889770508,0.6241203546524048,-1.849408507347107
1782778861742106600,6.721106689453125,13.429361343383789,1.234102487564087,-1.8799207210540771
1782778861752116500,6.731116455078125,9.260162353515625,2.3648338317871094,-1.1562579870224
1782778861762036000,6.741035888671875,5.928901672363281,2.997640371322632,-0.0030035972595214844
1782778861772166400,6.75116650390625,3.450063705444336,3.3532352447509766,-0.20966440439224243
1782778861782115300,6.761115234375,2.028064250946045,3.188718557357788,-1.0980364084243774
1782778861792034600,6.77103466796875,2.284414768218994,2.815774917602539,-1.6905380487442017
1782778861802165200,6.781165283203125,3.844979763031006,2.702082872390747,-1.3661813735961914
1782778861812114000,6.791114013671875,5.382136821746826,2.366696834564209,-1.1396063566207886
1782778861821972500,6.800972412109375,6.384670257568359,2.0032734870910645,-1.4502143859863281
1782778861832194600,6.811194580078125,7.379070281982422,1.5831284523010254,-1.7569949626922607
1782778861842112800,6.82111279296875,8.449016571044922,1.2371547222137451,-1.8639285564422607
1782778861852092200,6.831092041015625,9.120235443115234,1.105987310409546,-1.8445509672164917
1782778861862101800,6.841101806640625,9.33956527709961,0.8287341594696045,-1.577672004699707
1782778861871975700,6.8509755859375,9.734210014343262,0.7007402181625366,-1.6212832927703857
1782778861882090800,6.8610908203125,10.54171371459961,0.7444114089012146,-1.1136184930801392
1782778861892040700,6.871040771484375,11.51712703704834,0.7548801898956299,-0.8519436120986938
1782778861902551800,6.8815517578125,12.477615356445312,0.8415786027908325,-0.9588021039962769
1782778861912120000,6.8911201171875,12.728018760681152,0.8156940340995789,-1.2514506578445435
1782778861922039600,6.90103955078125,12.592958450317383,0.7042717337608337,-1.5550042390823364
1782778861932170200,6.911170166015625,13.000507354736328,1.017006278038025,-1.3642370700836182
1782778861942088400,6.92108837890625,12.821134567260742,1.3083624839782715,-0.6599115133285522
1782778861952098000,6.93109814453125,12.908881187438965,1.3837409019470215,-0.6627037525177002
1782778861962108000,6.94110791015625,13.050002098083496,1.3768588304519653,-1.2290620803833008
1782778861972117800,6.95111767578125,13.383940696716309,1.1977325677871704,-1.4505146741867065
1782778861982097000,6.961096923828125,14.562690734863281,1.5029988288879395,-1.229784369468689
1782778861992106800,6.971106689453125,16.18021011352539,1.7854588031768799,-0.8956011533737183
1782778862002116400,6.981116455078125,18.298770904541016,2.1566476821899414,-0.05185043811798096
1782778862012095500,6.991095458984375,21.144119262695312,2.41042423248291,-0.8000012636184692
1782778862022105300,7.001105224609375,23.4188289642334,2.8995816707611084,-2.1746506690979004
1782778862032115200,7.011115234375,23.84061050415039,3.4246280193328857,-3.849918842315674
1782778862042094300,7.02109423828125,23.74150848388672,5.030392169952393,-4.237959861755371
1782778862052104200,7.031104248046875,24.25811767578125,6.245129585266113,-2.9458703994750977
1782778862062114000,7.041114013671875,25.94057273864746,7.371163368225098,-1.3303076028823853
1782778862072093200,7.05109326171875,28.65904426574707,8.530105590820312,-1.0506086349487305
1782778862082103000,7.06110302734375,32.13306427001953,8.994829177856445,-0.15689027309417725
1782778862092112600,7.071112548828125,34.41563415527344,8.47463607788086,0.25838446617126465
1782778862102092000,7.081092041015625,35.29233169555664,8.841202735900879,0.27394795417785645
1782778862112101600,7.0911015625,34.28270721435547,9.19200611114502,1.6957578659057617
1782778862122111500,7.101111572265625,34.616050720214844,8.461398124694824,2.732787847518921
1782778862132090600,7.111090576171875,36.71263122558594,6.991428375244141,2.1980133056640625
1782778862142040800,7.121040771484375,38.386077880859375,6.27978515625,3.0135045051574707
1782778862152171300,7.131171142578125,41.196353912353516,6.397409439086914,4.853334426879883
1782778862162089700,7.14108984375,42.333229064941406,6.442601680755615,4.968923091888428
1782778862172099300,7.151099365234375,40.30013656616211,6.237194061279297,3.422430992126465
1782778862182109000,7.16110888671875,38.170616149902344,7.179978370666504,1.1055269241333008
1782778862192088300,7.17108837890625,30.439437866210938,6.810766696929932,-0.7967526912689209
1782778862202098200,7.18109814453125,28.797527313232422,5.626941680908203,-3.7632172107696533
1782778862212107800,7.191107666015625,28.152080535888672,4.955141067504883,-5.2625274658203125
1782778862222117600,7.20111767578125,25.871118545532227,5.288895130157471,-3.209636926651001
1782778862232096800,7.2110966796875,20.560522079467773,5.472846984863281,-1.0728856325149536
1782778862242106600,7.221106689453125,17.118736267089844,4.87257719039917,-1.367411494255066
1782778862252116500,7.231116455078125,14.412007331848145,4.838632106781006,-3.3182802200317383
1782778862262095600,7.241095703125,9.89785099029541,4.009410858154297,-2.4234232902526855
