time,seconds_elapsed,z,y,x
1782771897971838500,0.21083837890625,-0.030945777893066406,-0.0009202063083648682,0.0006453394889831543
1782771897981848300,0.220848388671875,-0.028551101684570312,-0.005708545446395874,0.010032444261014462
1782771897991858000,0.23085791015625,-0.04052257537841797,-0.020073693245649338,0.014641620218753815
1782771898001837300,0.24083740234375,-0.05010032653808594,-0.008102625608444214,0.00009657535701990128
1782771898011847200,0.25084716796875,-0.040526390075683594,0.009134102612733841,-0.011696104891598225
1782771898021856800,0.260856689453125,-0.04770851135253906,-0.007625363767147064,0.012245552614331245
1782771898031836200,0.270836181640625,-0.038130760192871094,-0.014867782592773438,0.014699975028634071
1782771898041846000,0.280845947265625,-0.028554916381835938,0.011528443545103073,0.017154762521386147
1782771898051855600,0.290855712890625,-0.062073707580566406,0.0020115599036216736,-0.0019386336207389832
1782771898061835000,0.3008349609375,-0.04292011260986328,-0.017142117023468018,0.014880521222949028
1782771898071844600,0.3108447265625,-0.06210803985595703,-0.009532373398542404,0.009323645383119583
1782771898081854500,0.3208544921875,-0.05492591857910156,-0.0023497678339481354,-0.0002531614154577255
1782771898091833600,0.33083349609375,-0.06689643859863281,0.0024984516203403473,-0.005041563883423805
1782771898101843500,0.340843505859375,-0.042954444885253906,-0.011926643550395966,-0.009769733995199203
1782771898111853000,0.35085302734375,-0.04774284362792969,0.002498399466276169,-0.009709581732749939
1782771898121832400,0.36083251953125,-0.05492591857910156,-0.0023500844836235046,0.007049828767776489
1782771898131842300,0.37084228515625,-0.04534912109375,-0.011867240071296692,-0.0024670090060681105
1782771898141852000,0.380851806640625,-0.05253124237060547,-0.0022904500365257263,0.0022609769366681576
1782771898151831300,0.390831298828125,-0.06689739227294922,0.00022342801094055176,-0.00013290462084114552
1782771898161841200,0.400841064453125,-0.06450271606445312,0.002557743340730667,-0.00007267319597303867
1782771898171850800,0.410850830078125,-0.06450271606445312,-0.0046846903860569,0.004775882698595524
1782771898181830100,0.420830078125,-0.05253124237060547,0.01680304855108261,-0.0024064001627266407
1782771898191839700,0.43083984375,-0.0716848373413086,-0.016656115651130676,-0.004800282418727875
1782771898201849600,0.440849609375,-0.059714317321777344,-0.004685092717409134,0.00004853983409702778
1782771898211828700,0.450828857421875,-0.059714317321777344,-0.011807862669229507,-0.002405491890385747
1782771898221838600,0.460838623046875,-0.05013847351074219,-0.009353768080472946,-0.00958841759711504
1782771898231848200,0.47084814453125,-0.0740804672241211,0.005071274936199188,-0.00958841759711504
1782771898242328000,0.481328125,-0.05013847351074219,0.005071278661489487,-0.019105128943920135
1782771898251837400,0.49083740234375,-0.08605194091796875,0.00034552812576293945,0.0023800383787602186
1782771898261847300,0.500847412109375,-0.06929302215576172,-0.009231287986040115,0.00004293094389140606
1782771898271857000,0.51085693359375,-0.06689834594726562,-0.011565636843442917,-0.0022911198902875185
1782771898281836000,0.5208359375,-0.059716224670410156,-0.0067171379923820496,-0.011928022839128971
1782771898291846000,0.530845947265625,-0.05253410339355469,-0.006657447665929794,-0.007079018279910088
1782771898301855500,0.54085546875,-0.047745704650878906,-0.0018690451979637146,0.00016368087381124496
1782771898311835000,0.5508349609375,-0.05732250213623047,0.007707763463258743,-0.004505057819187641
1782771898321844700,0.5608447265625,-0.08365821838378906,-0.00899173691868782,0.012314265593886375
1782771898331854300,0.570854248046875,-0.050140380859375,0.010221738368272781,0.00040372367948293686
1782771898341833700,0.580833740234375,-0.06450557708740234,-0.006537675857543945,0.01004062406718731
1782771898351843600,0.590843505859375,-0.06450557708740234,0.007887173444032669,0.005252222530543804
1782771898361853200,0.600853271484375,-0.06211090087890625,-0.013660605996847153,0.007707155775278807
1782771898371832300,0.610832275390625,-0.09084224700927734,0.0008841194212436676,-0.001809501787647605
1782771898381842200,0.62084228515625,-0.057323455810546875,0.008006837218999863,-0.006597589701414108
1782771898391851800,0.630851806640625,-0.050140380859375,-0.011206604540348053,0.0030390480533242226
1782771898401831200,0.6408310546875,-0.05492973327636719,0.008007105439901352,-0.008931641466915607
1782771898411841000,0.650841064453125,-0.06690120697021484,-0.015815582126379013,0.0030396811198443174
1782771898421850600,0.6608505859375,-0.07408428192138672,-0.015755493193864822,0.0029795896261930466
1782771898431830000,0.670830078125,-0.06211280822753906,0.0034579522907733917,0.002919754246249795
1782771898441839900,0.68083984375,-0.07408428192138672,-0.0037845633924007416,0.01740478165447712
1782771898451849700,0.690849609375,-0.07168960571289062,0.013034723699092865,0.012617009691894054
1782771898461828900,0.700828857421875,-0.07408428192138672,0.029734063893556595,-0.01126459613442421
1782771898471838500,0.71083837890625,-0.054930686950683594,-0.0013905428349971771,0.007889331318438053
1782771898481848000,0.72084814453125,-0.0764780044555664,-0.008573129773139954,0.005375256761908531
1782771898491858000,0.73085791015625,-0.0764780044555664,0.0010635331273078918,-0.01132400706410408
1782771898501837300,0.74083740234375,-0.06211280822753906,0.0059120431542396545,-0.0041410853154957294
1782771898511847200,0.75084716796875,-0.0764780044555664,-0.008453167974948883,0.0006473180837929249
1782771898521856800,0.760856689453125,-0.08126640319824219,-0.003664731979370117,-0.0041404543444514275
1782771898531836200,0.770836181640625,-0.07647895812988281,-0.0035450682044029236,-0.013717260211706161
1782771898541846000,0.780845947265625,-0.07647895812988281,-0.0011508427560329437,0.0053767552599310875
1782771898551855600,0.790855712890625,-0.05014324188232422,-0.015456221997737885,-0.006594252772629261
1782771898561835000,0.8008349609375,-0.07408523559570312,-0.008213486522436142,-0.0018653166480362415
1782771898571844600,0.8108447265625,-0.0788736343383789,-0.017849937081336975,0.0005288850516080856
1782771898581854500,0.8208544921875,-0.0788736343383789,-0.01060720905661583,0.0005295146256685257
1782771898591833600,0.83083349609375,-0.0812673568725586,0.001363806426525116,-0.0041990578174591064
1782771898601843500,0.840843505859375,-0.06929779052734375,0.0014237351715564728,0.014894955791532993
1782771898611853000,0.85085302734375,-0.081268310546875,0.0038179345428943634,-0.0018046246841549873
1782771898621832400,0.86083251953125,-0.07408523559570312,0.0013636499643325806,-0.01377563364803791
1782771898631842300,0.87084228515625,-0.06929779052734375,-0.00330541655421257,-0.001744352513924241
1782771898641852200,0.88085205078125,-0.06690311431884766,-0.005699604749679565,0.007832768373191357
1782771898651831300,0.890831298828125,-0.05253887176513672,-0.00312592089176178,0.0006501630414277315
1782771898661841200,0.900841064453125,-0.06451034545898438,-0.007974177598953247,-0.006531506776809692
1782771898671851000,0.91085107421875,-0.06451034545898438,0.006331201642751694,0.012741771526634693
1782771898681830100,0.920830078125,-0.07887554168701172,-0.005699891597032547,0.010347569361329079
1782771898691839700,0.93083984375,-0.081268310546875,-0.008153747767210007,0.01764947548508644
1782771898701849600,0.940849609375,-0.06451034545898438,-0.012882057577371597,0.017589382827281952
1782771898711828700,0.950828857421875,-0.07169246673583984,0.006271537393331528,-0.00868731364607811
1782771898721838600,0.960838623046875,-0.0836639404296875,0.006271563470363617,-0.0015043967869132757
1782771898731848400,0.970848388671875,-0.06451034545898438,0.01351415365934372,0.00807272270321846
1782771898741858000,0.980858154296875,-0.06211566925048828,0.008725754916667938,0.012861126102507114
1782771898751837400,0.99083740234375,-0.07887554168701172,-0.000791206955909729,0.008073033764958382
1782771898761847300,1.000847412109375,-0.07887554168701172,0.0039972178637981415,0.003284942824393511
1782771898771857000,1.01085693359375,-0.07648086547851562,-0.0007911846041679382,0.0009505718480795622
1782771898781836000,1.0208359375,-0.07648086547851562,-0.012702077627182007,-0.0014433176256716251
1782771898791846000,1.030845947265625,-0.06690406799316406,0.0040573738515377045,0.0033457058016210794
1782771898801855500,1.04085546875,-0.06690502166748047,-0.022218739613890648,-0.0038365854416042566
1782771898811835000,1.0508349609375,-0.0836648941040039,0.0065116919577121735,-0.0015022184234112501
1782771898821844700,1.0608447265625,-0.07648181915283203,0.006511706858873367,-0.0014419921208173037
1782771898831854600,1.0708544921875,-0.06211662292480469,0.011359930038452148,0.008194638416171074
1782771898841833700,1.080833740234375,-0.07408809661865234,0.01129988208413124,0.0009525595232844353
1782771898851843600,1.090843505859375,-0.07169342041015625,-0.010247930884361267,-0.020535605028271675
1782771898861853200,1.100853271484375,-0.059722900390625,-0.019824746996164322,-0.0013218980748206377
1782771898871832600,1.11083251953125,-0.09324073791503906,0.006451670080423355,-0.025263603776693344
1782771898881842200,1.12084228515625,-0.07408714294433594,-0.005519337952136993,0.00831513199955225
1782771898891852000,1.13085205078125,-0.07408714294433594,0.008786037564277649,0.0034668976441025734
1782771898901831200,1.1408310546875,-0.0836639404296875,-0.012761753052473068,-0.0061095962300896645
1782771898911841000,1.150841064453125,-0.06929874420166016,0.006332229822874069,0.005981024354696274
1782771898921851000,1.160850830078125,-0.07887554168701172,0.0016039423644542694,0.013224036432802677
1782771898931830000,1.170830078125,-0.07408714294433594,-0.0007902607321739197,0.006101267412304878
1782771898941840000,1.18083984375,-0.07887554168701172,0.0015440285205841064,0.013283872045576572
1782771898951849700,1.190849609375,-0.08845233917236328,0.013574887067079544,0.0013131753075867891
1782771898961828900,1.200828857421875,-0.07169246673583984,0.006332211196422577,-0.003474915400147438
1782771898971838500,1.21083837890625,-0.07648086547851562,-0.015155933797359467,0.006102201994508505
1782771898981848300,1.220848388671875,-0.07408714294433594,-0.007973313331604004,0.00610251585021615
1782771898991858000,1.23085791015625,-0.08605766296386719,0.003997731953859329,0.003828285727649927
1782771899001837300,1.24083740234375,-0.07169246673583984,0.0040578171610832214,-0.0009000261779874563
1782771899011847200,1.25084716796875,-0.08605766296386719,-0.005578678101301193,-0.003413841361179948
1782771899021856800,1.260856689453125,-0.07887554168701172,0.008846651762723923,-0.012990336865186691
1782771899031836200,1.270836181640625,-0.06211566925048828,0.011240910738706589,-0.0009588750544935465
1782771899041846000,1.280845947265625,-0.06690406799316406,-0.012701094150543213,0.0014956346713006496
1782771899051855600,1.290855712890625,-0.06451034545898438,-0.0031242743134498596,0.015860842540860176
1782771899061835000,1.3008349609375,-0.0836639404296875,0.008846726268529892,0.0015556979924440384
1782771899071844600,1.3108447265625,-0.07887554168701172,0.003998689353466034,0.008679244667291641
1782771899081854500,1.3208544921875,-0.0812692642211914,0.008727055042982101,-0.0008371854200959206
1782771899091833900,1.330833740234375,-0.06450939178466797,0.0014846138656139374,0.008739934302866459
1782771899101843500,1.340843505859375,-0.09084510803222656,0.018244024366140366,-0.015142202377319336
1782771899111853000,1.35085302734375,-0.07169151306152344,0.0038788393139839172,0.004011724144220352
1782771899121832400,1.36083251953125,-0.09802913665771484,-0.005577798932790756,0.0015580886974930763
1782771899131842300,1.37084228515625,-0.07169246673583984,0.00878738984465599,0.015922987833619118
1782771899141852000,1.380851806640625,-0.09084606170654297,0.006333090364933014,0.0040120757184922695
1782771899151831300,1.390831298828125,-0.07408714294433594,-0.0031240060925483704,-0.012686884962022305
1782771899161841200,1.400841064453125,-0.07648181915283203,0.006512705236673355,-0.01508108526468277
1782771899171850800,1.410850830078125,-0.06929969787597656,0.004118558019399643,-0.0030496236868202686
1782771899181830100,1.420830078125,-0.0836639404296875,-0.0007299371063709259,0.004132981877774
1782771899191839700,1.43083984375,-0.08127021789550781,-0.005399014800786972,0.035257913172245026
1782771899201849600,1.440849609375,-0.07169342041015625,0.00890611857175827,-0.007837404496967793
1782771899211828700,1.450828857421875,-0.07887554168701172,-0.0031246915459632874,0.006587945856153965
1782771899221838600,1.460838623046875,-0.07887554168701172,-0.003124665468931198,-0.0028687254525721073
1782771899231848200,1.47084814453125,-0.07648086547851562,-0.000730462372303009,0.011616148985922337
1782771899241858000,1.480858154296875,-0.08845233917236328,0.013694863766431808,0.002039654180407524
1782771899251837400,1.49083740234375,-0.06690406799316406,0.0017836913466453552,0.006947720889002085
1782771899261847300,1.500847412109375,-0.07887649536132812,0.004237864166498184,0.0021599391475319862
1782771899271857000,1.51085693359375,-0.0836648941040039,-0.0005505643784999847,0.009402064606547356
1782771899281836000,1.5208359375,-0.07648181915283203,-0.0077331699430942535,0.0070078629069030285
1782771899291846000,1.530845947265625,-0.09084701538085938,0.01860295981168747,0.004612735006958246
1782771899301855500,1.54085546875,-0.05014610290527344,0.009146377444267273,0.0022188439033925533
1782771899311835000,1.5508349609375,-0.07887649536132812,-0.0053982846438884735,0.0094619020819664
1782771899321844700,1.5608447265625,-0.07408809661865234,-0.007792457938194275,-0.007237286772578955
1782771899331854300,1.570854248046875,-0.0836648941040039,-0.007732577621936798,0.021493755280971527
1782771899341833700,1.580833740234375,-0.07408809661865234,-0.0028840526938438416,0.0023404513485729694
1782771899351843600,1.590843505859375,-0.0860586166381836,-0.005278158932924271,0.002341378014534712
1782771899361853200,1.600853271484375,-0.06929969787597656,-0.007552172988653183,0.014372482895851135
1782771899371832600,1.61083251953125,-0.057328224182128906,-0.005098134279251099,0.00006710179150104523
1782771899381842200,1.62084228515625,-0.08127021789550781,-0.01712903380393982,-0.0022668768651783466
1782771899391851800,1.630851806640625,-0.07408809661865234,-0.002704024314880371,0.009823484346270561
1782771899401831200,1.6408310546875,-0.07408905029296875,-0.007492419332265854,0.012277781963348389
1782771899411841000,1.650841064453125,-0.0860586166381836,0.004478614777326584,0.0026416340842843056
1782771899421850600,1.6608505859375,-0.07648277282714844,-0.0027039572596549988,0.0122788455337286
1782771899431830000,1.670830078125,-0.08366584777832031,0.018843859434127808,0.005096239969134331
1782771899441839900,1.68083984375,-0.06929969787597656,0.009207207709550858,-0.002085746731609106
1782771899451849700,1.690849609375,-0.0884542465209961,-0.005098145455121994,0.00509716896340251
1782771899461828900,1.700828857421875,-0.07887744903564453,0.006872866302728653,-0.006813750136643648
1782771899471838500,1.71083837890625,-0.08366584777832031,0.004478655755519867,0.007551460526883602
1782771899481848000,1.72084814453125,-0.06451225280761719,0.004478670656681061,-0.011542058549821377
1782771899491858000,1.73085791015625,-0.07887649536132812,-0.012340549379587173,0.005217663943767548
1782771899501837300,1.74083740234375,-0.09084701538085938,-0.009946338832378387,-0.011541749350726604
1782771899511847200,1.75084716796875,-0.07408905029296875,-0.007492531090974808,0.00282315444201231
1782771899521856800,1.760856689453125,-0.07408905029296875,0.006872721016407013,0.0004893569275736809
1782771899531836200,1.770836181640625,-0.07887649536132812,-0.014734935015439987,-0.0019048438407480717
1782771899541846000,1.780845947265625,-0.07408905029296875,0.016449667513370514,0.010066783055663109
1782771899551855600,1.790855712890625,-0.06690597534179688,-0.0027039125561714172,0.014855495654046535
1782771899561835000,1.8008349609375,-0.062117576599121094,-0.0003097131848335266,0.0029445826075971127
1782771899571844600,1.8108447265625,-0.06929969787597656,0.01650938391685486,0.0006699841469526291
1782771899581854500,1.8208544921875,-0.06211662292480469,0.0021441690623760223,0.007792495656758547
1782771899591833600,1.83083349609375,-0.08127021789550781,0.006932608783245087,0.0077928039245307446
1782771899601843500,1.840843505859375,-0.0836648941040039,-0.01222100481390953,0.005398602224886417
1782771899611853000,1.85085302734375,-0.07887649536132812,-0.012340668588876724,0.010246836580336094
1782771899621832400,1.86083251953125,-0.07887649536132812,-0.014674775302410126,-0.006452480331063271
1782771899631842300,1.87084228515625,-0.09563541412353516,-0.0027633830904960632,0.0054591866210103035
1782771899641852200,1.88085205078125,-0.06929969787597656,0.004419185221195221,0.0030646752566099167
1782771899651831300,1.890831298828125,-0.0860586166381836,0.006873197853565216,-0.004058403428643942
1782771899661841200,1.900841064453125,-0.09563541412353516,-0.014674626290798187,0.012760920450091362
1782771899671851000,1.91085107421875,-0.07887649536132812,-0.002643786370754242,0.003124282695353031
1782771899681830100,1.920830078125,-0.07887744903564453,-0.002643786370754242,0.01282128132879734
1782771899691839700,1.93083984375,-0.09563636779785156,0.006992705166339874,-0.001543622463941574
1782771899701849600,1.940849609375,-0.08127117156982422,0.009386908262968063,0.0032447809353470802
1782771899711828700,1.950828857421875,-0.0860605239868164,0.016629375517368317,0.0056392899714410305
1782771899721838600,1.960838623046875,-0.07169532775878906,0.007052566856145859,0.0056991977617144585
1782771899731848400,1.970848388671875,-0.07409000396728516,-0.002524200826883316,0.003245469182729721
1782771899741858000,1.980858154296875,-0.08366680145263672,0.009446844458580017,0.008034181781113148
1782771899751837400,1.99083740234375,-0.0621185302734375,-0.007312603294849396,0.010428076609969139
1782771899761847300,2.000847412109375,-0.08366680145263672,-0.002464253455400467,0.0008515766821801662
1782771899771857000,2.01085693359375,-0.07648372650146484,0.0047781504690647125,0.01761068031191826
1782771899781836000,2.0208359375,-0.07648372650146484,-0.0023443736135959625,0.010488172993063927
1782771899791846000,2.030845947265625,-0.07887935638427734,-0.016590237617492676,0.005700072273612022
1782771899801855500,2.04085546875,-0.090850830078125,0.007472030818462372,0.0009723734110593796
1782771899811835000,2.0508349609375,-0.08127403259277344,-0.006952978670597076,0.003426716197282076
1782771899821844700,2.0608447265625,-0.09803295135498047,0.016929157078266144,0.010609626770019531
1782771899831854600,2.0708544921875,-0.07648468017578125,0.009746551513671875,0.008215425536036491
1782771899841833700,2.080833740234375,-0.07409191131591797,-0.004558563232421875,0.0034270212054252625
1782771899851843600,2.090843505859375,-0.08845710754394531,0.00028942152857780457,0.0011515067890286446
1782771899861853200,2.100853271484375,-0.08127403259277344,-0.011621490120887756,0.003485612105578184
1782771899871832600,2.11083251953125,-0.07888031005859375,0.002863451838493347,-0.00118251983076334
1782771899881842200,2.12084228515625,-0.07888126373291016,0.014894403517246246,-0.00830490980297327
1782771899891852000,2.13085205078125,-0.06451606750488281,0.010165836662054062,0.010848703794181347
1782771899901831200,2.1408310546875,-0.07648658752441406,0.012560058385133743,0.013243211433291435
1782771899911841000,2.150841064453125,-0.0932464599609375,-0.011441528797149658,0.003667009063065052
1782771899921851000,2.160850830078125,-0.07409286499023438,-0.0018045902252197266,0.0156383216381073
1782771899931830000,2.170830078125,-0.0669097900390625,-0.006533119827508926,-0.008303392678499222
1782771899941840000,2.18083984375,-0.09564018249511719,-0.00653308629989624,0.01085052452981472
1782771899951849700,2.190849609375,-0.07888126373291016,0.007832158356904984,0.006122253835201263
1782771899961828900,2.200828857421875,-0.0693044662475586,0.0006495937705039978,0.010971052572131157
1782771899971838500,2.21083837890625,-0.08845806121826172,0.015074454247951508,0.006242301780730486
1782771899981848300,2.220848388671875,-0.08845806121826172,0.010286055505275726,0.010970612987875938
1782771899991858000,2.23085791015625,-0.08845806121826172,-0.0016849227249622345,0.0014539421536028385
1782771900001837300,2.24083740234375,-0.07648754119873047,0.005617879331111908,0.0014539407566189766
1782771900011847200,2.25084716796875,-0.08606433868408203,0.010406319051980972,0.008636847138404846
1782771900021856800,2.260856689453125,-0.08367156982421875,0.017649024724960327,0.006182549055665731
1782771900031836200,2.270836181640625,-0.069305419921875,0.005618136376142502,0.0038478788919746876
1782771900041846000,2.280845947265625,-0.07648754119873047,-0.01598954200744629,0.011090695858001709
1782771900051855600,2.290855712890625,-0.08127593994140625,-0.0016242936253547668,0.018273603171110153
1782771900061835000,2.3008349609375,-0.07648754119873047,0.0032242462038993835,0.0016346834599971771
1782771900071844600,2.3108447265625,-0.08845901489257812,0.0056096650660037994,0.02076372504234314
1782771900081854500,2.3208544921875,-0.09085369110107422,0.010444141924381256,0.0183965303003788
1782771900091833900,2.330833740234375,-0.08127593994140625,0.0031891390681266785,0.008789688348770142
1782771900101843500,2.340843505859375,-0.07888221740722656,0.00083894282579422,0.006355356425046921
1782771900111853000,2.35085302734375,-0.07648849487304688,0.015236593782901764,0.013488988392055035
1782771900121832400,2.36083251953125,-0.08367061614990234,0.01753729209303856,0.015894092619419098
1782771900131842300,2.37084228515625,-0.07409381866455078,0.005604837089776993,-0.0032251253724098206
1782771900141852000,2.380851806640625,-0.08127593994140625,0.012762311846017838,-0.003186169546097517
1782771900151831300,2.390831298828125,-0.07648658752441406,0.0222485214471817,0.003977533895522356
1782771900161841200,2.400841064453125,-0.08127498626708984,0.0030714571475982666,0.011201698333024979
1782771900171850800,2.410850830078125,-0.08127498626708984,-0.0016790255904197693,0.01596570760011673
1782771900181830100,2.420830078125,-0.08127498626708984,0.007876377552747726,0.01121264323592186
1782771900191839700,2.43083984375,-0.09085273742675781,0.0007351897656917572,0.006460483651608229
1782771900201849600,2.440849609375,-0.08127593994140625,0.007959321141242981,-0.0007409420795738697
1782771900211828700,2.450828857421875,-0.08606433868408203,0.008019186556339264,0.0016532596200704575
1782771900221838600,2.460838623046875,-0.08845901489257812,0.0056250207126140594,-0.003134841565042734
1782771900231848200,2.47084814453125,-0.07409477233886719,0.000896453857421875,0.0016535618342459202
1782771900241858000,2.480858154296875,-0.08845996856689453,-0.0038919486105442047,-0.00319493655115366
1782771900251837400,2.49083740234375,-0.07888221740722656,-0.006345946341753006,0.013564776629209518
1782771900261847300,2.500847412109375,-0.069305419921875,-0.011194221675395966,0.001534158829599619
1782771900271857000,2.51085693359375,-0.07169914245605469,0.0031710192561149597,0.015780009329319
1782771900281836000,2.5208359375,-0.08606433868408203,0.005565188825130463,-0.003313811030238867
1782771900291846000,2.530845947265625,-0.069305419921875,0.008019078522920609,-0.015224870294332504
1782771900301855500,2.54085546875,-0.0669107437133789,0.010353181511163712,-0.0032538617961108685
1782771900311835000,2.5508349609375,-0.06451702117919922,0.01035318523645401,-0.01510520838201046
1782771900321844700,2.5608447265625,-0.07648658752441406,0.01029331237077713,0.011231312528252602
1782771900331854300,2.570854248046875,-0.07409381866455078,0.005564820021390915,0.011291749775409698
1782771900341833700,2.580833740234375,-0.08366966247558594,0.003170650452375412,0.01614055223762989
1782771900351843600,2.590843505859375,-0.0669107437133789,-0.001558098942041397,0.0017753406427800655
1782771900361853200,2.600853271484375,-0.069305419921875,0.0032302960753440857,0.00901804305613041
1782771900371832300,2.610832275390625,-0.07409477233886719,0.0009558014571666718,-0.0004986315034329891
1782771900381842200,2.62084228515625,-0.07648754119873047,0.0008958838880062103,0.0162607803940773
1782771900391851800,2.630851806640625,-0.069305419921875,-0.003892473876476288,-0.0004983311519026756
1782771900401831200,2.6408310546875,-0.08606433868408203,0.010412640869617462,0.01153277326375246
1782771900411841000,2.650841064453125,-0.0669107437133789,0.012806925922632217,0.0020162141881883144
1782771900421850600,2.6608505859375,-0.08366966247558594,-0.0016183890402317047,-0.007440399378538132
1782771900431830000,2.670830078125,-0.069305419921875,-0.008741158992052078,0.002196238376200199
1782771900441839900,2.68083984375,-0.0669097900390625,-0.008681204169988632,-0.0025319508276879787
1782771900451849700,2.690849609375,-0.08845901489257812,0.01771485060453415,0.009439057670533657
1782771900461828900,2.700828857421875,-0.08127689361572266,0.0010756663978099823,-0.009654158726334572
1782771900471838500,2.71083837890625,-0.0693063735961914,-0.006047248840332031,0.011953603476285934
1782771900481848300,2.720848388671875,-0.08127689361572266,0.010772261768579483,-0.004745713900774717
1782771900491858000,2.73085791015625,-0.07648849487304688,-0.001198749989271164,0.007285126950591803
1782771900501837300,2.74083740234375,-0.07888412475585938,0.0060439929366111755,0.002497022971510887
1782771900511847200,2.75084716796875,-0.06691265106201172,-0.0035327300429344177,0.014468628913164139
1782771900521797400,2.76079736328125,-0.0717010498046875,0.003649923950433731,0.014589119702577591
1782771900531927800,2.770927734375,-0.0717010498046875,0.015620972961187363,-0.0021699932403862476
1782771900541846000,2.780845947265625,-0.08606529235839844,0.013166110962629318,0.012134820222854614
1782771900551796200,2.790796142578125,-0.07888317108154297,-0.0060467831790447235,0.007346416357904673
1782771900562989600,2.801989501953125,-0.06691169738769531,0.005924224853515625,0.009800524450838566
1782771900581854500,2.8208544921875,-0.06451797485351562,0.0011890009045600891,0.01691637560725212
1782771900591833900,2.830833740234375,-0.06212329864501953,-0.0012650303542613983,0.002551165409386158
1782771900601843500,2.840843505859375,-0.0717000961303711,-0.008387677371501923,0.007399783004075289
1782771900611793700,2.850793701171875,-0.06451797485351562,0.010765980929136276,0.012188486754894257
1782771900621923800,2.860923828125,-0.08127689361572266,0.013160225003957748,0.009854490868747234
1782771900631842300,2.87084228515625,-0.09085369110107422,0.00118926540017128,0.007520977407693863
1782771900641852200,2.88085205078125,-0.07409477233886719,-0.010722201317548752,0.0027921171858906746
1782771900651831300,2.890831298828125,-0.07888317108154297,0.006097052246332169,0.01248859241604805
1782771900661841200,2.900841064453125,-0.05733489990234375,0.0013086497783660889,-0.013847624883055687
1782771900671851000,2.91085107421875,-0.0717000961303711,-0.0010855123400688171,0.029248302802443504
1782771900681830100,2.920830078125,-0.08845996856689453,0.0037029385566711426,0.010094989091157913
1782771900691839700,2.93083984375,-0.0956430435180664,0.0013683885335922241,0.0005181827582418919
1782771900701849600,2.940849609375,-0.0956430435180664,0.0013683363795280457,0.01015478651970625
1782771900711828700,2.950828857421875,-0.05494213104248047,0.006156738847494125,0.007760584820061922
1782771900721838600,2.960838623046875,-0.08606624603271484,0.0038118064403533936,0.022091105580329895
1782771900731848400,2.970848388671875,-0.07888412475585938,-0.0009165927767753601,-0.0018506110645830631
1782771900741858000,2.980858154296875,-0.0740957260131836,0.01337246224284172,0.017326131463050842
1782771900751837400,2.99083740234375,-0.06212425231933594,0.008572649210691452,0.014908203855156898
1782771900761847300,3.000847412109375,-0.07888412475585938,-0.0008936524391174316,0.005250716116279364
1782771900771857000,3.01085693359375,-0.07888507843017578,-0.01280483603477478,0.0029163449071347713
1782771900781836000,3.0208359375,-0.09325027465820312,0.011128522455692291,0.0125284967944026
1782771900791846000,3.030845947265625,-0.09085559844970703,0.004005566239356995,0.005345892161130905
1782771900801855500,3.04085546875,-0.08606719970703125,0.001611366868019104,0.005285798572003841
1782771900811835000,3.0508349609375,-0.06691455841064453,0.008853834122419357,0.01013433188199997
1782771900821844700,3.0608447265625,-0.062125205993652344,-0.005571275949478149,0.005345927085727453
1782771900831854600,3.0708544921875,-0.08367347717285156,-0.010419510304927826,0.003011551219969988
1782771900841833700,3.080833740234375,-0.06691360473632812,0.0016116946935653687,-0.00417045783251524
1782771900851843600,3.090843505859375,-0.07649040222167969,-0.0055709108710289,0.0006775963120162487
1782771900861853200,3.100853271484375,-0.07649040222167969,0.004005897790193558,0.00786020141094923
1782771900871832600,3.11083251953125,-0.0740976333618164,-0.003116823732852936,0.0031319251284003258
1782771900881842200,3.12084228515625,-0.08367347717285156,-0.0031167790293693542,0.015223056077957153
1782771900891851800,3.130851806640625,-0.0717010498046875,-0.003176562488079071,0.010434949770569801
1782771900901831200,3.1408310546875,-0.07649040222167969,0.0016719885170459747,0.017617851495742798
1782771900911841000,3.150841064453125,-0.062125205993652344,0.004125840961933136,0.000977733638137579
1782771900921791200,3.160791259765625,-0.08367443084716797,0.008974384516477585,-0.003750278614461422
1782771900931921700,3.170921630859375,-0.0764913558959961,-0.0029966235160827637,0.010614931583404541
1782771900941840000,3.18083984375,-0.09325027465820312,-0.0006631240248680115,0.010675633326172829
1782771900951849700,3.190849609375,-0.06452083587646484,-0.005392242223024368,0.01301055308431387
1782771900961828900,3.200828857421875,-0.08127975463867188,0.0018504559993743896,0.0010996409691870213
1782771900971838500,3.21083837890625,-0.08367443084716797,-0.005391694605350494,0.00594828138127923
1782771900981848300,3.220848388671875,-0.07649040222167969,-0.005451790988445282,0.015464995056390762
1782771900991858000,3.23085791015625,-0.06930828094482422,0.0017308704555034637,0.010676886886358261
1782771901001837300,3.24083740234375,-0.06212615966796875,-0.0006632432341575623,0.013131779618561268
1782771901011847200,3.25084716796875,-0.06930828094482422,0.004065230488777161,0.013161295093595982
1782771901021856800,3.260856689453125,-0.06451988220214844,-0.0031173154711723328,0.006039080675691366
1782771901031836200,3.270836181640625,-0.08846282958984375,-0.010235883295536041,0.013199017383158207
1782771901041846000,3.280845947265625,-0.08846282958984375,0.008917823433876038,0.0251932330429554
1782771901051855600,3.290855712890625,-0.06451988220214844,0.011305727064609528,0.018083907663822174
1782771901061835000,3.3008349609375,-0.07170295715332031,0.020986683666706085,0.008466816507279873
1782771901071844600,3.3108447265625,-0.06930923461914062,0.0066042616963386536,0.010880688205361366
1782771901081854500,3.3208544921875,-0.08606815338134766,-0.012495510280132294,0.0013386006467044353
1782771901091833900,3.330833740234375,-0.08367443084716797,-0.0005312226712703705,0.015727970749139786
1782771901101843500,3.340843505859375,-0.09085655212402344,0.009036794304847717,-0.0010562697425484657
1782771901111853000,3.35085302734375,-0.07888507843017578,0.0017875507473945618,0.013286956585943699
1782771901121832400,3.36083251953125,-0.08127975463867188,-0.007733523845672607,0.008469612337648869
1782771901131842300,3.37084228515625,-0.08606815338134766,-0.0005509220063686371,0.001287007238715887
1782771901141852200,3.38085205078125,-0.0764913558959961,-0.005399845540523529,0.01802009344100952
1782771901151831300,3.390831298828125,-0.09325122833251953,-0.00294514000415802,0.015529649332165718
1782771901161841200,3.400841064453125,-0.06212615966796875,0.004175841808319092,0.010704632848501205
1782771901171851000,3.41085107421875,-0.08846282958984375,-0.0029469840228557587,0.003521732985973358
1782771901181830100,3.420830078125,-0.0740976333618164,0.004235625267028809,0.005976028274744749
1782771901191839700,3.43083984375,-0.08127975463867188,-0.002887282520532608,0.010824374854564667
1782771901201849600,3.440849609375,-0.0764913558959961,0.0066254623234272,0.013189448975026608
1782771901211828700,3.450828857421875,-0.09564495086669922,0.025838930159807205,-0.003509625792503357
1782771901221838600,3.460838623046875,-0.08367443084716797,0.00913938507437706,0.006067182403057814
1782771901231848400,3.470848388671875,-0.07888603210449219,-0.007620025426149368,0.01564398966729641
1782771901241798700,3.480798583984375,-0.0764913558959961,0.0019568316638469696,0.006067478563636541
1782771901251869400,3.490869384765625,-0.0740976333618164,-0.00043731555342674255,0.003792816773056984
1782771901261908200,3.500908203125,-0.09564495086669922,0.004411473870277405,-0.0009952904656529427
1782771901271857000,3.51085693359375,-0.08367443084716797,-0.002771075814962387,0.006187609862536192
1782771901281836300,3.520836181640625,-0.0764913558959961,0.004351776093244553,0.022887028753757477
1782771901291846000,3.530845947265625,-0.08367443084716797,-0.0004428289830684662,0.015618875622749329
1782771901301855500,3.54085546875,-0.07888603210449219,0.004285488277673721,0.0037079621106386185
1782771901311775500,3.550775390625,-0.06691455841064453,-0.0029023252427577972,0.018103715032339096
1782771901322945500,3.561945556640625,-0.0740976333618164,-0.000632893294095993,0.027569223195314407
1782771901341833700,3.580833740234375,-0.07170295715332031,0.006537046283483505,0.003653724677860737
1782771901351843600,3.590843505859375,-0.0740976333618164,0.008918415755033493,0.008397147990763187
1782771901361853200,3.600853271484375,-0.08367347717285156,0.004063371568918228,0.0011959332041442394
1782771901371832300,3.610832275390625,-0.09324932098388672,0.01595582813024521,0.00595298083499074
1782771901381842200,3.62084228515625,-0.0717010498046875,0.0015905685722827911,0.0011642794124782085
1782771901391851800,3.630851806640625,-0.09564399719238281,0.013599105179309845,0.010712750256061554
1782771901401771800,3.640771728515625,-0.0764913558959961,0.0017483308911323547,0.005984740797430277
1782771901411902000,3.65090185546875,-0.08127975463867188,0.004129413515329361,0.010753538459539413
1782771901421851000,3.660850830078125,-0.08367443084716797,0.006567113101482391,0.008274337276816368
1782771901431830000,3.670830078125,-0.0740976333618164,0.009001992642879486,0.01542985811829567
1782771901441839900,3.68083984375,-0.06691455841064453,-0.0029266364872455597,0.015453727915883064
1782771901451849700,3.690849609375,-0.06212615966796875,0.0066339969635009766,0.005907420534640551
1782771901461828900,3.700828857421875,-0.06930923461914062,0.006612975150346756,0.02501552924513817
1782771901471838500,3.71083837890625,-0.07170295715332031,-0.0006443746387958527,0.013123591430485249
1782771901481848300,3.720848388671875,-0.0764913558959961,0.004190616309642792,0.0011219126172363758
1782771901491858000,3.73085791015625,-0.08127975463867188,0.013827256858348846,-0.00845489464700222
1782771901501837300,3.74083740234375,-0.08127975463867188,-0.002932097762823105,0.0011222087778151035
1782771901511847200,3.75084716796875,-0.0740976333618164,0.0017967000603675842,0.013212806545197964
1782771901521856800,3.760856689453125,-0.05733776092529297,0.001796811819076538,0.01315330807119608
1782771901531836200,3.770836181640625,-0.06691455841064453,-0.0004777349531650543,-0.003606104291975498
1782771901541846000,3.780845947265625,-0.0764913558959961,-0.0005376450717449188,0.01806153729557991
1782771901551855600,3.790855712890625,-0.0764913558959961,-0.0029317885637283325,0.006030993070453405
1782771901561835000,3.8008349609375,-0.08127975463867188,-0.0005375891923904419,0.003636791370809078
1782771901571844600,3.8108447265625,-0.07170295715332031,0.004191175103187561,0.001242589671164751
1782771901581854500,3.8208544921875,-0.07888603210449219,-0.012508150190114975,0.003636791370809078
1782771901591833900,3.830833740234375,-0.08846282958984375,0.006705336272716522,0.0108196921646595
1782771901601843500,3.840843505859375,-0.09085750579833984,0.013947919011116028,0.0060914964415133
1782771901611853000,3.85085302734375,-0.078887939453125,-0.005085993558168411,0.01088019460439682
1782771901621832400,3.86083251953125,-0.07409858703613281,0.0044908225536346436,0.010940290987491608
1782771901631842300,3.87084228515625,-0.0764923095703125,0.006944663822650909,-0.008153674192726612
1782771901641852000,3.880851806640625,-0.07170391082763672,0.006884578615427017,0.010939842090010643
1782771901651831300,3.890831298828125,-0.0788869857788086,0.016461364924907684,0.011059504002332687
1782771901661841200,3.900841064453125,-0.08367443084716797,0.011597473174333572,0.010982496663928032
1782771901671850800,3.910850830078125,-0.08128070831298828,0.004474703222513199,-0.0057769156992435455
1782771901681830100,3.920830078125,-0.08128070831298828,0.01648649573326111,0.00618106359615922
1782771901691839700,3.93083984375,-0.07170391082763672,0.009339112788438797,0.020523801445961
1782771901701849600,3.940849609375,-0.0740976333618164,0.009252086281776428,0.008528083562850952
1782771901711828700,3.950828857421875,-0.08846378326416016,-0.007468435913324356,0.013346284627914429
1782771901721838600,3.960838623046875,-0.08367538452148438,-0.009862639009952545,-0.005807328969240189
1782771901731848200,3.97084814453125,-0.08606815338134766,-0.0027397572994232178,-0.0009585069492459297
1782771901741858000,3.980858154296875,-0.09564590454101562,-0.00267966091632843,0.011012502014636993
1782771901751837400,3.99083740234375,-0.07409858703613281,0.011745326220989227,-0.00580703467130661
1782771901761847300,4.000847412109375,-0.07170486450195312,-0.00016571953892707825,-0.0009584249928593636
1782771901771857000,4.01085693359375,-0.08607006072998047,0.002228379249572754,0.025437038391828537
1782771901781836000,4.0208359375,-0.0788869857788086,0.0021683871746063232,0.018315117806196213
1782771901791846000,4.030845947265625,-0.06212806701660156,0.004611372947692871,0.013435744680464268
1782771901801855500,4.04085546875,-0.078887939453125,0.007065713405609131,0.0015852232463657856
1782771901811835000,4.0508349609375,-0.08607006072998047,-0.000056996941566467285,0.0015855147503316402
1782771901821844700,4.0608447265625,-0.08846473693847656,0.00706573948264122,-0.0008683046326041222
1782771901831854300,4.070854248046875,-0.08128166198730469,0.011913973838090897,0.01349690556526184
1782771901841833700,4.080833740234375,-0.08128166198730469,-0.002399798482656479,0.018327437341213226
1782771901851843600,4.090843505859375,-0.08128166198730469,-0.0023996904492378235,-0.0008255941793322563
1782771901861853200,4.100853271484375,-0.08367633819580078,0.004783023148775101,0.008811895735561848
1782771901871832300,4.110832275390625,-0.09564781188964844,0.0000545009970664978,0.0088720191270113
1782771901881842200,4.12084228515625,-0.08367633819580078,0.0023888535797595978,0.013660714961588383
1782771901891851800,4.130851806640625,-0.07649421691894531,-0.007132943719625473,0.01853613555431366
1782771901901831200,4.1408310546875,-0.08846473693847656,0.011950895190238953,0.018500953912734985
1782771901911841000,4.150841064453125,-0.08846473693847656,0.007151775062084198,0.00177356181666255
1782771901921850600,4.1608505859375,-0.08128166198730469,-0.000030722469091415405,-0.010196859948337078
1782771901931770600,4.1707705078125,-0.07170486450195312,0.007151823490858078,0.0018336907960474491
1782771901941900800,4.18090087890625,-0.08367633819580078,-0.014395933598279953,0.006682108622044325
1782771901951849700,4.190849609375,-0.06931114196777344,0.004817690700292587,0.016318924725055695
1782771901961828900,4.200828857421875,-0.06452274322509766,0.007272098213434219,0.011531107127666473
1782771901971838500,4.21083837890625,-0.08607006072998047,-0.011882856488227844,0.018686994910240173
1782771901981848300,4.220848388671875,-0.0788888931274414,0.014505479484796524,0.01153547316789627
1782771901991858000,4.23085791015625,-0.06931209564208984,-0.002253815531730652,0.002019076142460108
1782771902001837300,4.24083740234375,-0.0764932632446289,0.00486278161406517,0.0116339772939682
1782771902011847200,4.25084716796875,-0.078887939453125,0.007256973534822464,-0.0075792837888002396
1782771902021856800,4.260856689453125,-0.0764932632446289,-0.011896640062332153,0.011574329808354378
1782771902031836200,4.270836181640625,-0.06691741943359375,0.007316920906305313,-0.005184500478208065
1782771902041846000,4.280845947265625,-0.07410049438476562,0.00977109745144844,0.009240915067493916
1782771902051855600,4.290855712890625,-0.0788888931274414,0.012211672961711884,0.021188747137784958
1782771902061835000,4.3008349609375,-0.07410049438476562,-0.0044981129467487335,0.014098471030592918
1782771902071844900,4.310844970703125,-0.07410049438476562,0.002672068774700165,0.016514107584953308
1782771902081854500,4.3208544921875,-0.06931209564208984,0.0003284662961959839,0.00929911620914936
1782771902091833600,4.33083349609375,-0.07649421691894531,0.0027226656675338745,-0.00021786056458950043
1782771902101843500,4.340843505859375,-0.09085941314697266,-0.006854139268398285,0.009418860077857971
1782771902111853000,4.35085302734375,-0.05973529815673828,-0.00206567719578743,0.002296376507729292
1782771902121832400,4.36083251953125,-0.08367729187011719,0.017075974494218826,0.01675121672451496
1782771902131842300,4.37084228515625,-0.08607101440429688,0.007548581808805466,0.016786107793450356
1782771902141852000,4.380851806640625,-0.08607101440429688,-0.004488278180360794,0.00485659297555685
1782771902151831300,4.390831298828125,-0.0812826156616211,0.007542606443166733,0.00012831296771764755
1782771902161841200,4.400841064453125,-0.0788888931274414,0.005148414522409439,0.004856799729168415
1782771902171850800,4.410850830078125,-0.07170581817626953,0.005078975111246109,0.0192006416618824
1782771902181770500,4.4207705078125,-0.07410049438476562,0.01703016087412834,0.019226185977458954
1782771902191901000,4.43090087890625,-0.07649421691894531,-0.01404261589050293,0.009682740084826946
1782771902201849600,4.440849609375,-0.0812826156616211,0.021914269775152206,0.00965404137969017
1782771902211828700,4.450828857421875,-0.08607101440429688,0.00519232451915741,0.02887832373380661
1782771902221838600,4.460838623046875,-0.09564876556396484,0.01479855552315712,0.009673649445176125
1782771902231788800,4.470788818359375,-0.0812826156616211,0.007587406784296036,0.014353945851325989
1782771902242974500,4.481974365234375,-0.0812826156616211,0.012341994792222977,0.002458226401358843
1782771902261812200,4.500812255859375,-0.0788888931274414,0.012313168495893478,0.00002398807555437088
1782771902271857000,4.51085693359375,-0.06931209564208984,0.0003213025629520416,0.031110648065805435
1782771902281836000,4.5208359375,-0.10043621063232422,0.00993603840470314,0.009647296741604805
1782771902291846000,4.530845947265625,-0.09085941314697266,-0.00689813494682312,0.014398776926100254
1782771902301855500,4.54085546875,-0.0788888931274414,0.000271480530500412,0.007181920576840639
1782771902311835000,4.5508349609375,-0.09085941314697266,-0.009249906986951828,0.0023142588324844837
1782771902321785000,4.56078515625,-0.08846569061279297,-0.004461504518985748,0.004648578353226185
1782771902331915500,4.57091552734375,-0.0788888931274414,0.007509555667638779,0.009437269531190395
1782771902341833700,4.580833740234375,-0.0788888931274414,0.0219186469912529,0.019042542204260826
1782771902351784000,4.590783935546875,-0.07649612426757812,-0.004310224205255508,0.0070442198775708675
1782771902362801000,4.60180078125,-0.08846569061279297,0.0004051811993122101,0.021423667669296265
1782771902381842200,4.62084228515625,-0.09085941314697266,0.014691635966300964,-0.00013535749167203903
1782771902391852000,4.63085205078125,-0.07649421691894531,0.009875338524580002,0.016522562131285667
1782771902401831200,4.6408310546875,-0.06931209564208984,0.005121294409036636,0.009301378391683102
1782771902411841000,4.650841064453125,-0.0812826156616211,0.009876348078250885,0.026003185659646988
1782771902421851000,4.660850830078125,-0.08846569061279297,0.026649020612239838,-0.00032016728073358536
1782771902431830000,4.670830078125,-0.08367729187011719,0.005058065056800842,0.02117336168885231
1782771902441839900,4.68083984375,-0.06931209564208984,0.000235680490732193,-0.0026898281648755074
1782771902451849700,4.690849609375,-0.07649421691894531,0.009838636964559555,0.006850096862763166
1782771902461828900,4.700828857421875,-0.0788888931274414,0.004963502287864685,0.014059239998459816
1782771902471838500,4.71083837890625,-0.08607101440429688,0.016898032277822495,0.023648489266633987
1782771902481848300,4.720848388671875,-0.078887939453125,0.012060146778821945,0.009224058128893375
1782771902491858000,4.73085791015625,-0.08846473693847656,0.014463145285844803,0.013895544223487377
1782771902501777700,4.740777587890625,-0.08367729187011719,0.00018543004989624023,0.009186359122395515
1782771902511908000,4.750908203125,-0.07409954071044922,0.009658977389335632,0.006800019647926092
1782771902521856800,4.760856689453125,-0.08607101440429688,0.00011460110545158386,-0.0003544967621564865
1782771902531836200,4.770836181640625,-0.08846473693847656,-0.01665424555540085,0.009201331064105034
1782771902541786400,4.780786376953125,-0.08367633819580078,0.000036541372537612915,0.013964678160846233
1782771902551916800,4.790916748046875,-0.0764932632446289,0.01204938068985939,0.02349855937063694
1782771902561835000,4.8008349609375,-0.09085845947265625,0.0024595484137535095,0.011554311960935593
1782771902571844900,4.810844970703125,-0.08846473693847656,0.011956766247749329,0.01157190278172493
1782771902581854500,4.8208544921875,-0.078887939453125,0.004759687930345535,0.001968792174011469
1782771902591833600,4.83083349609375,-0.07170486450195312,0.004744701087474823,0.006671394687145948
1782771902601783800,4.84078369140625,-0.08607006072998047,0.009511798620223999,0.025723788887262344
1782771902611914200,4.850914306640625,-0.0764932632446289,-0.0000784061849117279,-0.005365078337490559
1782771902621832400,4.86083251953125,-0.08367633819580078,0.00961974635720253,-0.005365375429391861
1782771902631782700,4.87078271484375,-0.07649421691894531,-0.01414436474442482,0.006605921778827906
1782771902642860800,4.88186083984375,-0.0812835693359375,-0.0021133944392204285,0.020971423014998436
1782771902661781500,4.900781494140625,-0.0812826156616211,-0.009237643331289291,-0.002869744785130024
1782771902671912000,4.910911865234375,-0.07170677185058594,0.00039306655526161194,0.025827229022979736
1782771902681830100,4.920830078125,-0.06691837310791016,-0.0020041577517986298,0.01143534667789936
1782771902691839700,4.93083984375,-0.06691932678222656,0.0003900490701198578,0.004193459637463093
1782771902701849600,4.940849609375,-0.07888984680175781,-0.0019440054893493652,0.0018596439622342587
1782771902711828700,4.950828857421875,-0.08607292175292969,0.01486692950129509,0.023319043219089508
1782771902721779200,4.960779296875,-0.06452560424804688,0.005338404327630997,0.008979709818959236
1782771902731909400,4.970909423828125,-0.06931400299072266,-0.00663883239030838,0.01612626016139984
1782771902741798700,4.980798583984375,-0.08367919921875,0.005263574421405792,0.008908215910196304
1782771902751928800,4.9909287109375,-0.07649612426757812,-0.0019246004521846771,0.011328253895044327
1782771902761787600,5.00078759765625,-0.06691932678222656,0.0028580613434314728,0.02093033865094185
1782771902771858400,5.0108583984375,-0.07649612426757812,0.012424442917108536,0.013771303929388523
1782771902781928000,5.020927978515625,-0.06452560424804688,0.012470446527004242,0.009009795263409615
1782771902791846000,5.030845947265625,-0.09325504302978516,0.024356640875339508,0.009034889750182629
1782771902801855500,5.04085546875,-0.07649517059326172,-0.004400856792926788,0.016223866492509842
1782771902811835000,5.0508349609375,-0.08846759796142578,0.01000746339559555,-0.0005598859861493111
1782771902821844700,5.0608447265625,-0.07410049438476562,0.009930424392223358,0.0018732757307589054
1782771902831854300,5.070854248046875,-0.08846664428710938,0.009850140661001205,0.016152814030647278
1782771902841833700,5.080833740234375,-0.0812835693359375,0.009880907833576202,0.011328039690852165
1782771902851843600,5.090843505859375,-0.08607196807861328,0.009901788085699081,0.016125749796628952
1782771902861853200,5.100853271484375,-0.09325504302978516,-0.004421178251504898,-0.0029915859922766685
1782771902871832300,5.110832275390625,-0.0836782455444336,0.0003073886036872864,0.0017968160100281239
1782771902881842200,5.12084228515625,-0.0836782455444336,-0.009269416332244873,-0.005385789088904858
1782771902891851800,5.130851806640625,-0.07170677185058594,-0.002026919275522232,0.011373912915587425
1782771902901831200,5.1408310546875,-0.09564876556396484,0.007549937814474106,0.001797397155314684
1782771902911841000,5.150841064453125,-0.08367919921875,0.019640356302261353,-0.0005962271243333817
1782771902921851000,5.160850830078125,-0.09325504302978516,0.0028208978474140167,0.018617771565914154
1782771902931830000,5.170830078125,-0.06931304931640625,-0.011544257402420044,0.011555124074220657
1782771902941840000,5.18083984375,-0.06931304931640625,0.012397807091474533,0.006826924625784159
1782771902951849700,5.190849609375,-0.0836782455444336,0.0028209537267684937,0.011555206030607224
1782771902961828900,5.200828857421875,-0.07170677185058594,0.0123843252658844,0.006807773839682341
1782771902971779000,5.210779052734375,-0.07889080047607422,0.002918034791946411,0.011582352221012115
1782771902981909200,5.2209091796875,-0.09564876556396484,0.005192477256059647,-0.002722660079598427
1782771902991858000,5.23085791015625,-0.0812835693359375,0.005252920091152191,-0.0026619834825396538
1782771903001777700,5.240777587890625,-0.07410144805908203,0.0027989856898784637,-0.012238791212439537
1782771903011908000,5.250908203125,-0.06691837310791016,-0.001989416778087616,0.011822042986750603
1782771903021856800,5.260856689453125,-0.0812826156616211,0.0003440864384174347,0.004700138233602047
1782771903031836200,5.270836181640625,-0.0836782455444336,0.0027384646236896515,0.033371955156326294
1782771903041846000,5.280845947265625,-0.08607196807861328,0.009969059377908707,0.018979407846927643
1782771903051855600,5.290855712890625,-0.0812835693359375,-0.006730470806360245,0.002220288384705782
1782771903061835000,5.3008349609375,-0.0812835693359375,0.012412019073963165,0.011773478239774704
1782771903071844900,5.310844970703125,-0.06931304931640625,0.007668852806091309,0.023829840123653412
1782771903081854500,5.3208544921875,-0.08607292175292969,0.01722118631005287,0.0022463654167950153
1782771903091833900,5.330833740234375,-0.08607292175292969,0.010072216391563416,0.016572611406445503
1782771903101843500,5.340843505859375,-0.07649517059326172,0.005133569240570068,-0.00022674072533845901
1782771903111853000,5.35085302734375,-0.0836782455444336,0.00040503963828086853,-0.005014853551983833
1782771903121832400,5.36083251953125,-0.0836782455444336,-0.006777506321668625,-0.00016606319695711136
1782771903131842300,5.37084228515625,-0.08846664428710938,0.010041557252407074,-0.0001064147800207138
1782771903141852200,5.38085205078125,-0.07888984680175781,0.00525321438908577,0.014319181442260742
1782771903151831300,5.390831298828125,-0.08607196807861328,0.00525321438908577,0.009530778042972088
1782771903161841200,5.400841064453125,-0.0812835693359375,0.0005247741937637329,0.0048025744035840034
1782771903171851000,5.41085107421875,-0.0812845230102539,-0.0018094182014465332,0.019108816981315613
1782771903181830100,5.420830078125,-0.08607292175292969,0.014950055629014969,0.002349694725126028
1782771903191839700,5.43083984375,-0.08367919921875,-0.008932311087846756,-0.0024387091398239136
1782771903201790000,5.4407900390625,-0.0836782455444336,-0.006658241152763367,0.004744186066091061
1782771903211920400,5.45092041015625,-0.08846664428710938,0.007707078009843826,0.014381160028278828
1782771903221779200,5.460779296875,-0.08367919921875,0.010161980986595154,0.004804353229701519
1782771903231909400,5.470909423828125,-0.08607292175292969,0.0029793158173561096,0.009651514701545238
1782771903241858000,5.480858154296875,-0.0812845230102539,0.0030401386320590973,0.004985093139111996
1782771903251837400,5.49083740234375,-0.08846759796142578,0.002980608493089676,-0.006926734931766987
1782771903261847300,5.500847412109375,-0.07410144805908203,0.0077091604471206665,0.0026503619737923145
1782771903271857000,5.51085693359375,-0.0836782455444336,0.002920817583799362,0.00743905222043395
1782771903281836000,5.5208359375,-0.0812826156616211,0.0004665181040763855,0.005104946903884411
1782771903291846000,5.530845947265625,-0.0812835693359375,0.003039717674255371,0.007618736941367388
1782771903301855500,5.54085546875,-0.08846664428710938,0.005434043705463409,-0.0019574901089072227
1782771903311835000,5.5508349609375,-0.06931304931640625,0.010162688791751862,0.00043699704110622406
1782771903321844700,5.5608447265625,-0.07888984680175781,0.01010289415717125,0.012408586218953133
1782771903331795000,5.570794921875,-0.07649517059326172,0.0005261562764644623,0.010074502788484097
1782771903341865700,5.58086572265625,-0.08846569061279297,0.007648855447769165,-0.001896505244076252
1782771903351904500,5.590904541015625,-0.07649421691894531,-0.001927897334098816,0.01959145814180374
1782771903361853200,5.600853271484375,-0.08607101440429688,0.017150361090898514,0.009997634217143059
1782771903371832600,5.61083251953125,-0.07170581817626953,0.019581306725740433,0.007584360893815756
1782771903381842200,5.62084228515625,-0.08607101440429688,0.019490983337163925,0.005169426091015339
1782771903391852000,5.63085205078125,-0.10043621063232422,-0.006867889314889908,0.014781579375267029
1782771903401831200,5.6408310546875,-0.06931209564208984,0.002708975225687027,-0.0019775396212935448
1782771903411841000,5.650841064453125,-0.09804248809814453,0.002768848091363907,0.00999433733522892
1782771903421851000,5.660850830078125,-0.08367729187011719,-0.002079557627439499,0.005206223577260971
1782771903431830000,5.670830078125,-0.07170581817626953,0.012264251708984375,0.026660041883587837
1782771903441839900,5.68083984375,-0.09085845947265625,0.0002748221158981323,0.01943843998014927
1782771903451849700,5.690849609375,-0.08128166198730469,-0.006975147873163223,0.0027167429216206074
1782771903461828900,5.700828857421875,-0.07409954071044922,0.004986617714166641,0.009934404864907265
1782771903471838500,5.71083837890625,-0.09564685821533203,0.0002506151795387268,0.009971833787858486
1782771903481848300,5.720848388671875,-0.09325313568115234,0.0122215636074543,-0.004393668845295906
1782771903491858000,5.73085791015625,-0.09564781188964844,-0.0020836926996707916,-0.006787290796637535
1782771903501837300,5.74083740234375,-0.08607101440429688,0.005098916590213776,0.0004554102197289467
1782771903511847200,5.75084716796875,-0.06931209564208984,0.01952383667230606,0.012486355379223824
1782771903521856800,5.760856689453125,-0.0788888931274414,0.01000712439417839,0.00775804603472352
1782771903531836200,5.770836181640625,-0.08367729187011719,0.007647361606359482,0.014974754303693771
1782771903541846000,5.780845947265625,-0.08607101440429688,-0.0018879584968090057,0.024520747363567352
1782771903551855600,5.790855712890625,-0.09085941314697266,0.0076058655977249146,0.014963194727897644
1782771903561835000,5.8008349609375,-0.0788888931274414,0.00524454191327095,0.024422788992524147
1782771903571844900,5.810844970703125,-0.10043621063232422,0.019571125507354736,0.021903082728385925
1782771903581854500,5.8208544921875,-0.08607101440429688,0.009957198053598404,0.005208517424762249
1782771903591833900,5.830833740234375,-0.08607101440429688,0.009984821081161499,-0.002011427655816078
1782771903601843500,5.840843505859375,-0.08367729187011719,-0.009247679263353348,0.007534320931881666
1782771903611853000,5.85085302734375,-0.09085941314697266,0.01228071004152298,-0.011577007360756397
1782771903621832400,5.86083251953125,-0.08607101440429688,0.01950196921825409,0.007560898084193468
1782771903631842300,5.87084228515625,-0.08607101440429688,-0.0020458437502384186,-0.0019562607631087303
1782771903641852000,5.880851806640625,-0.08607101440429688,-0.004338067024946213,0.026806335896253586
1782771903651831300,5.890831298828125,-0.09804248809814453,0.017253778874874115,0.005241853184998035
1782771903661841200,5.900841064453125,-0.0788888931274414,0.021997511386871338,0.012445049360394478
1782771903671850800,5.910850830078125,-0.09804248809814453,0.012386303395032883,0.0028424044139683247
1782771903681830100,5.920830078125,-0.10043525695800781,0.007430076599121094,0.02439967170357704
1782771903691839700,5.93083984375,-0.08846473693847656,0.019344639033079147,0.010042273439466953
1782771903701849600,5.940849609375,-0.0764932632446289,0.00020695850253105164,0.019684704020619392
1782771903711828700,5.950828857421875,-0.08367633819580078,0.004953052848577499,0.022015618160367012
1782771903721838600,5.960838623046875,-0.08846473693847656,0.012149006128311157,0.0075898864306509495
1782771903731848200,5.97084814453125,-0.08846473693847656,-0.00935991108417511,0.00988699495792389
1782771903741858000,5.980858154296875,-0.078887939453125,-0.0022554583847522736,0.021811649203300476
1782771903751837400,5.99083740234375,-0.0764932632446289,0.002518240362405777,0.005075522698462009
1782771903761847300,6.000847412109375,-0.07410049438476562,-0.004614170640707016,0.007437690626829863
1782771903771857000,6.01085693359375,-0.08367633819580078,0.007342983037233353,0.017033077776432037
1782771903781836000,6.0208359375,-0.0764932632446289,0.00493786484003067,0.0049739619717001915
1782771903791846000,6.030845947265625,-0.0764932632446289,0.0073193758726119995,0.007340805139392614
1782771903801855500,6.04085546875,-0.0764932632446289,0.009699113667011261,0.009768669493496418
1782771903811835000,6.0508349609375,-0.078887939453125,0.0025165677070617676,-0.009324821643531322
1782771903821844700,6.0608447265625,-0.0788888931274414,-0.009394407272338867,0.012163663282990456
1782771903831854300,6.070854248046875,-0.08846473693847656,0.021658919751644135,0.012147149071097374
1782771903841833700,6.080833740234375,-0.06931114196777344,-0.01185990497469902,0.012147149071097374
1782771903851843600,6.090843505859375,-0.08607006072998047,-0.002230405807495117,0.024026058614253998
1782771903861853200,6.100853271484375,-0.09325408935546875,0.01696806028485298,0.007233101408928633
1782771903871832300,6.110832275390625,-0.09085845947265625,0.007311992347240448,0.021552853286266327
1782771903881842200,6.12084228515625,-0.09085845947265625,0.026496823877096176,-0.011993611231446266
1782771903891851800,6.130851806640625,-0.08367633819580078,-0.0022499412298202515,0.000020837411284446716
1782771903901831200,6.1408310546875,-0.08846473693847656,0.021665610373020172,0.007183607202023268
1782771903911841000,6.150841064453125,-0.08367633819580078,0.009731624275445938,0.014406414702534676
1782771903921850600,6.1608505859375,-0.078887939453125,0.002585969865322113,0.01198841817677021
1782771903931830000,6.170830078125,-0.08367633819580078,0.00017673522233963013,0.0072419955395162106
1782771903941840000,6.18083984375,-0.0764932632446289,0.0001629851758480072,0.019190344959497452
1782771903951849700,6.190849609375,-0.09085941314697266,0.007379572838544846,0.031167130917310715
1782771903961828900,6.200828857421875,-0.08367633819580078,0.012136168777942657,0.019194480031728745
1782771903971838500,6.21083837890625,-0.08128166198730469,0.014495670795440674,0.012014949694275856
1782771903981848300,6.220848388671875,-0.08367729187011719,0.002608761191368103,0.007166900206357241
1782771903991858200,6.230858154296875,-0.09085845947265625,0.014474965631961823,0.023851940408349037
1782771904001837300,6.24083740234375,-0.06452274322509766,0.0024696625769138336,-0.00014348793774843216
1782771904011847200,6.25084716796875,-0.08846569061279297,-0.0022868551313877106,0.006930395495146513
1782771904021856800,6.260856689453125,-0.09325313568115234,0.004813764244318008,-0.00028616655617952347
1782771904031836200,6.270836181640625,-0.0764932632446289,-0.007111880928277969,0.01649603433907032
1782771904041846000,6.280845947265625,-0.08367633819580078,0.00963154062628746,0.002161639276891947
1782771904051855600,6.290855712890625,-0.08607101440429688,0.002559039741754532,0.018899666145443916
1782771904061835000,6.3008349609375,-0.10283088684082031,0.007337380200624466,-0.00027085188776254654
1782771904071844900,6.310844970703125,-0.09085941314697266,0.012185420840978622,-0.005059254355728626
1782771904081854500,6.3208544921875,-0.08607101440429688,0.012125391513109207,-0.0003306567668914795
1782771904091833600,6.33083349609375,-0.0764932632446289,0.00007203593850135803,0.028367064893245697
1782771904101843500,6.340843505859375,-0.07170486450195312,-0.009504646062850952,-0.0026970598846673965
1782771904111853000,6.35085302734375,-0.09085941314697266,0.014483772218227386,0.011649303138256073
1782771904121832400,6.36083251953125,-0.08846569061279297,0.009740300476551056,0.016355689615011215
1782771904131842300,6.37084228515625,-0.07170581817626953,0.004937347024679184,-0.0003024805337190628
1782771904141852200,6.38085205078125,-0.07649421691894531,0.00730794295668602,0.021209372207522392
1782771904151831300,6.390831298828125,-0.07649421691894531,0.009797513484954834,0.013990810140967369
1782771904161841200,6.400841064453125,-0.09564781188964844,0.014555618166923523,0.006712862756103277
1782771904171851000,6.41085107421875,-0.08846569061279297,-0.009341560304164886,0.01865427754819393
1782771904181830100,6.420830078125,-0.07649421691894531,-0.004562467336654663,0.01868610456585884
1782771904191839700,6.43083984375,-0.09325408935546875,0.00022056326270103455,-0.0004236949607729912
1782771904201849600,6.440849609375,-0.09564781188964844,-0.00690629705786705,0.009190850891172886
1782771904211828700,6.450828857421875,-0.09085941314697266,0.007450580596923828,0.023521045222878456
1782771904221838600,6.460838623046875,-0.10283088684082031,0.00743928924202919,0.013906242325901985
1782771904231848400,6.470848388671875,-0.08607101440429688,0.0026401393115520477,0.01392819918692112
1782771904241858000,6.480858154296875,-0.08846569061279297,0.01692773774266243,0.01388892438262701
1782771904251837400,6.49083740234375,-0.0812826156616211,0.0024879202246665955,0.006613034289330244
1782771904261847300,6.500847412109375,-0.08607006072998047,0.0024776384234428406,-0.0005306247621774673
1782771904271857000,6.51085693359375,-0.09804153442382812,0.012039948254823685,0.006629632320255041
1782771904281836000,6.5208359375,-0.09564685821533203,0.023981522768735886,0.0019339150749146938
1782771904291846000,6.530845947265625,-0.08607006072998047,0.016760919243097305,0.0019669285975396633
1782771904301855500,6.54085546875,-0.09564685821533203,0.0023764222860336304,-0.0003798399120569229
1782771904311835000,6.5508349609375,-0.09564685821533203,0.01671648398041725,0.009181315079331398
1782771904321844700,6.5608447265625,-0.09085845947265625,0.026299647986888885,-0.007535763084888458
1782771904331854600,6.5708544921875,-0.08607006072998047,-0.009589675813913345,0.025953292846679688
1782771904341833700,6.580833740234375,-0.08128166198730469,0.00954921543598175,-0.009967043064534664
1782771904351843600,6.590843505859375,-0.09804153442382812,0.004670321941375732,0.01879838854074478
1782771904361853200,6.600853271484375,-0.11001110076904297,0.01181420311331749,0.00925078522413969
1782771904371832300,6.610832275390625,-0.07409954071044922,0.009440585970878601,0.014063621871173382
1782771904381842200,6.62084228515625,-0.1004343032836914,0.014196105301380157,0.009307467378675938
1782771904391852000,6.63085205078125,-0.07888603210449219,0.01882127672433853,0.014060440473258495
1782771904401831200,6.6408310546875,-0.09325122833251953,0.006800811737775803,0.023643624037504196
1782771904411841000,6.650841064453125,-0.08606815338134766,0.002097439020872116,0.002059421967715025
1782771904421851000,6.660850830078125,-0.08127975463867188,0.0069128647446632385,0.004420632496476173
1782771904431830000,6.670830078125,-0.08846282958984375,0.021167844533920288,0.004382504150271416
1782771904441839900,6.68083984375,-0.09085750579833984,-0.007409479469060898,0.004357900470495224
1782771904451849700,6.690849609375,-0.09804058074951172,0.014220107346773148,0.0019964096136391163
1782771904461828900,6.700828857421875,-0.08367538452148438,0.01896422728896141,0.0187210813164711
1782771904471838500,6.71083837890625,-0.09085750579833984,0.0069595277309417725,0.006723540369421244
1782771904481848300,6.720848388671875,-0.08846378326416016,-0.002634376287460327,0.004373867064714432
1782771904491858200,6.730858154296875,2.0160398483276367,-0.09834252297878265,0.1911218911409378
1782771904501837300,6.74083740234375,-2.9877967834472656,0.12058596312999725,-0.015286670997738838
1782771904511847200,6.75084716796875,0.017023086547851562,0.005991503596305847,0.03859815374016762
1782771904521856800,6.760856689453125,-0.030867576599121094,-0.0014309510588645935,0.034102533012628555
1782771904531836200,6.770836181640625,-0.1649484634399414,-0.0007126107811927795,0.02632131427526474
1782771904541846000,6.780845947265625,-0.23198890686035156,0.014011867344379425,0.004833025857806206
1782771904551855600,6.790855712890625,-0.47620391845703125,0.007650405168533325,-0.02457844652235508
1782771904561835000,6.8008349609375,-0.038097381591796875,-0.01096317544579506,-0.017505308613181114
1782771904571844900,6.810844970703125,0.4550466537475586,-0.013872388750314713,0.0569138377904892
