time,seconds_elapsed,z,y,x
1782771741927572700,0.21457275390625,-0.03339672088623047,-0.0008940957486629486,0.0005943998694419861
1782771741937582600,0.22458251953125,-0.04536724090576172,0.0012466423213481903,-0.0179886557161808
1782771741947592200,0.23459228515625,-0.03100109100341797,-0.0013870224356651306,-0.034209005534648895
1782771741957571300,0.2445712890625,-0.05254650115966797,-0.004021491855382919,-0.007331911940127611
1782771741967581200,0.254581298828125,-0.06212425231933594,0.005674645304679871,-0.00008932547643780708
1782771741977590800,0.2645908203125,-0.06212425231933594,-0.0015680231153964996,-0.014454232528805733
1782771741987570200,0.274570068359375,-0.047759056091308594,-0.01826762780547142,-0.009664924815297127
1782771741997580000,0.284580078125,-0.05015373229980469,-0.011144895106554031,-0.007270722649991512
1782771742007590000,0.29458984375,-0.05973052978515625,0.003280181437730789,-0.004936684854328632
1782771742017569000,0.304569091796875,-0.0717010498046875,0.00567438080906868,-0.014453395269811153
1782771742027579000,0.314578857421875,-0.057335853576660156,-0.0039024241268634796,0.019065428525209427
1782771742037588700,0.324588623046875,-0.06212425231933594,-0.006296653300523758,-0.009604291059076786
1782771742047568000,0.33456787109375,-0.05015373229980469,-0.013479258865118027,0.007155120372772217
1782771742057577500,0.344577392578125,-0.05015373229980469,0.0032801292836666107,-0.011937976814806461
1782771742067587300,0.35458740234375,-0.06212425231933594,-0.0062966980040073395,-0.009603304788470268
1782771742077566500,0.36456640625,-0.06451892852783203,-0.001448214054107666,-0.019119715318083763
1782771742087576300,0.374576416015625,-0.06451892852783203,0.010582435876131058,-0.016725212335586548
1782771742097586200,0.384586181640625,-0.06930828094482422,-0.013299506157636642,-0.000025595072656869888
1782771742107565300,0.3945654296875,-0.062125205993652344,0.005854099988937378,-0.00726773077622056
1782771742117575200,0.4045751953125,-0.0740966796875,-0.01090531051158905,-0.009602020494639874
1782771742127585000,0.4145849609375,-0.06691360473632812,0.001125480979681015,-0.009541589766740799
1782771742137564200,0.424564208984375,-0.04057884216308594,-0.017847832292318344,-0.004632993601262569
1782771742147573800,0.43457373046875,-0.08128070831298828,-0.012999795377254486,0.004944111220538616
1782771742157583600,0.44458349609375,-0.07409858703613281,0.00854802131652832,-0.006966802291572094
1782771742167562800,0.454562744140625,-0.06452178955078125,-0.008151572197675705,-0.0021182699128985405
1782771742177572600,0.464572509765625,-0.08846473693847656,-0.008031759411096573,-0.014089278876781464
1782771742187582500,0.47458251953125,-0.054945945739746094,-0.00324336439371109,0.00027622864581644535
1782771742197592300,0.48459228515625,-0.05733966827392578,-0.003183264285326004,-0.009300577454268932
1782771742207571500,0.494571533203125,-0.047763824462890625,-0.007852036505937576,-0.011694185435771942
1782771742217581300,0.504581298828125,-0.06452274322509766,0.013635866343975067,0.0026710242964327335
1782771742227591200,0.514591064453125,-0.059734344482421875,0.0016648471355438232,-0.009299688041210175
1782771742237570300,0.5245703125,-0.06452274322509766,-0.0031235776841640472,0.0027317132335156202
1782771742247580000,0.534579833984375,-0.0788888931274414,-0.015034925192594528,0.009914318099617958
1782771742257589800,0.54458984375,-0.07410049438476562,-0.007852327078580856,-0.013967601582407951
1782771742267569200,0.554569091796875,-0.05734062194824219,-0.010246537625789642,-0.0090592410415411
1782771742277578800,0.564578857421875,-0.07170581817626953,-0.0006098411977291107,0.005366177298128605
1782771742287588600,0.574588623046875,-0.06691741943359375,-0.015034887939691544,-0.008938905782997608
1782771742297567700,0.584567626953125,-0.05973529815673828,0.01142151653766632,-0.006544703617691994
1782771742307577600,0.59457763671875,-0.047763824462890625,-0.012460839003324509,-0.004150796681642532
1782771742317587500,0.60458740234375,-0.07170581817626953,-0.017309345304965973,0.02218571864068508
1782771742327566600,0.614566650390625,-0.06452369689941406,-0.014915142208337784,0.005486138164997101
1782771742337576400,0.624576416015625,-0.08367729187011719,-0.007792461663484573,0.0007579431403428316
1782771742347586300,0.63458642578125,-0.06452369689941406,0.008966941386461258,-0.0255181472748518
1782771742357565400,0.6445654296875,-0.06691741943359375,0.0017843320965766907,0.0031524747610092163
1782771742367575300,0.6545751953125,-0.05734062194824219,0.00890713557600975,0.0007585689891129732
1782771742377585000,0.6645849609375,-0.08367729187011719,-0.012580730020999908,-0.00402953801676631
1782771742387564000,0.67456396484375,-0.05734062194824219,0.004238523542881012,-0.006304373033344746
1782771742397574000,0.684573974609375,-0.0812835693359375,-0.012460995465517044,-0.030125973746180534
1782771742407583700,0.694583740234375,-0.06452465057373047,-0.002884194254875183,-0.003789460752159357
1782771742417563000,0.70456298828125,-0.0812835693359375,0.006752707064151764,0.0010590386809781194
1782771742427572700,0.71457275390625,-0.06931400299072266,-0.007493205368518829,-0.003610070561990142
1782771742437582600,0.72458251953125,-0.07410240173339844,-0.014675822108983994,0.0012387243332341313
1782771742447592400,0.734592529296875,-0.06452560424804688,-0.00019095465540885925,0.006027128081768751
1782771742457571600,0.744571533203125,-0.07170772552490234,-0.009827863425016403,-0.008277692832052708
1782771742467581200,0.754581298828125,-0.07410240173339844,0.0020835064351558685,-0.012946798466145992
1782771742477591000,0.764591064453125,-0.07649612426757812,-0.014615826308727264,0.0038730015512555838
1782771742487570200,0.774570068359375,-0.07410240173339844,-0.0050390176475048065,0.006266909651458263
1782771742497580000,0.784580078125,-0.0860738754272461,-0.0025849007070064545,-0.0009156952146440744
1782771742507590000,0.79458984375,-0.0812845230102539,-0.00982733815908432,-0.010492502711713314
1782771742517569000,0.804569091796875,-0.06691932678222656,0.004537869244813919,-0.003309602150693536
1782771742527579000,0.814578857421875,-0.07649707794189453,-0.00737348198890686,0.0014785084640607238
1782771742537588700,0.824588623046875,-0.0836801528930664,-0.014435894787311554,-0.0200693067163229
1782771742547567900,0.83456787109375,-0.059739112854003906,0.0000489652156829834,-0.0128864087164402
1782771742557577500,0.844577392578125,-0.0860748291015625,-0.009527839720249176,-0.0009154009749181569
1782771742567587300,0.85458740234375,-0.06931591033935547,-0.004739440977573395,-0.017614690586924553
1782771742577566500,0.86456640625,-0.08128547668457031,-0.004799533635377884,0.008721528574824333
1782771742587576300,0.874576416015625,-0.07889270782470703,0.007231123745441437,-0.00564368162304163
1782771742597586200,0.884586181640625,-0.09086322784423828,0.0024427250027656555,-0.005643974989652634
1782771742607565300,0.8945654296875,-0.08128643035888672,0.004896759986877441,0.0038730010855942965
1782771742617575200,0.9045751953125,-0.07889270782470703,-0.007074248045682907,0.011055897921323776
1782771742627585000,0.9145849609375,-0.07889366149902344,0.0145333930850029,-0.010431795381009579
1782771742637564200,0.924564208984375,-0.09565162658691406,0.004896484315395355,0.006327908951789141
1782771742647574000,0.934573974609375,-0.07171058654785156,0.007409963756799698,-0.017613817006349564
1782771742657583600,0.94458349609375,-0.06692218780517578,-0.004621125757694244,-0.01282541360706091
1782771742667562800,0.954562744140625,-0.0645284652709961,-0.004501480609178543,-0.015219325199723244
1782771742677572600,0.964572509765625,-0.07649803161621094,-0.006955593824386597,-0.010251183994114399
1782771742687582500,0.97458251953125,-0.07889270782470703,0.0001671724021434784,0.0017799462657421827
1782771742697592000,0.984592041015625,-0.0860738754272461,-0.009469732642173767,-0.0029480704106390476
1782771742707571500,0.994571533203125,-0.07649803161621094,-0.00701570138335228,-0.0053419810719788074
1782771742717581300,1.004581298828125,-0.07889270782470703,0.009743701666593552,-0.0028872843831777573
1782771742727591000,1.0145908203125,-0.07410526275634766,-0.0021674707531929016,-0.0052216555923223495
1782771742737570300,1.0245703125,-0.07410526275634766,-0.0045015849173069,-0.002886674366891384
1782771742747580000,1.034579833984375,-0.07410526275634766,0.014592379331588745,-0.0028270273469388485
1782771742757589800,1.04458984375,-0.07410526275634766,0.005015574395656586,-0.0004926301189698279
1782771742767569200,1.054569091796875,-0.07410526275634766,0.007469605654478073,-0.005281033925712109
1782771742777578800,1.064578857421875,-0.088470458984375,0.0051353126764297485,-0.007615324109792709
1782771742787588600,1.074588623046875,-0.09325885772705078,0.009923718869686127,-0.0075554926879704
1782771742797567700,1.084567626953125,-0.088470458984375,-0.011624101549386978,-0.010009498335421085
1782771742807577600,1.09457763671875,-0.07410526275634766,0.014652468264102936,-0.02198021672666073
1782771742817587500,1.10458740234375,-0.09804725646972656,0.000407438725233078,0.016327301040291786
1782771742827566600,1.114566650390625,-0.08368206024169922,-0.004380963742733002,-0.0100089181214571
1782771742837576400,1.124576416015625,-0.0860757827758789,-0.004500787705183029,0.016387218609452248
1782771742847586300,1.13458642578125,-0.088470458984375,-0.002046748995780945,-0.012343202717602253
1782771742857565400,1.1445654296875,-0.08128738403320312,0.00040753185749053955,0.011599103920161724
1782771742867575000,1.154574951171875,-0.05974102020263672,0.007649783045053482,0.006810990162193775
1782771742877585000,1.1645849609375,-0.09325981140136719,-0.00904952734708786,0.0068109906278550625
1782771742887564000,1.17456396484375,-0.07649993896484375,0.010104082524776459,0.004476909060031176
1782771742897574000,1.184573974609375,-0.08607673645019531,0.0006470941007137299,-0.0122225908562541
1782771742907583700,1.194583740234375,-0.09565448760986328,-0.004081469029188156,-0.00976855680346489
1782771742917563000,1.20456298828125,-0.07889461517333984,0.003041040152311325,-0.00258566252887249
1782771742927572700,1.21457275390625,-0.08368396759033203,-0.006476107984781265,-0.004979864228516817
1782771742937582600,1.22458251953125,-0.0884714126586914,0.005434799939393997,-0.014436190016567707
1782771742947592400,1.234592529296875,-0.08128833770751953,-0.006536208093166351,-0.007193755358457565
1782771742957571300,1.2445712890625,-0.0884714126586914,0.000646393746137619,-0.002405351959168911
1782771742967581200,1.254581298828125,-0.0932607650756836,-0.004082363098859787,0.0025026360526680946
1782771742977591000,1.264591064453125,-0.09565353393554688,0.010222755372524261,0.00495693227276206
1782771742987570200,1.274570068359375,-0.08368396759033203,0.00788838043808937,0.01698748581111431
1782771742997580000,1.284580078125,-0.08368396759033203,-0.006536815315485001,-0.016471054404973984
1782771743007590000,1.29458984375,-0.0669240951538086,-0.0185078252106905,-0.0045003341510891914
1782771743017569000,1.304569091796875,-0.07889556884765625,-0.01611362397670746,0.0004079072386957705
1782771743027579000,1.314578857421875,-0.07410717010498047,0.0007054619491100311,-0.013837943784892559
1782771743037588700,1.324588623046875,-0.08129024505615234,0.0032198019325733185,-0.0018062939634546638
1782771743047568000,1.33456787109375,-0.08607864379882812,-0.008691344410181046,0.0005879074451513588
1782771743057577500,1.344577392578125,-0.066925048828125,0.010522149503231049,-0.011383100412786007
1782771743067587300,1.35458740234375,-0.066925048828125,-0.0039029158651828766,0.0006483469624072313
1782771743077566500,1.36456640625,-0.10523223876953125,-0.00138859823346138,0.0030428357422351837
1782771743087576300,1.374576416015625,-0.08129024505615234,-0.010965399444103241,-0.0016858838498592377
1782771743097586200,1.384586181640625,-0.08847332000732422,-0.0037827976047992706,-0.00886820163577795
1782771743107565300,1.3945654296875,-0.07171344757080078,0.01064225286245346,-0.006473713554441929
1782771743117575200,1.4045751953125,-0.10044479370117188,0.008307963609695435,-0.004019313957542181
1782771743127585000,1.4145849609375,-0.06453227996826172,-0.015634045004844666,0.0007098285132087767
1782771743137564200,1.424564208984375,-0.07410812377929688,-0.008511528372764587,-0.006472776643931866
1782771743147574000,1.434573974609375,-0.08368587493896484,-0.015574827790260315,0.005558167118579149
1782771743157583600,1.44458349609375,-0.10044574737548828,-0.015514727681875229,0.0007700491114519536
1782771743167562800,1.454562744140625,-0.09326362609863281,0.0012446828186511993,-0.011081013828516006
1782771743177572600,1.464572509765625,-0.08847427368164062,-0.0012094192206859589,0.000830367614980787
1782771743187582500,1.47458251953125,-0.07411003112792969,0.00603301078081131,-0.0015040028374642134
1782771743197592000,1.484592041015625,-0.07171440124511719,0.008367128670215607,0.01052738819271326
1782771743207571500,1.494571533203125,-0.057349205017089844,0.0011246837675571442,0.0059181880205869675
1782771743217581300,1.504581298828125,-0.07650279998779297,-0.006057918071746826,-0.0012045021867379546
1782771743227591000,1.5145908203125,-0.07889842987060547,-0.010726667940616608,-0.0059333606623113155
1782771743237570300,1.5245703125,-0.08129215240478516,-0.010666586458683014,0.01328006200492382
1782771743247580000,1.534579833984375,-0.07650375366210938,-0.008391674607992172,0.00124940590467304
1782771743257589800,1.54458984375,-0.0717153549194336,0.0035793334245681763,-0.001084703952074051
1782771743267569200,1.554569091796875,-0.08129215240478516,0.0036990121006965637,-0.010660940781235695
1782771743277578800,1.564578857421875,-0.08608055114746094,0.003758937120437622,-0.00820654071867466
1782771743287588600,1.574588623046875,-0.0956573486328125,0.003758959472179413,0.00861326977610588
1782771743297567700,1.584567626953125,-0.08129215240478516,-0.00827213004231453,-0.0057516563683748245
1782771743307577600,1.59457763671875,-0.0717153549194336,-0.005877915769815445,0.006339215207844973
1782771743317587500,1.60458740234375,-0.08608055114746094,0.0061531998217105865,0.011188283562660217
1782771743327566600,1.614566650390625,-0.06213855743408203,0.010941598564386368,-0.005511579103767872
1782771743337576400,1.624576416015625,-0.08368682861328125,-0.02257722243666649,-0.005391755141317844
1782771743347586300,1.63458642578125,-0.07650375366210938,-0.0010294057428836823,-0.007726125419139862
1782771743357565400,1.6445654296875,-0.06692695617675781,-0.003363523632287979,-0.0005435205530375242
1782771743367575000,1.654574951171875,-0.10523414611816406,0.0013652592897415161,-0.0077255601063370705
1782771743377585000,1.6645849609375,-0.08608055114746094,0.0013652555644512177,0.004305542912334204
1782771743387564000,1.67456396484375,-0.08129310607910156,0.008667528629302979,0.011488148011267185
1782771743397574000,1.684573974609375,-0.10284042358398438,0.013396020978689194,-0.00042294757440686226
1782771743407583700,1.694583740234375,-0.08608150482177734,0.003879055380821228,-0.014728044159710407
1782771743417563000,1.70456298828125,-0.08608150482177734,-0.0009093470871448517,-0.01227374654263258
1782771743427572700,1.71457275390625,-0.08608055114746094,-0.005757402628660202,-0.005031493958085775
1782771743437582600,1.72458251953125,-0.07171630859375,-0.0009088888764381409,0.006999894045293331
1782771743447592400,1.734592529296875,-0.07650470733642578,0.006273727864027023,0.004665807355195284
1782771743457571600,1.744571533203125,-0.08368778228759766,-0.005697280168533325,-0.0000624998938292265
1782771743467581200,1.754581298828125,-0.08847618103027344,-0.008151113986968994,0.0023916312493383884
1782771743477591000,1.764591064453125,-0.08608150482177734,-0.012939531356096268,-0.007185460068285465
1782771743487570200,1.774570068359375,-0.06932258605957031,0.00860828161239624,0.011968153528869152
1782771743497580000,1.784580078125,-0.08608150482177734,-0.003242921084165573,-0.019036926329135895
1782771743507590000,1.79458984375,-0.09086990356445312,-0.005577269941568375,0.004905372858047485
1782771743517569000,1.804569091796875,-0.06932258605957031,-0.007911361753940582,0.002571550663560629
1782771743527579000,1.814578857421875,-0.08847618103027344,0.0016057975590229034,0.007359954062849283
1782771743537588700,1.824588623046875,-0.08368778228759766,0.008788399398326874,-0.004490864463150501
1782771743547567900,1.83456787109375,-0.0956583023071289,-0.010365217924118042,-0.006825233809649944
1782771743557577500,1.844577392578125,-0.0956583023071289,-0.0007284730672836304,-0.004310925491154194
1782771743567587300,1.85458740234375,-0.08847618103027344,-0.01263963058590889,-0.006585182622075081
1782771743577566500,1.86456640625,-0.1004476547241211,-0.000608544796705246,0.005445638671517372
1782771743587576300,1.874576416015625,-0.07890129089355469,-0.0004892498254776001,-0.011254125274717808
1782771743597586200,1.884586181640625,-0.08608341217041016,0.002025119960308075,0.0007766967173665762
1782771743607565300,1.8945654296875,-0.08129501342773438,0.009207740426063538,0.008079247549176216
1782771743617575200,1.9045751953125,-0.1004486083984375,0.004359476268291473,0.000957113690674305
1782771743627585000,1.9145849609375,-0.09087181091308594,0.004359465092420578,0.005805349443107843
1782771743637564200,1.924564208984375,-0.08608341217041016,0.018784787505865097,0.0058657266199588776
1782771743647574000,1.934573974609375,-0.06932449340820312,0.011602204293012619,-0.008439555764198303
1782771743657583600,1.94458349609375,-0.08368968963623047,0.002085518091917038,0.0011976254172623158
1782771743667562800,1.954562744140625,-0.08368968963623047,0.011722151190042496,0.010834263637661934
1782771743677572600,1.964572509765625,-0.0741128921508789,-0.017068134620785713,-0.001076274085789919
1782771743687582500,1.97458251953125,-0.09087181091308594,0.0044797249138355255,0.010895293205976486
1782771743697592000,1.984592041015625,-0.08608341217041016,-0.002702854573726654,-0.008318135514855385
1782771743707571500,1.994571533203125,-0.08608341217041016,-0.012219808995723724,-0.013046430423855782
1782771743717581300,2.004581298828125,-0.09087276458740234,0.004599492996931076,0.0037726149894297123
1782771743727591000,2.0145908203125,-0.076507568359375,-0.00976569578051567,0.010955498553812504
1782771743737570300,2.0245703125,-0.09805583953857422,0.011842213571071625,0.003893087385222316
1782771743747580000,2.034579833984375,-0.0789022445678711,-0.002522975206375122,-0.012866048142313957
1782771743757589800,2.04458984375,-0.076507568359375,-0.004917152225971222,0.013530546799302101
1782771743767569200,2.054569091796875,-0.06693077087402344,-0.009765367954969406,0.0014999865088611841
1782771743777578800,2.064578857421875,-0.076507568359375,0.014296524226665497,0.003954657819122076
1782771743787588600,2.074588623046875,-0.08129596710205078,0.00232551246881485,0.011197094805538654
1782771743797567700,2.084567626953125,-0.09326744079589844,0.002325538545846939,0.011257468722760677
1782771743807577600,2.09457763671875,-0.08129596710205078,0.009567789733409882,0.008863266557455063
1782771743817587500,2.10458740234375,-0.09087276458740234,0.0025053992867469788,0.0017410372383892536
1782771743827566600,2.114566650390625,-0.08847999572753906,0.005019228905439377,-0.005441845394670963
1782771743837576400,2.124576416015625,-0.09087467193603516,-0.002163354307413101,-0.015078291296958923
1782771743847586300,2.13458642578125,-0.07411575317382812,0.0027447380125522614,-0.0007128049619495869
1782771743857565400,2.1445654296875,-0.08369255065917969,-0.004437852650880814,-0.012683536857366562
1782771743867575000,2.154574951171875,-0.0812978744506836,0.00029093772172927856,0.008864552713930607
1782771743877585000,2.1645849609375,-0.07411575317382812,0.005079343914985657,-0.00316654983907938
1782771743887564000,2.17456396484375,-0.07650947570800781,-0.006831858307123184,-0.00795522890985012
1782771743897574000,2.184573974609375,-0.08608627319335938,-0.00449756532907486,0.004135603550821543
1782771743907583700,2.194583740234375,-0.08608627319335938,-0.004437733441591263,0.00892400648444891
1782771743917563000,2.20456298828125,-0.0789041519165039,0.017170194536447525,-0.005380831193178892
1782771743927572700,2.21457275390625,-0.07172107696533203,-0.004317935556173325,0.001802047248929739
1782771743937582600,2.22458251953125,-0.08848190307617188,0.000530581921339035,-0.005320184864103794
1782771743947592400,2.234592529296875,-0.07411766052246094,0.005498532205820084,0.0019227974116802216
1782771743957571300,2.2445712890625,-0.08848285675048828,0.012681134045124054,0.006831392180174589
1782771743967581200,2.254581298828125,-0.08608818054199219,0.005438890308141708,0.014133293181657791
1782771743977591000,2.264591064453125,-0.07651138305664062,0.0031649284064769745,0.002222927752882242
1782771743987570200,2.274570068359375,-0.07411766052246094,0.0031649507582187653,-0.012082177214324474
1782771743997580000,2.284580078125,-0.0812997817993164,-0.018382862210273743,-0.0024454579688608646
1782771744007590000,2.29458984375,-0.07411766052246094,0.005559153854846954,-0.0024454579688608646
1782771744017569000,2.304569091796875,-0.07890605926513672,0.0007707849144935608,0.0024033146910369396
1782771744027579000,2.314578857421875,-0.06454086303710938,0.005618866533041,0.00006903428584337234
1782771744037588700,2.324588623046875,-0.08848285675048828,0.012801490724086761,0.004917807411402464
1782771744047568000,2.33456787109375,-0.08608818054199219,0.010407313704490662,0.009706482291221619
1782771744057577500,2.344577392578125,-0.0836944580078125,0.00807308778166771,-0.004718094132840633
1782771744067587300,2.35458740234375,-0.0860891342163086,-0.0014438889920711517,-0.007052465807646513
1782771744077566500,2.36456640625,-0.07651233673095703,-0.0062322914600372314,0.009827300906181335
1782771744087576300,2.374576416015625,-0.08130073547363281,0.010586686432361603,0.007552230264991522
1782771744097586200,2.384586181640625,-0.07890701293945312,-0.00850680097937584,-0.009206637740135193
1782771744107565300,2.3945654296875,-0.06693553924560547,0.010706678032875061,0.0052184369415044785
1782771744117575200,2.4045751953125,-0.0884847640991211,-0.005992826074361801,-0.004417977295815945
1782771744127585000,2.4145849609375,-0.09327220916748047,0.00352415069937706,-0.0020235045813024044
1782771744137564200,2.424564208984375,-0.07890796661376953,-0.003598388284444809,0.007553301751613617
1782771744147574000,2.434573974609375,-0.07890796661376953,0.0035842135548591614,0.019583990797400475
1782771744157583600,2.44458349609375,-0.10284996032714844,0.0012501329183578491,0.01964459754526615
1782771744167562800,2.454562744140625,-0.07651424407958984,0.001310061663389206,0.0005513858050107956
1782771744177572600,2.464572509765625,-0.07412052154541016,0.0014299601316452026,0.00546015240252018
1782771744187582500,2.47458251953125,-0.0860910415649414,0.0014898478984832764,0.022220103070139885
1782771744197592000,2.484592041015625,-0.08369731903076172,0.006389155983924866,0.024699553847312927
1782771744207571500,2.494571533203125,-0.08130264282226562,-0.0032538659870624542,0.02944243513047695
1782771744217521700,2.504521728515625,-0.06693840026855469,-0.00553111732006073,-0.001718119252473116
1782771744227652000,2.514652099609375,-0.07651519775390625,-0.0030185841023921967,0.003109981305897236
1782771744237570300,2.5245703125,-0.08609199523925781,-0.0005636438727378845,-0.011133555322885513
1782771744247580000,2.534579833984375,-0.07172679901123047,-0.007746212184429169,0.00802032183855772
1782771744257589800,2.54458984375,-0.07891082763671875,-0.007625944912433624,-0.0015559503808617592
1782771744267569200,2.554569091796875,-0.0908803939819336,0.0018910914659500122,0.0200522281229496
1782771744277578800,2.564578857421875,-0.0932760238647461,0.006739441305398941,0.017718203365802765
1782771744287588600,2.574588623046875,-0.07891082763671875,0.00912737101316452,0.020129861310124397
1782771744297567700,2.584567626953125,-0.08369922637939453,-0.0028436295688152313,-0.0061462633311748505
1782771744307577600,2.59457763671875,-0.08369922637939453,0.006792742758989334,-0.0013583879917860031
1782771744318625300,2.605625244140625,-0.08609294891357422,-0.0027840211987495422,-0.010934928432106972
1782771744337576400,2.624576416015625,-0.08369922637939453,0.01630358025431633,0.015467578545212746
1782771744347586300,2.63458642578125,-0.07651615142822266,0.001938406378030777,-0.0012915688566863537
1782771744357565400,2.6445654296875,-0.07412242889404297,-0.00045580044388771057,0.003617027308791876
1782771744367575000,2.654574951171875,-0.06693840026855469,0.013849660754203796,0.008465484715998173
1782771744377525200,2.664525146484375,-0.08609199523925781,0.016363807022571564,0.001343101728707552
1782771744387596000,2.674595947265625,-0.08609294891357422,-0.005124378949403763,-0.0009912429377436638
1782771744398736400,2.685736328125,-0.07651615142822266,0.01169554516673088,-0.005779645871371031
1782771744417503500,2.70450341796875,-0.07651615142822266,-0.00038164854049682617,0.003930618520826101
1782771744427664100,2.7146640625,-0.07172870635986328,0.0021792761981487274,0.02785196527838707
1782771744437582600,2.72458251953125,-0.07651615142822266,-0.0002861097455024719,0.013523321598768234
1782771744447592400,2.734592529296875,-0.0669393539428711,0.009231414645910263,-0.003176807425916195
1782771744457571300,2.7445712890625,-0.08609294891357422,0.011670395731925964,0.013621554709970951
1782771744467581200,2.754581298828125,-0.0669393539428711,0.016458842903375626,-0.02235085517168045
1782771744477591000,2.764591064453125,-0.07412338256835938,0.0069422125816345215,0.001651788130402565
1782771744487570200,2.774570068359375,-0.06933403015136719,-0.007482763379812241,0.003986690659075975
1782771744497580000,2.784580078125,-0.09566974639892578,0.00927669182419777,0.015898052603006363
1782771744507530200,2.7945302734375,-0.06933403015136719,-0.0003001168370246887,-0.008043963462114334
1782771744518796300,2.80579638671875,-0.0669403076171875,0.009336672723293304,-0.012771930545568466
1782771744537588700,2.824588623046875,-0.07172870635986328,-0.002461519092321396,-0.005468567367643118
1782771744547539000,2.8345390625,-0.08370113372802734,-0.009524442255496979,0.0017143012955784798
1782771744558342000,2.845341796875,-0.0956716537475586,-0.004616092890501022,0.01620011404156685
1782771744577566500,2.86456640625,-0.08849048614501953,0.002750791609287262,0.009090591222047806
1782771744587517000,2.874516845703125,-0.09088325500488281,0.009933438152074814,-0.010003114119172096
1782771744598359800,2.88535986328125,-0.08609485626220703,-0.006825901567935944,-0.005154279991984367
1782771744617515800,2.904515869140625,-0.08130741119384766,0.005200691521167755,0.033153753727674484
1782771744627646000,2.91464599609375,-0.08849048614501953,0.0004122592508792877,0.011724495328962803
1782771744637564200,2.924564208984375,-0.10046100616455078,0.0004729628562927246,0.011724495328962803
1782771744647573800,2.93457373046875,-0.0956735610961914,0.012494150549173355,0.021272970363497734
1782771744657583600,2.94458349609375,-0.0956735610961914,-0.001871105283498764,-0.0025491160340607166
1782771744667562800,2.954562744140625,-0.08370304107666016,0.007765613496303558,-0.0025485954247415066
1782771744677572600,2.964572509765625,-0.08130836486816406,-0.001811191439628601,0.011816615238785744
1782771744687522800,2.974522705078125,-0.07891464233398438,0.014888353645801544,0.007147612515836954
1782771744697653200,2.9846533203125,-0.07891368865966797,0.0052517130970954895,0.00954233668744564
1782771744707571500,2.994571533203125,-0.07651996612548828,0.012494746595621109,0.004754193592816591
1782771744717581300,3.004581298828125,-0.06694316864013672,0.0005237869918346405,0.011996605433523655
1782771744727591200,3.014591064453125,-0.0980672836303711,0.005301780998706818,0.01203942485153675
1782771744737570300,3.0245703125,-0.0741262435913086,0.02926493063569069,0.021571239456534386
1782771744747580000,3.034579833984375,-0.08609580993652344,-0.001885194331407547,0.00005235802382230759
1782771744757589800,3.04458984375,-0.07651996612548828,-0.004234321415424347,0.004819042980670929
1782771744767569200,3.054569091796875,-0.0717315673828125,0.0006738752126693726,-0.002362783532589674
1782771744777578800,3.064578857421875,-0.07891464233398438,-0.0017202794551849365,0.00966839399188757
1782771744787588600,3.074588623046875,-0.09327983856201172,0.003008328378200531,0.0025458810850977898
1782771744797508400,3.08450830078125,-0.07891464233398438,0.01497933641076088,-0.004636723548173904
1782771744807638500,3.094638427734375,-0.07651901245117188,0.024536259472370148,0.00977579690515995
1782771744817527800,3.10452783203125,-0.07891368865966797,0.005321938544511795,-0.004468010738492012
1782771744827598600,3.1145986328125,-0.09088516235351562,0.002987012267112732,0.0002614222466945648
1782771744838707200,3.125707275390625,-0.10046195983886719,0.015046074986457825,0.009821767918765545
1782771744857565400,3.1445654296875,-0.09088516235351562,0.012692507356405258,0.012216255068778992
1782771744867575300,3.1545751953125,-0.09327983856201172,0.01745475083589554,0.014656102284789085
1782771744877585000,3.1645849609375,-0.07891464233398438,-0.011275622993707657,0.0051997448317706585
1782771744887564000,3.17456396484375,-0.09327983856201172,0.0030896328389644623,-0.00437680259346962
1782771744897574000,3.184573974609375,-0.09327983856201172,0.007878035306930542,0.0028058020398020744
1782771744907583700,3.194583740234375,-0.07651996612548828,0.0006356500089168549,0.014836899004876614
1782771744917563000,3.20456298828125,-0.08370304107666016,0.014940857887268066,0.002866411115974188
1782771744927572700,3.21457275390625,-0.06215476989746094,0.014940939843654633,0.0028669298626482487
1782771744937582600,3.22458251953125,-0.08609676361083984,-0.0017583221197128296,0.01010989025235176
1782771744947592200,3.23459228515625,-0.05497169494628906,0.005424328148365021,0.010169979184865952
1782771744957571300,3.2445712890625,-0.07412528991699219,-0.008940830826759338,0.010230334475636482
1782771744967581200,3.254581298828125,-0.08609580993652344,0.014988396316766739,0.019847461953759193
1782771744977590800,3.2645908203125,-0.08370304107666016,0.01987198367714882,0.007909901440143585
1782771744987570200,3.274570068359375,-0.09327983856201172,-0.00879860669374466,0.0008469619788229465
1782771744997580000,3.284580078125,-0.08609676361083984,-0.0015560872852802277,-0.006335643120110035
1782771745007590000,3.29458984375,-0.07891464233398438,0.008020717650651932,0.005635365378111601
1782771745017569000,3.304569091796875,-0.08849143981933594,0.007960665971040726,-0.006395481526851654
1782771745027579000,3.314578857421875,-0.09088516235351562,-0.01837555319070816,0.0007871235720813274
1782771745037588700,3.324588623046875,-0.08130836486816406,-0.006344348192214966,0.0007876432500779629
1782771745047568000,3.33456787109375,-0.07891464233398438,0.0008980929851531982,0.015093021094799042
1782771745057577500,3.344577392578125,-0.0717315673828125,0.005626719444990158,0.012699594721198082
1782771745067587300,3.35458740234375,-0.06215476989746094,0.015263453125953674,0.017548345029354095
1782771745077566500,3.36456640625,-0.08609771728515625,-0.0038299523293972015,0.01521475613117218
1782771745087576300,3.374576416015625,-0.08130836486816406,0.010475602000951767,-0.0014850087463855743
1782771745097586200,3.384586181640625,-0.09327983856201172,0.015187796205282211,0.017703644931316376
1782771745107565300,3.3945654296875,-0.08849143981933594,0.007981345057487488,0.029627405107021332
1782771745117575200,3.4045751953125,-0.08849143981933594,0.010408446192741394,0.015272626653313637
1782771745127585000,3.4145849609375,-0.08370304107666016,0.017611727118492126,0.008036704733967781
1782771745137564200,3.424564208984375,-0.0717315673828125,-0.006352648138999939,0.0032112672924995422
1782771745147574000,3.434573974609375,-0.07651996612548828,-0.0038986988365650177,-0.0064246766269207
1782771745157583600,3.44458349609375,-0.07891464233398438,0.015254966914653778,0.0032727476209402084
1782771745167562800,3.454562744140625,-0.08609676361083984,0.0056185536086559296,0.003333267755806446
1782771745177572600,3.464572509765625,-0.07891464233398438,0.008060209453105927,0.01780310645699501
1782771745187582500,3.47458251953125,-0.09088516235351562,0.010394498705863953,-0.00613916851580143
1782771745197592300,3.48459228515625,-0.0956735610961914,-0.008773226290941238,0.0249590203166008
1782771745207571500,3.494571533203125,-0.08849143981933594,-0.011114761233329773,0.027317721396684647
1782771745217581300,3.504581298828125,-0.09088516235351562,0.01520707830786705,0.010461494326591492
1782771745227591200,3.514591064453125,-0.06933784484863281,0.008008163422346115,0.01042523980140686
1782771745237570300,3.5245703125,-0.0956735610961914,0.020015154033899307,-0.006360976956784725
1782771745247580200,3.534580078125,-0.08370304107666016,-0.0016059577465057373,0.007985616102814674
1782771745257589800,3.54458984375,-0.08370304107666016,-0.011242855340242386,0.010379817336797714
1782771745267569200,3.554569091796875,-0.06694316864013672,0.005576442927122116,0.00559167331084609
1782771745277578800,3.564578857421875,-0.09327983856201172,0.00803065299987793,0.0032579004764556885
1782771745287588600,3.574588623046875,-0.08370304107666016,0.0008481480181217194,-0.003864358179271221
1782771745297567700,3.584567626953125,-0.08370304107666016,-0.0015461519360542297,0.015348833054304123
1782771745307577600,3.59457763671875,-0.08130836486816406,0.019987501204013824,0.010541865602135658
1782771745317587500,3.60458740234375,-0.08849143981933594,0.020017709583044052,-0.0039043519645929337
1782771745327566600,3.614566650390625,-0.08130836486816406,0.019980162382125854,0.005651043262332678
1782771745337576400,3.624576416015625,-0.08130836486816406,0.01994803547859192,0.010362138971686363
1782771745347586300,3.63458642578125,-0.08370304107666016,-0.011262070387601852,0.00800643302500248
1782771745357565400,3.6445654296875,-0.07891368865966797,0.012653112411499023,0.005532762501388788
1782771745367575300,3.6545751953125,-0.08130741119384766,0.010223586112260818,0.015138903632760048
1782771745377585000,3.6645849609375,-0.08370208740234375,0.0006467774510383606,-0.008682920597493649
1782771745387564000,3.67456396484375,-0.08609580993652344,0.017369505017995834,0.01768473908305168
1782771745397574000,3.684573974609375,-0.08370208740234375,0.005421023815870285,0.01770682819187641
1782771745407583700,3.694583740234375,-0.0693368911743164,0.007784627377986908,-0.001412619836628437
1782771745417563000,3.70456298828125,-0.07891368865966797,0.017381340265274048,0.008194788359105587
1782771745427572700,3.71457275390625,-0.07651901245117188,-0.006526544690132141,0.000990492757409811
1782771745437582600,3.72458251953125,-0.08370208740234375,0.005417823791503906,0.017719846218824387
1782771745447592200,3.73459228515625,-0.06454849243164062,0.005477793514728546,-0.008495932444930077
1782771745457571300,3.7445712890625,-0.07651901245117188,0.010309796780347824,0.017884455621242523
1782771745467581200,3.754581298828125,-0.08130836486816406,-0.003995709121227264,-0.00605730339884758
1782771745477590800,3.7645908203125,-0.07891464233398438,0.012805730104446411,0.020259421318769455
1782771745487570200,3.774570068359375,-0.09088516235351562,-0.003911081701517105,0.015562104061245918
1782771745497580000,3.784580078125,-0.0956735610961914,0.010454133152961731,-0.0059257997199893
1782771745507590000,3.79458984375,-0.09327983856201172,0.01045418530702591,0.0012570624239742756
1782771745517569000,3.804569091796875,-0.0956735610961914,-0.0038508810102939606,0.003711618483066559
1782771745527579000,3.814578857421875,-0.08609676361083984,0.017697032541036606,0.006106334272772074
1782771745537588700,3.824588623046875,-0.08609771728515625,0.008240461349487305,0.0037123896181583405
1782771745547567900,3.83456787109375,-0.0741262435913086,0.022519845515489578,0.008426148444414139
1782771745557577500,3.844577392578125,-0.0717315673828125,0.005800340324640274,0.00601979112252593
1782771745567587300,3.85458740234375,-0.11003875732421875,0.0010526962578296661,0.006006427574902773
1782771745577566500,3.86456640625,-0.07891654968261719,-0.020314836874604225,-0.0011761784553527832
1782771745587576300,3.874576416015625,-0.08609867095947266,0.0013523288071155548,0.0012779259122908115
1782771745597586200,3.884586181640625,-0.0789175033569336,-0.0033158324658870697,0.015703486278653145
1782771745607565300,3.8945654296875,-0.08609962463378906,0.00626097247004509,0.0037923092022538185
1782771745617575200,3.9045751953125,-0.07412910461425781,0.0015325285494327545,0.013489198870956898
1782771745627585000,3.9145849609375,-0.09807109832763672,0.008775029331445694,-0.010452565737068653
1782771745637564200,3.924564208984375,-0.0789175033569336,0.011229373514652252,0.011155601590871811
1782771745647574000,3.934573974609375,-0.09807109832763672,-0.00080123171210289,-0.0007555056363344193
1782771745657583600,3.94458349609375,-0.08849430084228516,0.006381478160619736,0.020792817696928978
1782771745667562800,3.954562744140625,-0.07173442840576172,-0.007923725992441177,-0.005602475255727768
1782771745677572600,3.964572509765625,-0.1004648208618164,0.0017130374908447266,-0.003148105926811695
1782771745687582500,3.97458251953125,-0.0789175033569336,-0.003135133534669876,0.011217355728149414
1782771745697592300,3.98459228515625,-0.0765228271484375,0.016018465161323547,0.01606585644185543
1782771745707571500,3.994571533203125,-0.07891654968261719,0.02306297793984413,0.020891332998871803
1782771745717581300,4.004581298828125,-0.08849334716796875,0.006348308175802231,0.00417435634881258
1782771745727591200,4.014591064453125,-0.06694507598876953,0.011117219924926758,0.001881446223706007
1782771745737570300,4.0245703125,-0.08370494842529297,0.006304927170276642,0.016279492527246475
1782771745747580200,4.034580078125,-0.0765218734741211,-0.010454483330249786,0.006702685263007879
1782771745757589800,4.04458984375,-0.08370494842529297,-0.008060280233621597,-0.009996630251407623
1782771745767569200,4.054569091796875,-0.09088706970214844,0.020610366016626358,-0.00035973917692899704
1782771745777578800,4.064578857421875,-0.08131027221679688,-0.008059974759817123,0.011671943590044975
1782771745787588600,4.074588623046875,-0.08131027221679688,0.0015699900686740875,0.028412699699401855
1782771745797567700,4.084567626953125,-0.0765218734741211,0.006407659500837326,0.014139381237328053
1782771745807577600,4.09457763671875,-0.0765228271484375,0.01124444231390953,0.004602212458848953
1782771745817587500,4.10458740234375,-0.06694507598876953,0.0016565658152103424,0.004641955718398094
1782771745827566600,4.114566650390625,-0.08609962463378906,0.0017163865268230438,-0.0024808235466480255
1782771745837576400,4.124576416015625,-0.06455230712890625,0.006564877927303314,0.007096740882843733
1782771745847586300,4.13458642578125,-0.06694602966308594,-0.007740437984466553,0.011885397136211395
1782771745857565400,4.1445654296875,-0.08849430084228516,-0.00289187952876091,0.014279850758612156
1782771745867575300,4.1545751953125,-0.08370685577392578,0.021095845848321915,0.007134034764021635
1782771745877585000,4.1645849609375,-0.08849430084228516,-0.002906147390604019,0.002406229730695486
1782771745887564000,4.17456396484375,-0.08131122589111328,0.006661906838417053,0.016813229769468307
1782771745897574000,4.184573974609375,-0.08609962463378906,0.0018735043704509735,0.007296334486454725
1782771745907583700,4.194583740234375,-0.07413005828857422,0.02112599089741707,0.016842981800436974
1782771745917563000,4.20456298828125,-0.10046577453613281,0.016361616551876068,0.023973863571882248
1782771745927572700,4.21457275390625,-0.10764789581298828,0.011474169790744781,0.012009130790829659
1782771745937582600,4.22458251953125,-0.0789175033569336,0.009040646255016327,0.007171372417360544
1782771745947592200,4.23459228515625,-0.0765228271484375,0.006558764725923538,0.004803408868610859
1782771745957571300,4.2445712890625,-0.08609962463378906,0.0042600445449352264,-0.009523368440568447
1782771745967581200,4.254581298828125,-0.06694698333740234,0.0067475326359272,0.01205802895128727
1782771745977590800,4.2645908203125,-0.062157630920410156,0.0067887865006923676,0.01927722990512848
1782771745987570200,4.274570068359375,-0.07412910461425781,0.0067728981375694275,0.0001663612201809883
1782771745997580000,4.284580078125,-0.08609962463378906,0.016374144703149796,0.02885226346552372
1782771746007590000,4.29458984375,-0.07173538208007812,0.011613912880420685,0.0048763686791062355
1782771746017569000,4.304569091796875,-0.08849620819091797,0.004517253488302231,0.012018861249089241
1782771746027579000,4.314578857421875,-0.09328460693359375,0.01650010049343109,0.01920510083436966
1782771746037588700,4.324588623046875,-0.08610153198242188,0.002103053033351898,0.004861800000071526
1782771746047568000,4.33456787109375,-0.08849620819091797,0.009380262345075607,-0.007071329280734062
1782771746057577500,4.344577392578125,-0.08131122589111328,0.0020568259060382843,0.019299084320664406
1782771746067587300,4.35458740234375,-0.09088897705078125,0.01644747331738472,0.0025675208307802677
1782771746077566500,4.36456640625,-0.06934070587158203,-0.002725541591644287,0.009727505035698414
1782771746087576300,4.374576416015625,-0.08610057830810547,0.00684380903840065,-0.004703762009739876
1782771746097586200,4.384586181640625,-0.09088897705078125,-0.0002786368131637573,0.002539191860705614
1782771746107565300,4.3945654296875,-0.09807205200195312,-0.005066923797130585,-0.0021888837218284607
1782771746117575200,4.4045751953125,-0.08610153198242188,0.01660078391432762,0.005053886212408543
1782771746127585000,4.4145849609375,-0.0789194107055664,0.0262095108628273,0.014672558754682541
1782771746137564200,4.424564208984375,-0.07413101196289062,0.023822452872991562,0.024269264191389084
1782771746147514400,4.434514404296875,-0.0789194107055664,0.011805348098278046,0.005083233118057251
1782771746158683600,4.44568359375,-0.07891845703125,0.011750806123018265,0.0003820834681391716
1782771746177572600,4.464572509765625,-0.0789194107055664,-0.004948589950799942,0.0218283049762249
1782771746187582500,4.47458251953125,-0.08610153198242188,-0.004905637353658676,0.019464464858174324
1782771746197592300,4.48459228515625,-0.07652473449707031,-0.004912752658128738,0.002689886372536421
1782771746207571500,4.494571533203125,-0.0813131332397461,0.009500198066234589,0.005064650438725948
1782771746217581300,4.504581298828125,-0.0813131332397461,0.01193816214799881,0.007557283621281385
1782771746227591200,4.514591064453125,-0.07652473449707031,0.007245883345603943,0.01243332028388977
1782771746237570300,4.5245703125,-0.09089088439941406,0.00966976210474968,0.017177894711494446
1782771746247580200,4.534580078125,-0.0837087631225586,0.002580452710390091,0.0076221381314098835
1782771746257589800,4.54458984375,-0.07173728942871094,0.004951193928718567,0.01709880493581295
1782771746267569200,4.554569091796875,-0.08610248565673828,0.007380839437246323,0.009936188347637653
1782771746277578800,4.564578857421875,-0.07173728942871094,0.026502124965190887,0.007508329581469297
1782771746287588600,4.574588623046875,-0.0837087631225586,0.004979792982339859,0.021828103810548782
1782771746297567700,4.584567626953125,-0.08610248565673828,-0.009404163807630539,0.009882016107439995
1782771746307577600,4.59457763671875,-0.08610248565673828,0.00027578696608543396,0.007514428813010454
1782771746317587500,4.60458740234375,-0.09567928314208984,0.005107127130031586,0.014660786837339401
1782771746327566600,4.614566650390625,-0.06934356689453125,0.00987585261464119,0.007503426168113947
1782771746337576400,4.624576416015625,-0.0837087631225586,-0.00449671596288681,0.00036570150405168533
1782771746347586300,4.63458642578125,-0.06934356689453125,0.024212583899497986,0.0003441879525780678
1782771746357565400,4.6445654296875,-0.0813140869140625,0.0003081075847148895,0.026703687384724617
1782771746367575300,4.6545751953125,-0.06934452056884766,0.002795882523059845,0.0003883121535181999
1782771746377585000,4.6645849609375,-0.07413291931152344,0.005236908793449402,0.007551844697445631
1782771746387564000,4.67456396484375,-0.083709716796875,0.014853522181510925,0.005255245603621006
1782771746397574000,4.684573974609375,-0.09089279174804688,0.007768038660287857,-0.0019469037652015686
1782771746407583700,4.694583740234375,-0.09328746795654297,0.019713815301656723,-0.013986279256641865
1782771746417563000,4.70456298828125,-0.07652664184570312,0.0052886344492435455,0.005227920599281788
1782771746427572700,4.71457275390625,-0.09568023681640625,0.009999766945838928,0.010067485272884369
1782771746437582600,4.72458251953125,-0.08610248565673828,-0.009153719991445541,0.0006113527342677116
1782771746447592200,4.73459228515625,-0.0813140869140625,0.002877175807952881,0.007854042574763298
1782771746457571300,4.7445712890625,-0.08849811553955078,0.012514140456914902,0.007854288443922997
1782771746467581200,4.754581298828125,-0.09568023681640625,0.012573793530464172,0.0006716819480061531
1782771746477531400,4.764531494140625,-0.09568119049072266,0.005511380732059479,-0.0016023283824324608
1782771746487661800,4.774661865234375,-0.10286426544189453,0.003117173910140991,0.015276269987225533
1782771746497520400,4.784520263671875,-0.07413387298583984,0.0007836781442165375,0.005699462257325649
1782771746507591400,4.79459130859375,-0.08849906921386719,0.015208117663860321,0.003365024458616972
1782771746518808800,4.805808837890625,-0.06695079803466797,0.005549699068069458,0.017708951607346535
1782771746537588700,4.824588623046875,-0.07892227172851562,-0.00889570266008377,0.005785771645605564
1782771746547567900,4.83456787109375,-0.09089279174804688,0.005529388785362244,0.01051458902657032
1782771746557577500,4.844577392578125,-0.07652759552001953,0.015151262283325195,0.020065734162926674
1782771746567587300,4.85458740234375,-0.08131599426269531,0.012739121913909912,0.005676301196217537
1782771746577566500,4.86456640625,-0.0861043930053711,-0.0016351081430912018,0.005662263371050358
1782771746587576300,4.874576416015625,-0.09089279174804688,0.015105172991752625,0.00809318944811821
1782771746597586200,4.884586181640625,-0.08849906921386719,0.010232798755168915,0.01045975461602211
1782771746607565300,4.8945654296875,-0.08849906921386719,-0.001696128398180008,0.015279826708137989
1782771746617575200,4.9045751953125,-0.09568119049072266,0.012707360088825226,0.01058164518326521
1782771746627585000,4.9145849609375,-0.08849906921386719,0.005500480532646179,0.02011888474225998
1782771746637564200,4.924564208984375,-0.08131599426269531,0.015047986060380936,0.003383681643754244
1782771746647573800,4.93457373046875,-0.09568119049072266,0.0006544403731822968,0.01770402304828167
1782771746657583600,4.94458349609375,-0.10286426544189453,0.005480486899614334,-0.003812548704445362
1782771746667563000,4.95456298828125,-0.0813150405883789,0.010184083133935928,0.010581770911812782
1782771746677572600,4.964572509765625,-0.09807395935058594,-0.0018655285239219666,0.005885988473892212
1782771746687582500,4.97458251953125,-0.10286331176757812,0.01498527079820633,0.015426541678607464
1782771746697592000,4.984592041015625,-0.08610248565673828,0.012560456991195679,0.00826934352517128
1782771746707571500,4.994571533203125,-0.07652664184570312,0.012584757059812546,0.02019711211323738
1782771746717581300,5.004581298828125,-0.09089088439941406,0.007763039320707321,0.01781737431883812
1782771746727591000,5.0145908203125,-0.06934452056884766,0.007794361561536789,-0.0013088490813970566
1782771746737570300,5.0245703125,-0.08849716186523438,0.007763426750898361,0.008233407512307167
1782771746747520500,5.0345205078125,-0.07892036437988281,0.02207833155989647,0.020211024209856987
1782771746758659000,5.0456591796875,-0.08849811553955078,0.007662929594516754,-0.0014409543946385384
1782771746777578800,5.064578857421875,-0.09807491302490234,0.014915216714143753,0.0177086740732193
1782771746787588600,5.074588623046875,-0.09089183807373047,0.0029164254665374756,0.017722729593515396
1782771746797567700,5.084567626953125,-0.07173824310302734,0.005345575511455536,0.005772765725851059
1782771746807577600,5.09457763671875,-0.09328651428222656,-0.00418471172451973,-0.008611511439085007
1782771746817587500,5.10458740234375,-0.09328651428222656,0.0029827766120433807,0.012910634279251099
1782771746827566600,5.114566650390625,-0.0861043930053711,-0.0017592012882232666,0.02005917951464653
1782771746837576400,5.124576416015625,-0.0861043930053711,0.0006266944110393524,0.0033980305306613445
1782771746847586300,5.13458642578125,-0.06694984436035156,-0.0017145387828350067,0.008224109187722206
1782771746857565400,5.1445654296875,-0.07413291931152344,0.007802300155162811,-0.0037464071065187454
1782771746867575300,5.1545751953125,-0.08610343933105469,0.003133244812488556,0.005830645561218262
1782771746877585000,5.1645849609375,-0.09568119049072266,0.003193352371454239,0.008224844932556152
1782771746887564000,5.17456396484375,-0.09089183807373047,0.0007393807172775269,0.010679124854505062
1782771746897574000,5.184573974609375,-0.07652759552001953,0.010376159101724625,0.010739277116954327
1782771746907583700,5.194583740234375,-0.08131599426269531,0.015145443379878998,0.003653045278042555
1782771746917503500,5.20450341796875,-0.09807586669921875,-0.0015713199973106384,0.018106745555996895
1782771746927664000,5.2146640625,-0.08849906921386719,0.005654752254486084,0.02052691951394081
1782771746937582600,5.22458251953125,-0.07413387298583984,0.010481975972652435,-0.0009322408586740494
1782771746947592400,5.234592529296875,-0.09089279174804688,0.000948980450630188,0.0159163661301136
1782771746957571600,5.244571533203125,-0.09328746795654297,-0.0014596879482269287,0.015939489006996155
1782771746967581200,5.254581298828125,-0.0837106704711914,0.02245417982339859,0.02067911997437477
1782771746977591000,5.264591064453125,-0.09328746795654297,0.015233099460601807,0.02067667432129383
1782771746987570200,5.274570068359375,-0.10046958923339844,0.0009543560445308685,0.013433309271931648
1782771746997580000,5.284580078125,-0.06695079803466797,0.0033782944083213806,0.01343327946960926
1782771747007590000,5.29458984375,-0.07892227172851562,0.005741313099861145,0.018215084448456764
1782771747017569000,5.304569091796875,-0.09089279174804688,0.008108623325824738,-0.0009840261191129684
1782771747027579000,5.314578857421875,-0.08131599426269531,0.010533921420574188,-0.008139499463140965
1782771747037588700,5.324588623046875,-0.0861043930053711,0.015354834496974945,-0.008097991347312927
1782771747047568000,5.33456787109375,-0.07652759552001953,-0.0014045760035514832,0.001538645476102829
1782771747057577500,5.344577392578125,-0.0837106704711914,0.0057554952800273895,0.020727381110191345
1782771747067587300,5.35458740234375,-0.09568119049072266,-0.010944018140435219,-0.010456829331815243
1782771747077566500,5.36456640625,-0.09328746795654297,0.003421314060688019,0.003908869344741106
1782771747087576300,5.374576416015625,-0.07413387298583984,0.017905905842781067,0.008816810324788094
1782771747097586200,5.384586181640625,-0.09568214416503906,0.001206718385219574,0.004028893541544676
1782771747107565300,5.3945654296875,-0.09328746795654297,-0.013218257576227188,0.006423337385058403
1782771747117575200,5.4045751953125,-0.09089279174804688,0.015452317893505096,-0.00788171961903572
1782771747127585000,5.4145849609375,-0.08131599426269531,0.003481447696685791,0.00654380489140749
1782771747137564200,5.424564208984375,-0.0885000228881836,0.01790682226419449,0.018515055999159813
1782771747147573800,5.43457373046875,-0.09089374542236328,0.010819654911756516,0.02333550527691841
1782771747157583600,5.44458349609375,-0.09328842163085938,0.013181429356336594,0.016174906864762306
1782771747167563000,5.45456298828125,-0.0861043930053711,0.022653616964817047,0.006618513725697994
1782771747177572600,5.464572509765625,-0.07892322540283203,0.003575678914785385,0.02571757882833481
1782771747187582500,5.47458251953125,-0.09328746795654297,0.015486761927604675,0.03526635468006134
1782771747197592000,5.484592041015625,-0.0837106704711914,0.008190333843231201,0.008854154497385025
1782771747207571500,5.494571533203125,-0.10046958923339844,0.0034217722713947296,-0.005559925921261311
1782771747217581300,5.504581298828125,-0.0837106704711914,0.005779724568128586,0.006367744877934456
1782771747227591000,5.5145908203125,-0.09807586669921875,0.010583668947219849,0.02551865577697754
1782771747237570300,5.5245703125,-0.0861043930053711,0.0033720731735229492,0.01110971998423338
1782771747247580200,5.534580078125,-0.09089279174804688,-0.0038378164172172546,0.02786458656191826
1782771747257589800,5.54458984375,-0.08131599426269531,0.0009915828704833984,0.0062704868614673615
1782771747267569200,5.554569091796875,-0.07173919677734375,-0.003691375255584717,0.018253598362207413
1782771747277578800,5.564578857421875,-0.08131694793701172,0.01788928359746933,0.01101421844214201
1782771747287588600,5.574588623046875,-0.09568119049072266,-0.0013403967022895813,-0.005718091502785683
1782771747297567700,5.584567626953125,-0.0861043930053711,0.005825862288475037,0.011069144122302532
1782771747307577600,5.59457763671875,-0.07892322540283203,0.005921274423599243,0.025379018858075142
1782771747317587500,5.60458740234375,-0.09328842163085938,-0.0012783035635948181,0.011026783846318722
1782771747327566600,5.614566650390625,-0.0885000228881836,0.017788201570510864,0.008583521470427513
1782771747337576400,5.624576416015625,-0.0861043930053711,0.0033992640674114227,0.008599495515227318
1782771747347586300,5.63458642578125,-0.10047054290771484,0.003437694162130356,0.0037739439867436886
1782771747357565400,5.6445654296875,-0.0885000228881836,0.008264012634754181,-0.001103653572499752
1782771747367575300,5.6545751953125,-0.07892322540283203,0.01553317904472351,0.02040192112326622
1782771747377585000,5.6645849609375,-0.08371162414550781,-0.003696165978908539,0.008405495434999466
1782771747387564000,5.67456396484375,-0.0861053466796875,0.0034701041877269745,0.02028379961848259
1782771747397574000,5.684573974609375,-0.10765361785888672,-0.0012705810368061066,0.005951046012341976
1782771747407583700,5.694583740234375,-0.08371162414550781,0.005903884768486023,-0.001185983419418335
1782771747417563000,5.70456298828125,-0.09089374542236328,0.027429692447185516,0.0035223527811467648
1782771747427572700,5.71457275390625,-0.09807777404785156,-0.0011438392102718353,0.0009295176714658737
1782771747437582600,5.72458251953125,-0.0861063003540039,0.010863814502954483,0.024843629449605942
1782771747447592400,5.734592529296875,-0.10047149658203125,-0.0010656490921974182,0.012785535305738449
1782771747457571600,5.744571533203125,-0.0861063003540039,-0.008199166506528854,0.015212569385766983
1782771747467581200,5.754581298828125,-0.08610725402832031,0.006214983761310577,0.0008859932422637939
1782771747477591000,5.764591064453125,-0.07174110412597656,0.008536480367183685,0.012894049286842346
1782771747487570200,5.774570068359375,-0.0885009765625,0.015704557299613953,0.0033588088117539883
1782771747497580000,5.784580078125,-0.10047245025634766,0.0014412663877010345,0.015361569821834564
1782771747507590000,5.79458984375,-0.10286712646484375,-0.0009693875908851624,0.02011355757713318
1782771747517569000,5.804569091796875,-0.07892513275146484,0.01582588627934456,0.010557634755969048
1782771747527579000,5.814578857421875,-0.0885019302368164,-0.00328696146607399,0.010518837720155716
1782771747537588700,5.824588623046875,-0.07892513275146484,0.00866507738828659,0.0033050035126507282
1782771747547567900,5.83456787109375,-0.0885019302368164,0.006309278309345245,0.015298189595341682
1782771747557577500,5.844577392578125,-0.09568405151367188,0.006346415728330612,0.02010190114378929
1782771747567587300,5.85458740234375,-0.0908956527709961,0.02061314508318901,0.010530773550271988
1782771747577566500,5.86456640625,-0.08371353149414062,0.011053524911403656,0.02010476216673851
1782771747587576300,5.874576416015625,-0.09568405151367188,-0.0034028515219688416,0.017648223787546158
1782771747597586200,5.884586181640625,-0.09807872772216797,-0.0033081471920013428,0.015248927287757397
1782771747607565300,5.8945654296875,-0.08371353149414062,0.01349332183599472,-0.006326735019683838
1782771747617575200,5.9045751953125,-0.0885019302368164,0.0039582401514053345,0.005616563372313976
1782771747627585000,5.9145849609375,-0.09329032897949219,0.011059660464525223,0.010435236617922783
1782771747637564200,5.924564208984375,-0.08371353149414062,0.015937909483909607,0.010460520163178444
1782771747647573800,5.93457373046875,-0.10286712646484375,0.006333451718091965,0.010427170433104038
1782771747657583600,5.94458349609375,-0.09807872772216797,0.01599864661693573,0.012727195397019386
1782771747667563000,5.95456298828125,-0.07892513275146484,0.006442908197641373,0.012801816686987877
1782771747677572600,5.964572509765625,-0.08610725402832031,0.003964032977819443,0.0008036792278289795
1782771747687582500,5.97458251953125,-0.0908956527709961,-0.003177512437105179,0.012806912884116173
1782771747697592000,5.984592041015625,-0.08610725402832031,0.030356809496879578,0.015156246721744537
1782771747707571500,5.994571533203125,-0.07892608642578125,-0.0007466115057468414,0.022224904969334602
1782771747717581300,6.004581298828125,-0.08131980895996094,0.006400123238563538,0.012595802545547485
1782771747727591000,6.0145908203125,-0.08850383758544922,-0.0054759681224823,0.005429317243397236
1782771747737570300,6.0245703125,-0.07413768768310547,0.011258769780397415,0.005453985184431076
1782771747747580200,6.034580078125,-0.093292236328125,-0.0006781928241252899,0.019828757271170616
1782771747757589800,6.04458984375,-0.08371543884277344,-0.00063299760222435,-0.006533697247505188
1782771747767569200,6.054569091796875,-0.10047435760498047,-0.005421459674835205,0.007771444972604513
1782771747777578800,6.064578857421875,-0.09808063507080078,0.009003784507513046,0.005437630228698254
1782771747787588600,6.074588623046875,-0.10047435760498047,-0.0029073283076286316,0.012680303305387497
1782771747797567700,6.084567626953125,-0.09808063507080078,0.0018811337649822235,-0.0040187714621424675
1782771747807577600,6.09457763671875,-0.07892704010009766,0.00433504581451416,0.012740874662995338
1782771747817587500,6.10458740234375,-0.08850479125976562,0.0020010024309158325,0.003164305817335844
1782771747827566600,6.114566650390625,-0.08850383758544922,0.02119845524430275,0.015173833817243576
1782771747837576400,6.124576416015625,-0.10047435760498047,0.02362862601876259,-0.01596253365278244
1782771747847586300,6.13458642578125,-0.07413864135742188,0.023588169366121292,0.017593251541256905
1782771747857565400,6.1445654296875,-0.09808063507080078,0.016357582062482834,0.012835625559091568
1782771747867575300,6.1545751953125,-0.0908975601196289,0.006793748587369919,0.017646772786974907
1782771747877585000,6.1645849609375,-0.093292236328125,0.00925864651799202,0.008030645549297333
1782771747887564000,6.17456396484375,-0.09808063507080078,0.02601371333003044,0.00804896280169487
1782771747897574000,6.184573974609375,-0.10286903381347656,0.011522680521011353,0.0176349226385355
1782771747907583700,6.194583740234375,-0.07892704010009766,0.018642883747816086,0.0008967136964201927
1782771747917563000,6.20456298828125,-0.08850383758544922,0.009064152836799622,0.022394217550754547
1782771747927572700,6.21457275390625,-0.0932912826538086,0.011335257440805435,-0.0015906374901533127
1782771747937582600,6.22458251953125,-0.0932912826538086,0.011391006410121918,0.012787502259016037
1782771747947592400,6.234592529296875,-0.07653141021728516,0.009003549814224243,-0.008728851564228535
1782771747957571600,6.244571533203125,-0.09568500518798828,0.0017234012484550476,0.01518507394939661
1782771747967581200,6.254581298828125,-0.07413768768310547,-0.005369018763303757,0.015212634578347206
1782771747977591000,6.264591064453125,-0.08131980895996094,0.013696692883968353,0.0008839322254061699
1782771747987570200,6.274570068359375,-0.08610820770263672,0.006547573953866959,0.0009238570928573608
1782771747997580000,6.284580078125,-0.11005020141601562,0.0041883401572704315,0.010418534278869629
1782771748007590000,6.29458984375,-0.0932912826538086,0.004163865000009537,0.02247777208685875
1782771748017569000,6.304569091796875,-0.10286808013916016,0.004138067364692688,0.008078211918473244
1782771748027579000,6.314578857421875,-0.07892608642578125,0.008907832205295563,0.008114848285913467
1782771748037588700,6.324588623046875,-0.08371448516845703,0.001826651394367218,0.012875581160187721
1782771748047568000,6.33456787109375,-0.08850383758544922,-0.002917446196079254,0.010511703789234161
1782771748057577500,6.344577392578125,-0.0908975601196289,0.013882111757993698,0.012935347855091095
1782771748067587300,6.35458740234375,-0.09568595886230469,0.009012054651975632,0.012961836531758308
1782771748077566500,6.36456640625,-0.08610916137695312,-0.00530572235584259,0.0033615673892199993
1782771748087576300,6.374576416015625,-0.09568595886230469,0.001926809549331665,0.003284669015556574
1782771748097586200,6.384586181640625,-0.10286903381347656,0.0067011453211307526,0.015289545990526676
1782771748107565300,6.3945654296875,-0.07892704010009766,0.018706340342760086,0.020038727670907974
1782771748117575200,6.4045751953125,-0.09568595886230469,-0.000413358211517334,0.027223922312259674
1782771748127585000,6.4145849609375,-0.0908975601196289,0.006862875074148178,0.005685774609446526
1782771748137564200,6.424564208984375,-0.10047435760498047,0.004444718360900879,0.01054716482758522
1782771748147573800,6.43457373046875,-0.08132076263427734,0.023445986211299896,0.01295512542128563
1782771748157583600,6.44458349609375,-0.08850288391113281,-0.0005868151783943176,0.012903392314910889
1782771748167563000,6.45456298828125,-0.10047435760498047,0.009018637239933014,0.008067823946475983
1782771748177572600,6.464572509765625,-0.08850383758544922,-0.005482964217662811,0.007915500551462173
1782771748187582500,6.47458251953125,-0.07413768768310547,0.006531972438097,0.0007671322673559189
1782771748197592000,6.484592041015625,-0.08850288391113281,0.006570160388946533,0.022333335131406784
1782771748207571500,6.494571533203125,-0.08850288391113281,0.01857539266347885,0.0008145458996295929
1782771748217581300,6.504581298828125,-0.0908966064453125,0.0065726302564144135,0.02231542579829693
1782771748227531500,6.514531494140625,-0.08850288391113281,0.008936304599046707,0.01036118995398283
1782771748238701800,6.525701904296875,-0.08371448516845703,-0.00300544872879982,0.019993986934423447
1782771748257651000,6.54465087890625,-0.08371448516845703,0.01610656827688217,0.005671750754117966
1782771748267569200,6.554569091796875,-0.10047340393066406,0.004168625921010971,0.017654433846473694
1782771748277578800,6.564578857421875,-0.08131980895996094,0.011318888515233994,0.010421237908303738
1782771748287588600,6.574588623046875,-0.08371353149414062,-0.005519498139619827,0.01295236311852932
1782771748297567700,6.584567626953125,-0.07892513275146484,0.008826199918985367,-0.0037780599668622017
1782771748307577600,6.59457763671875,-0.09329032897949219,-0.007933080196380615,0.0010704677551984787
1782771748317587500,6.60458740234375,-0.09807872772216797,-0.005538813769817352,0.0011308006942272186
1782771748327566600,6.614566650390625,-0.0885019302368164,0.004097886383533478,0.010767675004899502
1782771748337576400,6.624576416015625,-0.09568405151367188,0.013674817979335785,0.010828067548573017
1782771748347586300,6.63458642578125,-0.09568500518798828,-0.005359120666980743,0.010887897573411465
1782771748357565400,6.6445654296875,-0.09568500518798828,0.006598189473152161,0.01809334196150303
1782771748367575000,6.654574951171875,-0.09807968139648438,-0.00531885027885437,0.022852297872304916
1782771748377585000,6.6645849609375,-0.0885019302368164,0.018541980534791946,0.018067914992570877
1782771748387564000,6.67456396484375,-0.09568500518798828,-0.0029639527201652527,0.020454708486795425
1782771748397574000,6.684573974609375,-0.08131980895996094,0.013774614781141281,0.010825575329363346
1782771748407583700,6.694583740234375,-0.08371448516845703,0.01865611970424652,0.005994481034576893
1782771748417563000,6.70456298828125,-0.0908975601196289,0.009051404893398285,0.00834772177040577
1782771748427572700,6.71457275390625,-0.0908966064453125,0.016259469091892242,0.00836654007434845
1782771748437582600,6.72458251953125,-0.08850288391113281,0.0018079467117786407,0.008332142606377602
1782771748447592200,6.73459228515625,-0.09568405151367188,0.004180498421192169,-0.0011504115536808968
1782771748457571300,6.7445712890625,-0.0908966064453125,0.00900280475616455,0.018029019236564636
1782771748467581200,6.754581298828125,-0.10286712646484375,0.020935535430908203,0.006080790422856808
1782771748477590800,6.7645908203125,-0.08131980895996094,0.013772297650575638,0.00604640506207943
1782771748487570200,6.774570068359375,-0.08131885528564453,0.013727881014347076,0.015643227845430374
1782771748497580000,6.784580078125,-0.07653045654296875,0.0016659833490848541,-0.003476085141301155
1782771748507590000,6.79458984375,-0.09807872772216797,0.008815646171569824,0.018098799511790276
1782771748517569000,6.804569091796875,-0.10286712646484375,0.020803112536668777,0.008486533537507057
1782771748527579000,6.814578857421875,-0.09568405151367188,0.020802143961191177,0.006110804155468941
1782771748537529000,6.824529052734375,-0.0908956527709961,0.008781056851148605,0.003684325609356165
1782771748547600000,6.834599853515625,-0.0885019302368164,0.0064079649746418,-0.0035186391323804855
1782771748558829800,6.845829833984375,-0.0885019302368164,0.004048589617013931,0.006103500723838806
1782771748577566500,6.86456640625,-0.07413673400878906,0.013634849339723587,0.01330905593931675
1782771748587576300,6.874576416015625,-0.0885019302368164,-0.0031479112803936005,0.008556870743632317
1782771748597586200,6.884586181640625,-0.10047245025634766,0.01124899834394455,0.010982805863022804
1782771748607565300,6.8945654296875,-0.0908956527709961,-0.005529697984457016,0.018253877758979797
1782771748617575200,6.9045751953125,-0.0885019302368164,0.008813146501779556,0.008763836696743965
1782771748627585000,6.9145849609375,-0.10765552520751953,0.0016118213534355164,0.0016143033280968666
1782771748637564200,6.924564208984375,-0.10286617279052734,-0.0031916797161102295,0.01606697589159012
1782771748647573800,6.93457373046875,-0.07174110412597656,0.027912549674510956,0.004133786540478468
1782771748657583600,6.94458349609375,-0.09568405151367188,0.006463799625635147,0.004172783810645342
1782771748667563000,6.95456298828125,-0.10286712646484375,0.006496366113424301,0.02574298158288002
1782771748677572600,6.964572509765625,-0.08371353149414062,0.006530310958623886,-0.0005635665729641914
1782771748687582500,6.97458251953125,-0.0908956527709961,-0.0007328726351261139,0.018615562468767166
1782771748697592300,6.98459228515625,-0.0885019302368164,0.0064894817769527435,0.013792579993605614
1782771748707571500,6.994571533203125,-0.08371353149414062,-0.0007115788757801056,0.020932264626026154
1782771748717581300,7.004581298828125,-0.0908956527709961,0.00884396955370903,0.013823997229337692
1782771748727591200,7.014591064453125,0.8356599807739258,-0.07966864109039307,0.16199533641338348
1782771748737570300,7.0245703125,-1.9775266647338867,0.09744232892990112,0.001644388772547245
1782771748747580200,7.034580078125,-0.16503143310546875,0.006078556180000305,0.0014597848057746887
1782771748757589800,7.04458984375,-0.11954593658447266,-0.010079003870487213,0.015225549228489399
1782771748767569200,7.054569091796875,-0.10279369354248047,0.0050042010843753815,0.023964691907167435
1782771748777578800,7.064578857421875,-0.11476993560791016,0.017694298177957535,0.05173684284090996
1782771748787588600,7.074588623046875,-0.18181610107421875,-0.005190011113882065,0.02614618092775345
1782771748797567700,7.084567626953125,-0.04535961151123047,-0.003945119678974152,0.023856354877352715
1782771748807577600,7.09457763671875,0.06954669952392578,-0.02598094753921032,0.02263674885034561
1782771748817587500,7.10458740234375,-0.1124258041381836,0.004304137080907822,0.007542017847299576
