time,seconds_elapsed,z,y,x
1782772228082977000,0.21997705078125,-0.03094768524169922,-0.0009145922958850861,0.000586741603910923
1782772228092987000,0.22998681640625,-0.03333759307861328,-0.016040105372667313,-0.007342782337218523
1782772228102996700,0.239996826171875,-0.04536724090576172,-0.03160148113965988,-0.0009437068365514278
1782772228112976000,0.249975830078125,-0.040576934814453125,-0.0035918094217777252,-0.01374727301299572
1782772228122985700,0.25998583984375,-0.04057884216308594,0.011191163212060928,-0.02799312025308609
1782772228132995600,0.26999560546875,-0.03339672088623047,-0.0007198937237262726,-0.006324286572635174
1782772228142974700,0.279974609375,-0.057338714599609375,-0.0007199309766292572,-0.013386867940425873
1782772228152984300,0.289984375,-0.04776191711425781,-0.0031141676008701324,-0.0181150920689106
1782772228162994200,0.299994140625,-0.04297351837158203,-0.00784267857670784,-0.015721190720796585
1782772228172973300,0.309973388671875,-0.050156593322753906,-0.012631159275770187,-0.0012952890247106552
1782772228182983200,0.319983154296875,-0.05494499206542969,-0.005508188158273697,-0.0036298404447734356
1782772228192992800,0.32999267578125,-0.04536724090576172,0.004008479416370392,-0.013146257027983665
1782772228202972200,0.33997216796875,-0.05734539031982422,0.002914130687713623,-0.014421990141272545
1782772228212982000,0.34998193359375,-0.05016326904296875,0.00285421684384346,0.009520026855170727
1782772228222992000,0.359991943359375,-0.0645284652709961,0.00046003982424736023,0.007126114331185818
1782772228232971000,0.369970947265625,-0.05974006652832031,-0.01623925194144249,0.011974903754889965
1782772228242980900,0.37998095703125,-0.04537487030029297,-0.01863342709839344,0.00479258643463254
1782772228252990500,0.389990478515625,-0.05734539031982422,-0.011510848999023438,0.007187367882579565
1782772228262969900,0.399969970703125,-0.04537487030029297,0.007642790675163269,-0.0024489853531122208
1782772228272979500,0.4099794921875,-0.04537487030029297,0.0005201846361160278,-0.004842318594455719
1782772228282989300,0.4199892578125,-0.07171058654785156,-0.004328053444623947,-0.009570891037583351
1782772228292968400,0.429968505859375,-0.05495166778564453,-0.006722252815961838,0.007188521325588226
1782772228302978300,0.439978271484375,-0.0645284652709961,-0.013845149427652359,0.009523650631308556
1782772228312988200,0.44998828125,-0.0621337890625,0.0005200579762458801,-0.002387263812124729
1782772228322967300,0.45996728515625,-0.05734539031982422,-0.008996885269880295,-0.007175378035753965
1782772228332977200,0.46997705078125,-0.06692314147949219,-0.008877027779817581,0.01682683825492859
1782772228342987000,0.479987060546875,-0.057346343994140625,0.0031538382172584534,-0.0047206878662109375
1782772228352996600,0.48999658203125,-0.07171154022216797,-0.0016946569085121155,0.009704616852104664
1782772228362975700,0.499975830078125,-0.07171154022216797,-0.006423193961381912,-0.0046603064984083176
1782772228372985600,0.509985595703125,-0.062134742736816406,-0.013605751097202301,0.0168880857527256
1782772228382995200,0.5199951171875,-0.040587425231933594,-0.015999894589185715,0.014434625394642353
1782772228392974600,0.529974609375,-0.050164222717285156,-0.00402885302901268,-0.0022644023410975933
1782772228402984400,0.539984375,-0.06931781768798828,-0.006363406777381897,-0.00705280527472496
1782772228412994000,0.549994140625,-0.05974102020263672,-0.004029270261526108,-0.009446719661355019
1782772228422973400,0.559973388671875,-0.06692314147949219,0.012730203568935394,0.009767302311956882
1782772228432983300,0.5699833984375,-0.04776954650878906,-0.0184542965143919,0.002584986388683319
1782772228442993000,0.579992919921875,-0.05495262145996094,-0.0064234547317028046,-0.014054760336875916
1782772228452972300,0.58997216796875,-0.07649898529052734,-0.01366613432765007,0.01713024452328682
1782772228462982000,0.59998193359375,-0.07171154022216797,0.003093317151069641,-0.004476933740079403
1782772228472991700,0.60999169921875,-0.07171154022216797,-0.01121167466044426,0.009828045964241028
1782772228482971000,0.619970947265625,-0.05734539031982422,0.007822588086128235,0.01222253404557705
1782772228492980700,0.629980712890625,-0.0645294189453125,-0.008936792612075806,0.007494332268834114
1782772228502990600,0.639990478515625,-0.07889461517333984,-0.015939932316541672,0.005040012300014496
1782772228512969700,0.6499697265625,-0.06692314147949219,0.0008795745670795441,-0.006991088856011629
1782772228522979600,0.6599794921875,-0.07171154022216797,-0.001514628529548645,0.012102873995900154
1782772228532989400,0.669989501953125,-0.052557945251464844,0.0008796341717243195,0.004920844454318285
1782772228542968600,0.679968505859375,-0.06213569641113281,-0.008637279272079468,0.0001928466372191906
1782772228552978200,0.689978271484375,-0.05255889892578125,0.005787909030914307,0.009830137714743614
1782772228562988000,0.699988037109375,-0.06931877136230469,-0.013365652412176132,0.00031373510137200356
1782772228572967200,0.70996728515625,-0.05495452880859375,0.008302420377731323,0.007496913429349661
1782772228582977000,0.71997705078125,-0.066925048828125,-0.0035492628812789917,-0.011596765369176865
1782772228592987000,0.72998681640625,-0.06213665008544922,-0.025097040459513664,0.0051629324443638325
1782772228602996500,0.73999658203125,-0.06453132629394531,-0.013126000761985779,0.007557419128715992
1782772228612975900,0.749975830078125,-0.05974388122558594,-0.01785421557724476,-0.004412732552736998
1782772228622985700,0.75998583984375,-0.05016613006591797,-0.015459951013326645,-0.004292868543416262
1782772228632995300,0.769995361328125,-0.06213665008544922,-0.017825433984398842,0.00055288290604949
1782772228642974700,0.779974609375,-0.07171344757080078,-0.010621294379234314,0.01257800031453371
1782772228652984300,0.789984375,-0.057349205017089844,-0.0058069899678230286,0.01495971530675888
1782772228662994200,0.799994140625,-0.07171344757080078,-0.001113787293434143,0.007762130815535784
1782772228672973300,0.809973388671875,-0.066925048828125,0.008402921259403229,0.002973726484924555
1782772228682983200,0.819983154296875,-0.05974292755126953,0.0035549066960811615,-0.01372575107961893
1782772228692993000,0.829992919921875,-0.0645303726196289,-0.0036877281963825226,0.017339348793029785
1782772228702972200,0.83997216796875,-0.0908660888671875,-0.013264499604701996,0.005368625745177269
1782772228712982000,0.84998193359375,-0.05016517639160156,0.0011007338762283325,0.0005805091932415962
1782772228722991900,0.859991943359375,-0.05734825134277344,-0.008416227996349335,0.007822949439287186
1782772228732971000,0.869970947265625,-0.05495452880859375,-0.008416201919317245,0.0006406307220458984
1782772228742980900,0.87998095703125,-0.07410812377929688,-0.008356515318155289,0.0054293181747198105
1782772228752990700,0.88999072265625,-0.05974292755126953,-0.010750673711299896,0.015066499821841717
1782772228762969900,0.899969970703125,-0.06453132629394531,-0.008416283875703812,0.003095777705311775
1782772228772979500,0.9099794921875,-0.07889652252197266,0.003554724156856537,0.012672584503889084
1782772228782989300,0.9199892578125,-0.06213665008544922,0.008343193680047989,-0.0016920561902225018
1782772228792968400,0.929968505859375,-0.066925048828125,0.020374298095703125,-0.004086257889866829
1782772228802978300,0.939978271484375,-0.07889652252197266,-0.0011734813451766968,0.010338885709643364
1782772228812988200,0.94998828125,-0.07650184631347656,-0.01781267113983631,0.005490674637258053
1782772228822967300,0.95996728515625,-0.07171344757080078,-0.008235830813646317,-0.008874252438545227
1782772228832977200,0.96997705078125,-0.07410812377929688,0.00846371054649353,-0.006479764822870493
1782772228842987000,0.979987060546875,-0.07410812377929688,0.0036753080785274506,0.015068050473928452
1782772228852996900,0.989996826171875,-0.09326171875,-0.0130239836871624,0.01991683430969715
1782772228862976000,0.99997607421875,-0.0669260025024414,0.015706472098827362,-0.0015708664432168007
1782772228872985600,1.009985595703125,-0.07650279998779297,-0.005841303616762161,0.003217820543795824
1782772228882995500,1.019995361328125,-0.07650279998779297,0.006189566105604172,0.0032181059941649437
1782772228892974600,1.029974609375,-0.07410907745361328,-0.0009328648447990417,0.003158578183501959
1782772228902984400,1.039984375,-0.07410907745361328,-0.017692217603325844,0.010282100178301334
1782772228912994300,1.049994384765625,-0.05974388122558594,-0.003326941281557083,0.010342761874198914
1782772228922973400,1.059973388671875,-0.08847522735595703,-0.005661271512508392,0.003160439897328615
1782772228932983300,1.0699833984375,-0.06692695617675781,-0.0008728019893169403,0.010343611240386963
1782772228942993200,1.0799931640625,-0.05974388122558594,-0.000932600349187851,0.0032211211510002613
1782772228952972300,1.08997216796875,-0.08368587493896484,-0.010569464415311813,0.005615607835352421
1782772228962982000,1.09998193359375,-0.07889747619628906,0.0014016032218933105,0.005675825290381908
1782772228972991700,1.10999169921875,-0.059744834899902344,-0.01044919341802597,0.005736198741942644
1782772228982971000,1.119970947265625,-0.06453227996826172,0.0015218183398246765,0.005796035751700401
1782772228992980700,1.129980712890625,-0.06453227996826172,-0.0008724182844161987,0.003401550929993391
1782772229002990600,1.139990478515625,-0.07171440124511719,-0.012903183698654175,0.01549279410392046
1782772229012969700,1.1499697265625,-0.10283946990966797,0.011098954826593399,-0.0012663337402045727
1782772229022979600,1.1599794921875,-0.08607959747314453,-0.0032662227749824524,-0.006114103831350803
1782772229032989400,1.169989501953125,-0.08847427368164062,-0.012842953205108643,0.005857470910996199
1782772229042968600,1.179968505859375,-0.08129119873046875,0.006310693919658661,0.005857754033058882
1782772229052978200,1.189978271484375,-0.07411003112792969,-0.0056003667414188385,0.0010696337558329105
1782772229062988000,1.199988037109375,-0.05735015869140625,-0.007994569838047028,0.005917872302234173
1782772229072967200,1.20996728515625,-0.08368587493896484,-0.0032662004232406616,0.013040956109762192
1782772229082977000,1.21997705078125,-0.0669260025024414,-0.0009315647184848785,0.010706969536840916
1782772229092987000,1.22998681640625,-0.0693206787109375,-0.022479340434074402,0.006039040628820658
1782772229102996700,1.239996826171875,-0.06453227996826172,0.0014627054333686829,0.0037049544043838978
1782772229112976000,1.249975830078125,-0.08129024505615234,-0.008174154907464981,0.008493643254041672
1782772229122985700,1.25998583984375,-0.0908670425415039,0.0014027245342731476,0.01567681133747101
1782772229132995600,1.26999560546875,-0.07650279998779297,0.0015318319201469421,0.01804368384182453
1782772229142974700,1.279974609375,-0.0932626724243164,-0.005641210824251175,0.010834133252501488
1782772229152984300,1.289984375,-0.08129215240478516,-0.010369580239057541,-0.001076598186045885
1782772229162994200,1.299994140625,-0.06213855743408203,-0.008035089820623398,0.00856024120002985
1782772229172973300,1.309973388671875,-0.07650375366210938,-0.005630191415548325,0.01572328805923462
1782772229182983200,1.319983154296875,-0.06692695617675781,0.008735079318284988,-0.0009758765809237957
1782772229192992800,1.32999267578125,-0.09805107116699219,0.003886692225933075,-0.0033094477839767933
1782772229202972200,1.33997216796875,-0.06453227996826172,-0.010478518903255463,-0.017674656584858894
1782772229212982000,1.34998193359375,-0.08129215240478516,-0.003235999494791031,-0.005703366827219725
1782772229222992000,1.359991943359375,-0.0693216323852539,0.003946606069803238,0.011056045070290565
1782772229232971000,1.369970947265625,-0.0693206787109375,-0.010538693517446518,-0.0009146798402070999
1782772229242980900,1.37998095703125,-0.07889652252197266,-0.012992490082979202,-0.0032486356794834137
1782772229252990700,1.38999072265625,-0.07171344757080078,0.003766953945159912,-0.0008541503921151161
1782772229262969900,1.399969970703125,-0.09565544128417969,0.001432623714208603,0.001660000067204237
1782772229272979500,1.4099794921875,-0.0693197250366211,-0.01772102527320385,0.004053918644785881
1782772229282989300,1.4199892578125,-0.07171344757080078,-0.008084345608949661,0.006508236285299063
1782772229292968400,1.429968505859375,-0.05974388122558594,0.008735239505767822,0.013631319627165794
1782772229302978300,1.439978271484375,-0.057349205017089844,-0.00796448066830635,-0.0006143050268292427
1782772229312988200,1.44998828125,-0.0717153549194336,0.0016724616289138794,-0.007856721989810467
1782772229322967300,1.45996728515625,-0.07889842987060547,-0.005510102957487106,0.013691374100744724
1782772229332977200,1.46997705078125,-0.0717153549194336,-0.005510035902261734,0.001720932312309742
1782772229342987000,1.479987060546875,-0.07889747619628906,-0.010358262807130814,-0.005401842761784792
1782772229352996600,1.48999658203125,-0.08368682861328125,-0.01023804023861885,-0.012524070218205452
1782772229362975700,1.499975830078125,-0.059744834899902344,-0.007903620600700378,-0.005341183859854937
1782772229372985600,1.509985595703125,-0.06692695617675781,-0.005449514836072922,-0.0004928680136799812
1782772229382995200,1.5199951171875,-0.07650375366210938,-0.005449473857879639,-0.00049258628860116
1782772229392974600,1.529974609375,-0.06453323364257812,0.011370159685611725,0.0018423674628138542
1782772229402984400,1.539984375,-0.0693216323852539,-0.003054693341255188,0.004296218045055866
1782772229412994000,1.549994140625,-0.059744834899902344,-0.005448892712593079,-0.005280588287860155
1782772229422973400,1.559973388671875,-0.0717153549194336,-0.010297130793333054,0.009144453331828117
1782772229432983300,1.5699833984375,-0.07650375366210938,0.013704869896173477,0.0019624135456979275
1782772229442993000,1.579992919921875,-0.06453323364257812,-0.01735987700521946,0.0020225276239216328
1782772229452972300,1.58997216796875,-0.0717153549194336,-0.010237280279397964,0.014054195955395699
1782772229462982000,1.59998193359375,-0.08847522735595703,-0.0007200799882411957,-0.00515878526493907
1782772229472991700,1.60999169921875,-0.07889842987060547,0.00406840443611145,-0.0051582190208137035
1782772229482971000,1.619970947265625,-0.06692695617675781,-0.0006600804626941681,0.009267386980354786
1782772229492980700,1.629980712890625,-0.10523414611816406,-0.01496533676981926,0.00926766823977232
1782772229502990600,1.639990478515625,-0.06453323364257812,-0.007782693952322006,0.014056354761123657
1782772229512969700,1.6499697265625,-0.08608055114746094,-0.0006601773202419281,0.0069338432513177395
1782772229522979600,1.6599794921875,-0.07650375366210938,0.013705067336559296,-0.002702332567423582
1782772229532989400,1.669989501953125,-0.07889747619628906,-0.003114398568868637,-0.00024775415658950806
1782772229542968600,1.679968505859375,-0.07650279998779297,-0.007902760058641434,0.014057906344532967
1782772229552978200,1.689978271484375,-0.07889747619628906,-0.005568455904722214,-0.000307304784655571
1782772229562988000,1.699988037109375,-0.07650279998779297,-0.012751076370477676,-0.00030730385333299637
1782772229572967200,1.70996728515625,-0.07889842987060547,0.011311180889606476,0.01166398823261261
1782772229582977000,1.71997705078125,-0.07411003112792969,-0.005448143929243088,0.021181708201766014
1782772229592987000,1.72998681640625,-0.08368682861328125,-0.005448147654533386,0.004482390824705362
1782772229602996500,1.73999658203125,-0.07889842987060547,-0.017359280958771706,-0.00030573224648833275
1782772229612975900,1.749975830078125,-0.0693216323852539,-0.0004796423017978668,0.009331450797617435
1782772229622985700,1.75998583984375,-0.08847522735595703,-0.0004796423017978668,-0.0026395577006042004
1782772229632995300,1.769995361328125,-0.07889938354492188,-0.005207899957895279,0.011786030605435371
1782772229642974700,1.779974609375,-0.06692790985107422,-0.005207855254411697,-0.004973101429641247
1782772229652984300,1.789984375,-0.06453418731689453,-0.017118925228714943,0.007058099843561649
1782772229662994200,1.799994140625,-0.08608150482177734,-0.002753622829914093,0.007058659568428993
1782772229672973600,1.8099736328125,-0.07889938354492188,-0.0051477327942848206,0.01663602888584137
1782772229682983200,1.819983154296875,-0.06932258605957031,-0.01949363946914673,0.006982282269746065
1782772229692993000,1.829992919921875,-0.08847618103027344,-0.0003400258719921112,0.006922190543264151
1782772229702972200,1.83997216796875,-0.07650470733642578,-0.01946070045232773,0.014073360711336136
1782772229712982000,1.84998193359375,-0.0717172622680664,-0.00021864846348762512,0.018822234123945236
1782772229722991900,1.859991943359375,-0.08368873596191406,-0.004989653825759888,0.014066169038414955
1782772229732971000,1.869970947265625,-0.0741119384765625,-0.019326280802488327,0.011696841567754745
1782772229742980900,1.87998095703125,-0.062140464782714844,-0.009774800390005112,0.014047209173440933
1782772229752990700,1.88999072265625,-0.08129405975341797,-0.002565179020166397,0.014066376723349094
1782772229762969900,1.899969970703125,-0.09566020965576172,-0.004933148622512817,0.0092368945479393
1782772229772979500,1.9099794921875,-0.08129501342773438,-0.0025129467248916626,0.021215207874774933
1782772229782989300,1.9199892578125,-0.08847713470458984,0.002353031188249588,-0.0026457617059350014
1782772229792968400,1.929968505859375,-0.06692981719970703,-0.014447856694459915,0.0021155443973839283
1782772229802978300,1.939978271484375,-0.07890129089355469,-0.00718480721116066,0.016447871923446655
1782772229812988200,1.94998828125,-0.06214141845703125,0.0024088509380817413,0.0044448645785450935
1782772229822967300,1.95996728515625,-0.07171821594238281,0.012051593512296677,0.013993322849273682
1782772229832977200,1.96997705078125,-0.06932449340820312,-0.004707783460617065,0.004416794050484896
1782772229842987000,1.979987060546875,-0.08368968963623047,-0.021526947617530823,-0.017070630565285683
1782772229852996900,1.989996826171875,-0.08847904205322266,-0.014224153012037277,0.004477182403206825
1782772229862976000,1.99997607421875,-0.08608436584472656,0.004929501563310623,0.002023423556238413
1782772229872985600,2.009985595703125,-0.07411384582519531,0.00020100921392440796,-0.0003108661621809006
1782772229882995500,2.019995361328125,-0.05974864959716797,-0.0045275576412677765,0.004477537702769041
1782772229892974600,2.029974609375,-0.07171916961669922,0.00265512615442276,0.00208389014005661
1782772229902984400,2.039984375,-0.076507568359375,0.00026093050837516785,0.00459738913923502
1782772229912994300,2.049994384765625,-0.08608436584472656,0.0026551298797130585,0.006991590838879347
1782772229922973400,2.059973388671875,-0.0789022445678711,-0.016438564285635948,-0.00491903442889452
1782772229932983300,2.0699833984375,-0.08129596710205078,0.012291893362998962,0.004658049438148737
1782772229942993200,2.0799931640625,-0.08129596710205078,-0.014044243842363358,0.004658600315451622
1782772229952972300,2.08997216796875,-0.0789022445678711,-0.006861593574285507,0.004658876918256283
1782772229962982000,2.09998193359375,-0.08847904205322266,0.012351706624031067,0.0022053010761737823
1782772229972991700,2.10999169921875,-0.0789022445678711,0.009957592934370041,-0.00012825196608901024
1782772229982971000,2.119970947265625,-0.076507568359375,-0.00925576314330101,0.0023263320326805115
1782772229992980700,2.129980712890625,-0.08129501342773438,-0.018952306360006332,0.011903692036867142
1782772230002990600,2.139990478515625,-0.09566116333007812,-0.014104023575782776,0.016692370176315308
1782772230012969700,2.1499697265625,-0.06693077087402344,-0.006861325353384018,-0.00006704078987240791
1782772230022979600,2.1599794921875,-0.08608436584472656,-0.006801635026931763,-0.00724937254562974
1782772230032989400,2.169989501953125,-0.06932544708251953,-0.018772561103105545,-0.004854614846408367
1782772230042968600,2.179968505859375,-0.0789022445678711,-0.0044073499739170074,0.0023878212086856365
1782772230052978200,2.189978271484375,-0.07411384582519531,-0.004347354173660278,-0.0024599432945251465
1782772230062988000,2.199988037109375,-0.08608436584472656,-0.009135711938142776,0.014239910989999771
1782772230072967200,2.20996728515625,-0.09087276458740234,-0.009195718914270401,0.004603562410920858
1782772230082977000,2.21997705078125,-0.0789022445678711,-0.006741825491189957,-0.0024594678543508053
1782772230092987000,2.22998681640625,-0.08369064331054688,-0.011530142277479172,0.0022693932987749577
1782772230102996700,2.239996826171875,-0.07411479949951172,-0.009016238152980804,0.004663869272917509
1782772230112976000,2.249975830078125,-0.08608627319335938,0.0006808042526245117,0.009452549740672112
1782772230122985700,2.25998583984375,-0.06453895568847656,0.005469169467687607,0.007058073300868273
1782772230132995600,2.26999560546875,-0.08369255065917969,-0.006441716104745865,-0.007427046541124582
1782772230142974700,2.279974609375,-0.06453990936279297,-0.0015934295952320099,0.014180876314640045
1782772230152984300,2.289984375,-0.081298828125,-0.008656121790409088,0.014241330325603485
1782772230162994200,2.299994140625,-0.06932830810546875,0.003314916044473648,-0.00006377417594194412
1782772230172973300,2.309973388671875,-0.05975151062011719,0.010497570037841797,0.016695911064743996
1782772230182983200,2.319983154296875,-0.06932830810546875,-0.006261840462684631,0.011907508596777916
1782772230192992800,2.32999267578125,-0.07651042938232422,-0.0063219331204891205,0.007179198320955038
1782772230202972200,2.33997216796875,-0.07651042938232422,-0.01589861325919628,-0.0024566249921917915
1782772230212982000,2.34998193359375,-0.07172203063964844,-0.01583869941532612,-0.009639229625463486
1782772230222992000,2.359991943359375,-0.06932830810546875,0.00816323608160019,-0.0000020479783415794373
1782772230232971000,2.369970947265625,-0.07890605926513672,0.008163243532180786,0.009634936228394508
1782772230242980900,2.37998095703125,-0.06932830810546875,-0.00632106140255928,0.01915244571864605
1782772230252990700,2.38999072265625,-0.081298828125,-0.015837805345654488,0.01681830734014511
1782772230262969900,2.399969970703125,-0.0836944580078125,-0.01330534741282463,0.01194270234555006
1782772230272979500,2.4099794921875,-0.07172298431396484,-0.00850025936961174,0.0024051633663475513
1782772230282989300,2.4199892578125,-0.07172298431396484,0.0034109391272068024,0.00479963468387723
1782772230292968400,2.429968505859375,-0.09087657928466797,-0.015682661905884743,0.0024051619693636894
1782772230302978300,2.439978271484375,-0.0836944580078125,0.0011364445090293884,0.002464842051267624
1782772230312988200,2.44998828125,-0.07411766052246094,-0.001257721334695816,-0.0046574268490076065
1782772230322967300,2.45996728515625,-0.07172298431396484,-0.0036519579589366913,0.019284315407276154
1782772230332977200,2.46997705078125,-0.07651138305664062,-0.006046123802661896,0.016950299963355064
1782772230342987000,2.479987060546875,-0.0836944580078125,-0.0011978782713413239,0.009767694398760796
1782772230352996600,2.48999658203125,-0.08608818054199219,-0.008371751755475998,0.012204179540276527
1782772230362975700,2.499975830078125,-0.0812997817993164,-0.008371811360120773,-0.004615334328263998
1782772230372985600,2.509985595703125,-0.08848285675048828,-0.008351463824510574,0.014568362385034561
1782772230382995200,2.5199951171875,-0.08848381042480469,-0.005942448973655701,0.016996923834085464
1782772230392974600,2.529974609375,-0.07411861419677734,-0.001093946397304535,0.0002976078540086746
1782772230402984400,2.539984375,-0.09327125549316406,-0.001094043254852295,0.0004163673147559166
1782772230412994000,2.549994140625,-0.06933116912841797,-0.0009138099849224091,0.005144407972693443
1782772230422973400,2.559973388671875,-0.07651233673095703,0.003874596208333969,0.017175251618027687
1782772230432983300,2.5699833984375,-0.09327220916748047,-0.0007939860224723816,0.007658354938030243
1782772230442993000,2.579992919921875,-0.062148094177246094,0.003994420170783997,-0.001858619973063469
1782772230452972300,2.58997216796875,-0.086090087890625,-0.022221608087420464,-0.004252821207046509
1782772230462982000,2.59998193359375,-0.06933116912841797,0.006508857011795044,0.02214331179857254
1782772230472991700,2.60999169921875,-0.09087848663330078,0.006448674947023392,0.010232804343104362
1782772230482971000,2.619970947265625,-0.07651329040527344,-0.005522333085536957,0.015080904588103294
1782772230492980700,2.629980712890625,-0.06693744659423828,-0.0150392334908247,0.005504097323864698
1782772230502990600,2.639990478515625,-0.07890892028808594,0.0017800107598304749,0.010352332144975662
1782772230512969700,2.6499697265625,-0.09087944030761719,-0.017373602837324142,-0.008741187863051891
1782772230522979600,2.6599794921875,-0.0884857177734375,-0.0005436912178993225,0.024753518402576447
1782772230532989400,2.669989501953125,-0.07651424407958984,0.0018588341772556305,0.010423272848129272
1782772230542968600,2.679968505859375,-0.07651424407958984,0.004193209111690521,0.0007268036715686321
1782772230552978200,2.689978271484375,-0.0860910415649414,-0.01262611523270607,0.003180915489792824
1782772230562988000,2.699988037109375,-0.07172584533691406,0.0018587075173854828,0.015271322801709175
1782772230572967200,2.70996728515625,-0.07172584533691406,0.004313107579946518,0.010483454912900925
1782772230582977000,2.71997705078125,-0.08369731903076172,-0.00047179311513900757,0.01757677271962166
1782772230592987000,2.72998681640625,-0.07412052154541016,0.011499214917421341,-0.003910946659743786
1782772230602996500,2.73999658203125,-0.07412052154541016,-0.010108329355716705,0.0032721897587180138
1782772230612975900,2.749975830078125,-0.07890892028808594,-0.0029257237911224365,0.0032721897587180138
1782772230622985700,2.75998583984375,-0.06454277038574219,0.004197224974632263,-0.0038507645949721336
1782772230632995300,2.769995361328125,-0.0645437240600586,0.004257321357727051,0.003271745517849922
1782772230642974700,2.779974609375,-0.07651424407958984,-0.005379319190979004,-0.0015764907002449036
1782772230652984300,2.789984375,-0.07651329040527344,-0.012681744992733002,-0.0015165787190198898
1782772230662994200,2.799994140625,-0.0860891342163086,-0.0007107332348823547,0.015302665531635284
1782772230672973600,2.8099736328125,-0.07412052154541016,-0.0006507374346256256,-0.003911578096449375
1782772230682983200,2.819983154296875,-0.07651329040527344,-0.005439139902591705,-0.0014577275142073631
1782772230692993000,2.829992919921875,-0.07172489166259766,-0.0029847919940948486,0.022484557703137398
1782772230702972200,2.83997216796875,-0.062148094177246094,-0.0054388269782066345,0.015421614050865173
1782772230712982000,2.84998193359375,-0.07651329040527344,-0.01016731932759285,0.0035105161368846893
1782772230722991900,2.859991943359375,-0.06454277038574219,0.013654984533786774,0.013087055645883083
1782772230732971000,2.869970947265625,-0.08369636535644531,0.016049135476350784,0.0011758762411773205
1782772230742980900,2.87998095703125,-0.08130168914794922,-0.0054986849427223206,0.0036893747746944427
1782772230752990700,2.88999072265625,-0.09327316284179688,0.0017440691590309143,0.01805485412478447
1782772230762969900,2.899969970703125,-0.07411956787109375,0.004138320684432983,-0.008340932428836823
1782772230772979500,2.9099794921875,-0.08369731903076172,-0.012561175972223282,-0.003552529960870743
1782772230782989300,2.9199892578125,-0.06933212280273438,-0.0029244907200336456,0.027572359889745712
1782772230792968400,2.929968505859375,-0.07172584533691406,0.011500924825668335,0.008479373529553413
1782772230802978300,2.939978271484375,-0.07172584533691406,0.006704807281494141,0.029925169423222542
1782772230812988200,2.94998828125,-0.07890892028808594,-0.0028176940977573395,0.020295368507504463
1782772230822967300,2.95996728515625,-0.08130264282226562,-0.0004280582070350647,0.0011586830951273441
1782772230832977200,2.96997705078125,-0.08130264282226562,-0.005157038569450378,0.00837844517081976
1782772230842987000,2.979987060546875,-0.08369731903076172,0.006754197180271149,-0.003532462753355503
1782772230852996900,2.989996826171875,-0.06933212280273438,-0.012399375438690186,-0.005986490286886692
1782772230862976000,2.99997607421875,-0.07172584533691406,-0.005216807126998901,0.0035900501534342766
1782772230872985600,3.009985595703125,-0.08609199523925781,-0.005096998065710068,-0.003592553548514843
1782772230882995500,3.019995361328125,-0.0884866714477539,-0.007491201162338257,0.013107025995850563
1782772230892974600,3.029974609375,-0.07412147521972656,-0.012219507247209549,-0.003712479956448078
1782772230902984400,3.039984375,-0.0908803939819336,-0.0001888461410999298,-0.0013779271394014359
1782772230912994300,3.049994384765625,-0.07412147521972656,0.004539564251899719,0.015382016077637672
1782772230922973400,3.059973388671875,-0.06693840026855469,0.014116421341896057,0.0033514397218823433
1782772230932983300,3.0699833984375,-0.06933307647705078,-0.00982564315199852,0.015322184190154076
1782772230942993200,3.0799931640625,-0.07172679901123047,0.004599444568157196,0.015322446823120117
1782772230952972300,3.08997216796875,-0.08130359649658203,0.011782102286815643,0.010534306988120079
1782772230962982000,3.09998193359375,-0.0884866714477539,-0.007431115955114365,-0.006224840879440308
1782772230972991700,3.10999169921875,-0.07890987396240234,-0.0026427581906318665,0.012868412770330906
1782772230982971000,3.119970947265625,-0.06933307647705078,0.006814334541559219,0.003291342407464981
1782772230992980700,3.129980712890625,-0.08609199523925781,0.0020259320735931396,0.008079745806753635
1782772231002990600,3.139990478515625,-0.07172679901123047,-0.007550876587629318,0.01526235044002533
1782772231012969700,3.1499697265625,-0.07890892028808594,-0.014793572947382927,0.012808053754270077
1782772231022979600,3.1599794921875,-0.07890987396240234,0.004360035061836243,0.0032908963039517403
1782772231032989400,3.169989501953125,-0.07412052154541016,0.009208537638187408,0.010533595457673073
1782772231042968600,3.179968505859375,-0.0908803939819336,-0.007431216537952423,0.012867964804172516
1782772231052978200,3.189978271484375,-0.064544677734375,0.004599705338478088,-0.008560026995837688
1782772231062988000,3.199988037109375,-0.07890987396240234,0.004659537225961685,0.005865015555173159
1782772231072967200,3.20996728515625,-0.07412242889404297,-0.011979680508375168,0.015501916408538818
1782772231082977000,3.21997705078125,-0.07172775268554688,-0.009585481137037277,0.0035905567929148674
1782772231092987000,3.22998681640625,-0.07651519775390625,0.01429644227027893,0.010773161426186562
1782772231102996700,3.239996826171875,-0.07890987396240234,-0.007251378148794174,-0.003532217815518379
1782772231112976000,3.249975830078125,-0.08848762512207031,-0.000008624047040939331,0.0036506522446870804
1782772231122985700,3.25998583984375,-0.06693840026855469,-0.004856672137975693,-0.005926155485212803
1782772231132995600,3.26999560546875,-0.07890987396240234,-0.0024624690413475037,0.0108332559466362
1782772231142974700,3.279974609375,-0.08609199523925781,-0.00006832554936408997,0.010892827063798904
1782772231152984300,3.289984375,-0.0884866714477539,-0.00006837770342826843,0.0084983604028821
1782772231162994200,3.299994140625,-0.07891082763671875,0.002385709434747696,0.015621395781636238
1782772231172973300,3.309973388671875,-0.08130455017089844,-0.007191099226474762,-0.0011380165815353394
1782772231182983200,3.319983154296875,-0.07651615142822266,0.004779960960149765,0.010892901569604874
1782772231192992800,3.32999267578125,-0.10764122009277344,0.009568314999341965,-0.0034725721925497055
1782772231202972200,3.33997216796875,-0.07651519775390625,0.0023258738219738007,0.0013158316724002361
1782772231212982000,3.34998193359375,-0.07891082763671875,-0.007191028445959091,-0.0010783709585666656
1782772231222992000,3.359991943359375,-0.07412242889404297,0.000051412731409072876,0.01807524263858795
1782772231232971000,3.369970947265625,-0.08130455017089844,0.007233966141939163,0.01568077690899372
1782772231242980900,3.37998095703125,-0.09566974639892578,0.000051353126764297485,0.015740426257252693
1782772231252990700,3.38999072265625,-0.08369922637939453,0.007233958691358566,0.0013752155937254429
1782772231262969900,3.399969970703125,-0.07891082763671875,0.016810718923807144,-0.003413449041545391
1782772231272979500,3.4099794921875,-0.08130550384521484,-0.0022830329835414886,0.008557296358048916
1782772231282989300,3.4199892578125,-0.0669403076171875,0.014523644000291824,0.020508673042058945
1782772231292909000,3.429908935546875,-0.07412338256835938,-0.007024172693490982,0.006143463309854269
1782772231303039200,3.440039306640625,-0.07172870635986328,-0.02611837349832058,-0.0010391417890787125
1782772231312988200,3.44998828125,-0.07891178131103516,0.00500619038939476,0.006203980650752783
1782772231322967300,3.45996728515625,-0.0669403076171875,0.005006186664104462,-0.010436661541461945
1782772231332977200,3.46997705078125,-0.07172870635986328,0.019431278109550476,0.0015343469567596912
1782772231342987000,3.479987060546875,-0.08370018005371094,0.005006205290555954,0.003928548656404018
1782772231352996900,3.489996826171875,-0.0908823013305664,0.002672068774700165,-0.0032540559768676758
1782772231362976000,3.49997607421875,-0.08130550384521484,0.012308742851018906,0.008776816539466381
1782772231372985600,3.509985595703125,-0.0693349838256836,-0.01636185497045517,0.008836431428790092
1782772231382995500,3.519995361328125,-0.07651710510253906,0.012368563562631607,0.01601903699338436
1782772231392974600,3.529974609375,-0.0908823013305664,0.0075200386345386505,0.011170309036970139
1782772231402984400,3.539984375,-0.07172870635986328,0.0002778097987174988,-0.0008601192384958267
1782772231412994300,3.549994384765625,-0.08370018005371094,0.0026719532907009125,0.013625017367303371
1782772231422973400,3.559973388671875,-0.0669403076171875,-0.009299054741859436,0.00644241226837039
1782772231432983300,3.5699833984375,-0.0669403076171875,-0.014027493074536324,0.011290987953543663
1782772231442993200,3.5799931640625,-0.08609390258789062,-0.0043909065425395966,-0.0006802817806601524
1782772231452972300,3.58997216796875,-0.0908823013305664,0.01236850768327713,0.001653826329857111
1782772231462982000,3.59998193359375,-0.07172870635986328,-0.0019966475665569305,0.008777041919529438
1782772231472991700,3.60999169921875,-0.07172870635986328,-0.013967657461762428,0.015959646552801132
1782772231482971000,3.619970947265625,-0.07412338256835938,0.005186013877391815,0.008777301758527756
1782772231492980700,3.629980712890625,-0.07651710510253906,0.0027918145060539246,0.003988898359239101
1782772231502990600,3.639990478515625,-0.0693349838256836,0.005245789885520935,0.015959646552801132
1782772231512969700,3.6499697265625,-0.08848953247070312,-0.00905926525592804,0.0015946975909173489
1782772231522979600,3.6599794921875,-0.09806632995605469,0.0100942961871624,0.01835385151207447
1782772231532989400,3.669989501953125,-0.07172966003417969,-0.0066053606569767,0.020711103454232216
1782772231542968600,3.679968505859375,-0.07891273498535156,-0.0041498541831970215,0.018280353397130966
1782772231552978200,3.689978271484375,-0.07412528991699219,0.015056151896715164,0.022959332913160324
1782772231562988000,3.699988037109375,-0.07651901245117188,-0.013672834262251854,0.006089754868298769
1782772231572967200,3.70996728515625,-0.08849048614501953,-0.0017601735889911652,0.013231994584202766
1782772231582977000,3.71997705078125,-0.08849048614501953,-0.006483603268861771,0.015576280653476715
1782772231592987000,3.72998681640625,-0.07891464233398438,-0.02071451209485531,-0.003551051951944828
1782772231602996700,3.739996826171875,-0.07651901245117188,-0.01124769076704979,0.006127447355538607
1782772231612975900,3.749975830078125,-0.0741262435913086,-0.003994569182395935,0.013289461843669415
1782772231622985700,3.75998583984375,-0.07891464233398438,0.010434482246637344,0.006150109227746725
1782772231632995600,3.76999560546875,-0.08130836486816406,-0.008649654686450958,0.02281765267252922
1782772231642974700,3.779974609375,-0.07651996612548828,0.0009359791874885559,0.017926566302776337
1782772231652984300,3.789984375,-0.08370399475097656,0.005848035216331482,0.020334137603640556
1782772231662994200,3.799994140625,-0.09327983856201172,0.0010023675858974457,0.0010803253389894962
1782772231672973300,3.809973388671875,-0.08849143981933594,0.0033968016505241394,0.022635187953710556
1782772231682983200,3.819983154296875,-0.0741262435913086,-0.006116092205047607,0.022624775767326355
1782772231692993000,3.829992919921875,-0.07173347473144531,-0.006049357354640961,0.003418201580643654
1782772231702972200,3.83997216796875,-0.07891654968261719,-0.0037063099443912506,0.015329964458942413
1782772231712982000,3.84998193359375,-0.08849239349365234,-0.01332915760576725,-0.006315264850854874
1782772231722991900,3.859991943359375,-0.06694507598876953,-0.0036925561726093292,-0.006315522827208042
1782772231732971000,3.869970947265625,-0.06694507598876953,-0.008481010794639587,0.012958022765815258
1782772231742980900,3.87998095703125,-0.06694412231445312,-0.006133634597063065,0.017659233883023262
1782772231752990700,3.88999072265625,-0.08849239349365234,-0.0037394315004348755,-0.003888580948114395
1782772231762969900,3.899969970703125,-0.0765218734741211,-0.001285448670387268,0.0056879702024161816
1782772231772979500,3.9099794921875,-0.09328174591064453,0.0035693421959877014,0.02481544017791748
1782772231782989300,3.9199892578125,-0.07891654968261719,-0.001152973622083664,0.012815292924642563
1782772231792968400,3.929968505859375,-0.07173347473144531,-0.010659929364919662,0.015177391469478607
1782772231802978300,3.939978271484375,-0.08849334716796875,-0.0035257339477539062,0.007959604263305664
1782772231812988200,3.94998828125,-0.05497455596923828,0.0036645159125328064,0.017436597496271133
1782772231822967300,3.95996728515625,-0.0765218734741211,-0.0033984705805778503,-0.004111472517251968
1782772231832977200,3.96997705078125,-0.07173442840576172,-0.008179273456335068,0.010231539607048035
1782772231842987000,3.979987060546875,-0.08370590209960938,-0.0009368769824504852,0.00789691973477602
1782772231852996600,3.98999658203125,-0.07412910461425781,-0.00559813529253006,0.012723023071885109
1782772231862975700,3.999975830078125,-0.08609962463378906,-0.012780791148543358,-0.0063710082322359085
1782772231872985600,4.009985595703125,-0.09088802337646484,-0.0008097812533378601,0.007994201965630054
1782772231882995200,4.0199951171875,-0.07412910461425781,0.003978617489337921,0.015236638486385345
1782772231892974600,4.029974609375,-0.07412910461425781,-0.01995076797902584,0.005700306501239538
1782772231902984400,4.039984375,-0.07173442840576172,-0.0031913556158542633,0.005700306501239538
1782772231912994000,4.049994140625,-0.0765237808227539,-0.000676967203617096,0.0033661974593997
1782772231922973400,4.059973388671875,-0.07173538208007812,-0.015042182058095932,-0.001482037827372551
1782772231932983300,4.0699833984375,-0.07413005828857422,-0.007859621196985245,0.010488718748092651
1782772231942993000,4.079992919921875,-0.06455326080322266,0.006505541503429413,0.0009116590954363346
1782772231952972300,4.08997216796875,-0.09807205200195312,-0.0006169714033603668,-0.0038767438381910324
1782772231962982100,4.099982177734375,-0.0765237808227539,-0.0054054223001003265,0.0033056093379855156
1782772231972991700,4.10999169921875,-0.07413101196289062,0.01620243862271309,0.008093760348856449
1782772231982971000,4.119970947265625,-0.06455421447753906,0.0018371231853961945,0.0033646849915385246
1782772231992980700,4.129980712890625,-0.07413005828857422,0.016142431646585464,0.005698975641280413
1782772232002990600,4.139990478515625,-0.052582740783691406,-0.005285773426294327,0.003364354372024536
1782772232012969700,4.1499697265625,-0.06694793701171875,-0.007679972797632217,0.020183859393000603
1782772232022979600,4.1599794921875,-0.09567832946777344,0.001956529915332794,0.01300150528550148
1782772232032989400,4.169989501953125,-0.07652473449707031,-0.0027717724442481995,0.0034246984869241714
1782772232042968600,4.179968505859375,-0.07892036437988281,0.009259067475795746,0.008213100954890251
1782772232052978200,4.189978271484375,-0.08370780944824219,0.004410706460475922,0.00827275961637497
1782772232062988000,4.199988037109375,-0.07173633575439453,0.004410706460475922,0.01066696085035801
1782772232072967200,4.20996728515625,-0.1076498031616211,0.002016555517911911,0.0034846076741814613
1782772232082977000,4.21997705078125,-0.08849620819091797,0.0020166002213954926,0.010667463764548302
1782772232092987000,4.22998681640625,-0.09567928314208984,0.004523999989032745,0.017827879637479782
1782772232102996500,4.23999658203125,-0.0813140869140625,0.0021821334958076477,0.013073787093162537
1782772232112976000,4.249975830078125,-0.08610248565673828,0.014198418706655502,0.008255459368228912
1782772232122985700,4.25998583984375,-0.07413196563720703,-0.00016683340072631836,0.0034668082371354103
1782772232132995300,4.269995361328125,-0.07892036437988281,-0.0026300139725208282,0.022588305175304413
1782772232142974700,4.279974609375,-0.07413196563720703,0.018902819603681564,0.003468046896159649
1782772232152984300,4.289984375,-0.0813140869140625,-0.00019093230366706848,-0.0035949861630797386
1782772232162994200,4.299994140625,-0.06934356689453125,-0.002525247633457184,0.010770471766591072
1782772232172973600,4.3099736328125,-0.07652568817138672,0.007111646234989166,-0.0060490332543849945
1782772232182983200,4.319983154296875,-0.06934452056884766,-0.00958816334605217,0.00831592921167612
1782772232192992800,4.32999267578125,-0.07892131805419922,-0.00713391974568367,0.008375770412385464
1782772232202972200,4.33997216796875,-0.06455707550048828,0.016867883503437042,0.0035871192812919617
1782772232212982000,4.34998193359375,-0.0813140869140625,0.014413759112358093,0.013343664817512035
1782772232222992000,4.359991943359375,-0.07892036437988281,0.007231160998344421,0.0062208897434175014
1782772232232971000,4.369970947265625,-0.07173824310302734,0.007278073579072952,0.0158985685557127
1782772232242980900,4.37998095703125,-0.0837087631225586,-0.002358321100473404,0.003927808254957199
1782772232252990700,4.38999072265625,-0.08849716186523438,-0.009540926665067673,0.003927808254957199
1782772232262910200,4.39991015625,-0.06694984436035156,0.00009565800428390503,0.0063217622227966785
1782772232273040600,4.41004052734375,-0.0837087631225586,-0.009540922939777374,0.013504117727279663
1782772232282929700,4.4199296875,-0.06934356689453125,-0.014329332858324051,0.01356450654566288
1782772232293060000,4.43006005859375,-0.083709716796875,0.004886243492364883,0.018378660082817078
1782772232302978300,4.439978271484375,-0.09328556060791016,0.0047653913497924805,0.013631043024361134
1782772232312988200,4.44998828125,-0.0813140869140625,0.011942446231842041,0.023231346160173416
1782772232322967300,4.45996728515625,-0.11243915557861328,0.004812438040971756,0.011224636808037758
1782772232332977200,4.46997705078125,-0.083709716796875,-0.004708833992481232,0.013522385619580746
1782772232342987000,4.479987060546875,-0.06455516815185547,0.002409316599369049,0.013486254960298538
1782772232352996600,4.48999658203125,-0.09089183807373047,-0.004716183990240097,0.01343589648604393
1782772232362975700,4.499975830078125,-0.08610248565673828,0.00964110717177391,0.0014253468252718449
1782772232372985600,4.509985595703125,-0.07413196563720703,-0.0000023581087589263916,0.01574774459004402
1782772232382995200,4.5199951171875,-0.07892036437988281,-0.002396669238805771,-0.008194769732654095
1782772232392974600,4.529974609375,-0.07413196563720703,-0.002458479255437851,0.018175289034843445
1782772232402984400,4.539984375,-0.07173728942871094,-0.0001254640519618988,0.018079213798046112
1782772232412994000,4.549994140625,-0.07413196563720703,0.00459979847073555,0.003687397576868534
1782772232422973400,4.559973388671875,-0.08849716186523438,0.011773914098739624,0.008506899699568748
1782772232432923600,4.569923583984375,-0.08610248565673828,-0.00013710930943489075,0.0061730737797915936
1782772232443573800,4.58057373046875,-0.08610248565673828,0.01654457300901413,0.015770945698022842
1782772232462982000,4.59998193359375,-0.07892036437988281,-0.02655179798603058,0.015837756916880608
1782772232472991700,4.60999169921875,-0.07173633575439453,0.00923854112625122,0.023040279746055603
1782772232482911500,4.619911376953125,-0.07413196563720703,-0.016971923410892487,0.011026808992028236
1782772232493041700,4.630041748046875,-0.08849716186523438,0.00697128102183342,0.015767592936754227
1782772232502990600,4.639990478515625,-0.0837087631225586,-0.02413869835436344,0.008601464331150055
1782772232512969700,4.6499697265625,-0.07413196563720703,0.004599343985319138,-0.0010039079934358597
1782772232522979600,4.6599794921875,-0.0837087631225586,0.018961619585752487,0.015659190714359283
1782772232532929800,4.6699296875,-0.06455516815185547,0.0022593997418880463,0.008570531383156776
1782772232543060200,4.680060302734375,-0.07652568817138672,0.002256203442811966,0.01817997917532921
1782772232552978200,4.689978271484375,-0.07652473449707031,-0.01223025657236576,-0.003306375816464424
1782772232562988000,4.699988037109375,-0.07413101196289062,0.01404321938753128,0.013489633798599243
1782772232572967200,4.70996728515625,-0.07413196563720703,-0.0025959983468055725,0.006367124151438475
1782772232582977000,4.71997705078125,-0.0837087631225586,0.006975613534450531,0.013583331368863583
1782772232592987000,4.72998681640625,-0.0813140869140625,-0.00020692870020866394,0.0040067750960588455
1782772232602996500,4.73999658203125,-0.0789194107055664,-0.0026630572974681854,0.01356359664350748
1782772232612975900,4.749975830078125,-0.08610153198242188,0.01170220598578453,-0.007983967661857605
1782772232622985700,4.75998583984375,-0.09088993072509766,0.0021255016326904297,0.003987537696957588
1782772232632995300,4.769995361328125,-0.0813140869140625,0.006974056363105774,0.013564595952630043
1782772232644352000,4.78135205078125,-0.0837087631225586,0.004565820097923279,0.02316255494952202
1782772232662994200,4.799994140625,-0.06455516815185547,0.009389571845531464,0.013541802763938904
1782772232672973300,4.809973388671875,-0.08849620819091797,0.002131819725036621,0.015962766483426094
1782772232682983200,4.819983154296875,-0.0789194107055664,0.009236253798007965,0.003960274159908295
1782772232692992800,4.82999267578125,-0.08370780944824219,0.002096187323331833,0.015955336391925812
1782772232702972200,4.83997216796875,-0.08849620819091797,0.006925545632839203,0.008737829513847828
1782772232712982000,4.84998193359375,-0.06694793701171875,0.021265026181936264,-0.003258884884417057
1782772232722991900,4.859991943359375,-0.07413101196289062,-0.012253792956471443,-0.0008048480376601219
1782772232732971000,4.869970947265625,-0.06934356689453125,-0.002616897225379944,-0.00798745360225439
1782772232742980900,4.87998095703125,-0.0789194107055664,0.006960004568099976,0.0088917575776577
1782772232752990700,4.88999072265625,-0.0813131332397461,0.00456586480140686,-0.0006847977638244629
1782772232762969900,4.899969970703125,-0.06934261322021484,0.016596712172031403,0.013740248046815395
1782772232772979500,4.9099794921875,-0.06694793701171875,-0.0074051618576049805,0.004223603755235672
1782772232782989300,4.9199892578125,-0.0789194107055664,0.00696004182100296,-0.0005049686878919601
1782772232792968400,4.929968505859375,-0.0813131332397461,0.004565957933664322,-0.005292870104312897
1782772232802978300,4.939978271484375,-0.09328460693359375,-0.0025569945573806763,0.004283936694264412
1782772232812988200,4.94998828125,-0.09328556060791016,-0.012013548985123634,0.009192782454192638
1782772232822967300,4.95996728515625,-0.06694889068603516,0.007200002670288086,0.0044048745185136795
1782772232832977200,4.96997705078125,-0.07173728942871094,0.007140148431062698,0.011647634208202362
1782772232842987000,4.979987060546875,-0.06455516815185547,-0.00716516375541687,0.01410191971808672
1782772232852996600,4.98999658203125,-0.07413196563720703,-0.002316568046808243,0.009253920055925846
1782772232862975700,4.999975830078125,-0.07173728942871094,-0.0047704800963401794,-0.0075049977749586105
1782772232872985600,5.009985595703125,-0.08849620819091797,-0.00004187971353530884,0.00931482296437025
1782772232882935800,5.019935791015625,-0.08849620819091797,0.00953492522239685,0.011768858879804611
1782772232893066200,5.030066162109375,-0.0789194107055664,0.014323387295007706,0.016557510942220688
1782772232902984400,5.039984375,-0.07652473449707031,-0.009678997099399567,-0.009839091449975967
1782772232912994300,5.049994384765625,-0.07173728942871094,0.021564766764640808,0.0045263683423399925
1782772232922973400,5.059973388671875,-0.09328556060791016,0.019230511039495468,0.004526865668594837
1782772232932983300,5.0699833984375,-0.07652568817138672,0.004865415394306183,0.004527359269559383
1782772232942993200,5.0799931640625,-0.0837087631225586,0.012048080563545227,-0.0002009635791182518
1782772232952972300,5.08997216796875,-0.0813140869140625,-0.01189383678138256,-0.0002004643902182579
1782772232962982000,5.09998193359375,-0.07652568817138672,0.007259786128997803,0.011770542711019516
1782772232972991700,5.10999169921875,-0.0813140869140625,0.00001702830195426941,-0.00020071491599082947
1782772232982971000,5.119970947265625,-0.057372093200683594,0.0025310032069683075,-0.004928788170218468
1782772232992980700,5.129980712890625,-0.06934356689453125,0.0001967698335647583,0.011830871924757957
1782772233002990600,5.139990478515625,-0.09328556060791016,0.002531137317419052,0.007162131834775209
1782772233012969700,5.1499697265625,-0.09089088439941406,0.0025911740958690643,0.014404580928385258
1782772233022979600,5.1599794921875,-0.08610248565673828,0.009697884321212769,0.024008072912693024
1782772233032989400,5.169989501953125,-0.09807395935058594,0.014546379446983337,-0.002207959070801735
1782772233042968600,5.179968505859375,-0.062160491943359375,0.009747512638568878,0.01453818753361702
1782772233052978200,5.189978271484375,-0.0789194107055664,-0.0070878081023693085,0.014564968645572662
1782772233062988000,5.199988037109375,-0.06455421447753906,0.004810355603694916,0.009869021363556385
1782772233072967200,5.20996728515625,-0.09567832946777344,0.0023452937602996826,0.009844627231359482
1782772233082977000,5.21997705078125,-0.0789194107055664,0.0022777728736400604,0.007491347845643759
1782772233092987000,5.22998681640625,-0.06694793701171875,0.009502716362476349,0.019482936710119247
1782772233102996700,5.239996826171875,-0.0789194107055664,-0.014384143054485321,0.009879988618195057
1782772233112976000,5.249975830078125,-0.0813131332397461,-0.009655773639678955,0.002757724840193987
1782772233122985700,5.25998583984375,-0.105255126953125,0.01906520128250122,0.017091210931539536
1782772233132995600,5.26999560546875,-0.07173633575439453,-0.0023088492453098297,0.014667647890746593
1782772233142974700,5.279974609375,-0.06934261322021484,0.011981885880231857,0.00989849865436554
1782772233152984600,5.289984619140625,-0.07652473449707031,-0.009572628885507584,0.01709798164665699
1782772233162994200,5.299994140625,-0.09088993072509766,0.00472186878323555,0.03384474664926529
1782772233172973300,5.309973388671875,-0.08610153198242188,-0.004860851913690567,0.01706957444548607
1782772233182983200,5.319983154296875,-0.08370780944824219,-0.007254861295223236,0.0002770163118839264
1782772233192992800,5.32999267578125,-0.09088993072509766,-0.00001228228211402893,0.01226835511624813
1782772233202972200,5.33997216796875,-0.05976581573486328,0.012011680752038956,0.002772275824099779
1782772233212982000,5.34998193359375,-0.0813140869140625,0.00010070949792861938,-0.011592436581850052
1782772233222992000,5.359991943359375,-0.07173728942871094,0.014465969055891037,0.002773019950836897
1782772233232971000,5.369970947265625,-0.08610248565673828,0.00010082870721817017,0.002893457654863596
1782772233242980900,5.37998095703125,-0.08370780944824219,-0.007081653922796249,0.01013620663434267
1782772233252990700,5.38999072265625,-0.06215953826904297,-0.021446865051984787,0.019713014364242554
1782772233262969900,5.399969970703125,-0.06694793701171875,0.007223781198263168,0.007742252666503191
1782772233272979500,5.4099794921875,-0.07173633575439453,0.00010114163160324097,0.01013670302927494
1782772233282989300,5.4199892578125,-0.07413101196289062,-0.007141284644603729,0.0005598962306976318
1782772233292968400,5.429968505859375,-0.08849620819091797,-0.000018786638975143433,0.012651095166802406
1782772233302978300,5.439978271484375,-0.07413101196289062,-0.00007503479719161987,0.022191481664776802
1782772233312988200,5.44998828125,-0.0813131332397461,0.0023192279040813446,-0.0016300985589623451
1782772233322967300,5.45996728515625,-0.07413101196289062,0.023867040872573853,0.010340909473598003
1782772233332977200,5.46997705078125,-0.08370780944824219,-0.0024092011153697968,-0.0016298498958349228
1782772233342987000,5.479987060546875,-0.0789194107055664,0.011956073343753815,0.015129809267818928
1782772233352937200,5.489937255859375,-0.05737113952636719,0.011998660862445831,0.010373280383646488
1782772233363487500,5.500487548828125,-0.08610153198242188,0.002481568604707718,0.003191168885678053
1782772233382995200,5.5199951171875,-0.08370780944824219,0.007206816226243973,-0.0039912015199661255
1782772233392974600,5.529974609375,-0.07173633575439453,0.009601082652807236,0.012828554958105087
1782772233402984400,5.539984375,-0.0813131332397461,0.019237607717514038,0.005646196193993092
1782772233412994000,5.549994140625,-0.08849620819091797,0.014427557587623596,0.003417213913053274
1782772233422973400,5.559973388671875,-0.08610153198242188,-0.01192346028983593,0.025058602914214134
1782772233432983300,5.5699833984375,-0.08610057830810547,0.014333993196487427,0.0035472833551466465
1782772233442993000,5.579992919921875,-0.08131217956542969,-0.0024853870272636414,-0.006030022166669369
1782772233452972300,5.58997216796875,-0.08610057830810547,0.004757381975650787,0.010729641653597355
1782772233462982000,5.59998193359375,-0.06934165954589844,-0.00960782915353775,0.006060538813471794
1782772233472991700,5.60999169921875,-0.0813131332397461,-0.004759248346090317,0.008454741910099983
1782772233482971000,5.619970947265625,-0.08849620819091797,0.004937127232551575,0.0013321330770850182
1782772233492980700,5.629980712890625,-0.10046672821044922,0.00499701127409935,-0.0010620690882205963
1782772233502990600,5.639990478515625,-0.10286140441894531,0.017027880996465683,0.006060673855245113
1782772233512969700,5.6499697265625,-0.0813131332397461,-0.006914135068655014,0.022820085287094116
1782772233522979600,5.6599794921875,-0.06694793701171875,0.014633741229772568,0.003726398106664419
1782772233532929800,5.6699296875,-0.0789194107055664,0.00026847049593925476,-0.005790594033896923
1782772233543060200,5.680060302734375,-0.09088993072509766,0.0075106993317604065,0.00857461616396904
1782772233552978200,5.689978271484375,-0.07652473449707031,0.0075714364647865295,0.013423938304185867
1782772233562988000,5.699988037109375,-0.07892036437988281,-0.004340257495641708,0.0038471310399472713
1782772233572967400,5.709967529296875,-0.07892036437988281,0.014911092817783356,0.027752388268709183
1782772233582977000,5.71997705078125,-0.08610343933105469,0.0005909912288188934,0.015751587226986885
1782772233592987000,5.72998681640625,-0.07413291931152344,0.0006965883076190948,0.010929410345852375
1782772233602996700,5.739996826171875,-0.07892227172851562,0.0032505877315998077,0.010883787646889687
1782772233612975900,5.749975830078125,-0.07892227172851562,0.017712153494358063,0.015632295981049538
1782772233622985700,5.75998583984375,-0.0885000228881836,-0.0037392601370811462,0.025150395929813385
1782772233632995600,5.76999560546875,-0.09089374542236328,0.0011501535773277283,0.022696005180478096
1782772233642974700,5.779974609375,-0.09328937530517578,0.008368290960788727,0.008209383115172386
1782772233652984600,5.789984619140625,-0.07652950286865234,0.0036811716854572296,0.0033789011649787426
1782772233662994200,5.799994140625,-0.0908956527709961,0.015803411602973938,0.008122352883219719
1782772233672973300,5.809973388671875,-0.07892513275146484,0.008649222552776337,0.015194614417850971
1782772233682983200,5.819983154296875,-0.08610725402832031,0.008735965937376022,0.012809893116354942
1782772233692992800,5.82999267578125,-0.08371353149414062,0.0015274584293365479,0.01288396492600441
1782772233702972200,5.83997216796875,-0.07892513275146484,0.00874307006597519,0.012898057699203491
1782772233712982000,5.84998193359375,-0.07892513275146484,-0.005641918629407883,0.017576880753040314
1782772233722991900,5.859991943359375,-0.07413673400878906,0.004037696868181229,0.007960233837366104
1782772233732971000,5.869970947265625,-0.0908956527709961,0.00886562094092369,0.01031259074807167
1782772233742980900,5.87998095703125,-0.07653141021728516,-0.005455173552036285,0.017567215487360954
1782772233752990700,5.88999072265625,-0.08132076263427734,0.013795532286167145,0.003097372595220804
1782772233762969900,5.899969970703125,-0.09568595886230469,0.016221463680267334,0.003179889637976885
1782772233772979500,5.9099794921875,-0.08850383758544922,0.0066761113703250885,0.022288363426923752
1782772233782989300,5.9199892578125,-0.08371543884277344,-0.014766056090593338,0.005551554262638092
1782772233792968400,5.929968505859375,-0.07892799377441406,-0.0002899542450904846,0.010311739519238472
1782772233802978300,5.939978271484375,-0.08132171630859375,-0.01214519515633583,0.012672968208789825
1782772233812928500,5.949928466796875,-0.08371639251708984,0.009453903883695602,0.019813567399978638
1782772233823059000,5.960058837890625,-0.08371639251708984,-0.014487627893686295,0.019763335585594177
1782772233832917800,5.969917724609375,-0.09089946746826172,0.0071768611669540405,0.01743486523628235
1782772233843107300,5.980107421875,-0.07653522491455078,0.01930798590183258,0.012591715902090073
1782772233852996600,5.98999658203125,-0.07653522491455078,0.00026293471455574036,0.017268218100070953
1782772233862976000,5.99997607421875,-0.08611202239990234,0.009940925985574722,0.010038623586297035
1782772233872926000,6.009926025390625,-0.0741424560546875,0.005264110863208771,-0.01631152257323265
1782772233883151400,6.0201513671875,-0.08132457733154297,-0.013710707426071167,0.0028420905582606792
1782772233893005000,6.030005126953125,-0.09090232849121094,0.0007771030068397522,0.017268802970647812
1782772233902984400,6.039984375,-0.08372020721435547,-0.00395623967051506,0.022024109959602356
1782772233912994000,6.049994140625,-0.08850955963134766,0.00573340430855751,0.010017285123467445
1782772233922973400,6.059973388671875,-0.09569263458251953,0.00829915702342987,0.017171306535601616
1782772233932983300,6.0699833984375,-0.0765390396118164,0.010739393532276154,0.014739778824150562
1782772233942993000,6.079992919921875,-0.08372306823730469,0.010839961469173431,0.007578291464596987
1782772233952972300,6.08997216796875,-0.0813283920288086,0.0109332837164402,0.021890688687562943
1782772233962982000,6.09998193359375,-0.08611679077148438,-0.0033373869955539703,0.036235589534044266
1782772233972991700,6.10999169921875,-0.0813283920288086,-0.008080961182713509,0.019334210082888603
1782772233982971000,6.119970947265625,-0.08851242065429688,0.015897195786237717,0.007234340067952871
1782772233992980700,6.129980712890625,-0.07414722442626953,-0.010391343384981155,0.009746172465384007
1782772234002990600,6.139990478515625,-0.07654094696044922,0.008805256336927414,0.01692405343055725
1782772234012969700,6.1499697265625,-0.08611774444580078,0.0016710646450519562,-0.00460169930011034
1782772234022979600,6.1599794921875,-0.07414722442626953,0.008896861225366592,0.007388644386082888
1782772234032989400,6.169989501953125,-0.081329345703125,-0.005477551370859146,0.0073564364574849606
1782772234042968600,6.179968505859375,-0.07175350189208984,0.02089003100991249,0.03356508910655975
1782772234052978200,6.189978271484375,-0.06457138061523438,-0.00534023717045784,-0.0023254016414284706
1782772234062988000,6.199988037109375,-0.0861196517944336,0.0044007860124111176,0.007214757148176432
1782772234072907800,6.20990771484375,-0.07175445556640625,-0.01230500265955925,0.01441869605332613
1782772234083711000,6.2207109375,-0.08133125305175781,0.00690813735127449,-0.011917083524167538
1782772234102996700,6.239996826171875,-0.07893848419189453,0.009598180651664734,0.009751101955771446
1782772234112976000,6.249975830078125,-0.09569740295410156,0.004858676344156265,0.01452342513948679
1782772234122985700,6.25998583984375,-0.07893943786621094,0.00018963217735290527,-0.004570318385958672
1782772234132995600,6.26999560546875,-0.10527610778808594,0.021886855363845825,0.007374637294560671
1782772234142974700,6.279974609375,-0.09569931030273438,0.01466929167509079,0.014586728066205978
1782772234152984600,6.289984619140625,-0.09809398651123047,0.0076917558908462524,0.017005467787384987
1782772234162904000,6.299904052734375,-0.0885171890258789,0.01010814681649208,0.014689457602798939
1782772234173065000,6.31006494140625,-0.10527610778808594,0.0005608163774013519,0.019493278115987778
1782772234182983200,6.319983154296875,-0.09330558776855469,0.01249857246875763,0.01226581260561943
1782772234192993000,6.329992919921875,-0.09569931030273438,0.002956259995698929,0.007442372385412455
1782772234202972200,6.33997216796875,-0.07894134521484375,0.0055072978138923645,0.002625466790050268
1782772234212982000,6.34998193359375,-0.0669698715209961,0.012726698070764542,0.0049956440925598145
1782772234222992000,6.359991943359375,-0.0933065414428711,0.007969345897436142,0.021718377247452736
1782772234232971000,6.369970947265625,-0.08851909637451172,-0.006242772564291954,0.02650996670126915
1782772234242980900,6.37998095703125,-0.08612442016601562,-0.008595120161771774,0.007362011354416609
1782772234252990700,6.38999072265625,-0.09809589385986328,0.012991681694984436,-0.009311328642070293
1782772234262969900,6.399969970703125,-0.07894229888916016,-0.0013734549283981323,0.00026568956673145294
1782772234272979500,6.4099794921875,-0.0933074951171875,0.017780210822820663,-0.0045225005596876144
1782772234282989300,6.4199892578125,-0.08133602142333984,0.005869094282388687,0.0075683887116611
1782772234292968400,6.429968505859375,-0.08373069763183594,0.001200936734676361,0.012296909466385841
1782772234302978300,6.439978271484375,-0.08612442016601562,-0.0011468082666397095,0.017121776938438416
1782772234312988200,6.44998828125,-0.08851909637451172,0.015649471431970596,0.005242837592959404
1782772234322967300,6.45996728515625,-0.08612537384033203,0.015676982700824738,0.010057847946882248
1782772234332977200,6.46997705078125,-0.10288429260253906,0.008468732237815857,-0.0018744347617030144
1782772234342987000,6.479987060546875,-0.09091377258300781,0.0038368962705135345,0.024433540180325508
1782772234352996900,6.489996826171875,-0.0957021713256836,0.01583906263113022,0.012490825727581978
1782772234362976000,6.49997607421875,-0.08133697509765625,0.011074814945459366,0.019689839333295822
1782772234372985600,6.509985595703125,-0.08852005004882812,-0.012768769636750221,0.01252598874270916
1782772234382995500,6.519995361328125,-0.07654857635498047,0.013601377606391907,0.014877136796712875
1782772234392974600,6.529974609375,-0.09091472625732422,0.01841239258646965,0.00047018472105264664
1782772234402984400,6.539984375,-0.10049152374267578,0.016034595668315887,0.007671288680285215
1782772234412994300,6.549994384765625,-0.09091472625732422,0.020894501358270645,0.0028477334417402744
1782772234422973400,6.559973388671875,-0.09091472625732422,0.006538037210702896,0.019619934260845184
1782772234432983300,6.5699833984375,-0.10049152374267578,0.011283494532108307,0.005278273485600948
1782772234442933500,6.57993359375,-0.095703125,-0.0030492283403873444,-0.001807968132197857
1782772234453064000,6.59006396484375,-0.10049152374267578,0.018520724028348923,0.007801120635122061
1782772234462982000,6.59998193359375,-0.095703125,0.0017863959074020386,0.00777167035266757
1782772234472991700,6.60999169921875,-0.08852195739746094,0.004208777099847794,0.017374036833643913
1782772234482971000,6.619970947265625,-0.08612728118896484,0.009086430072784424,-0.0018051927909255028
1782772234492980700,6.629980712890625,-0.07655048370361328,0.021071895956993103,0.010251892730593681
1782772234502990600,6.639990478515625,-0.0957040786743164,0.006857816129922867,0.010288886725902557
1782772234512969700,6.6499697265625,-0.0957040786743164,0.006889626383781433,0.0055381301790475845
1782772234522979600,6.6599794921875,-0.08852291107177734,0.016546860337257385,0.003178549464792013
1782772234532989400,6.669989501953125,-0.07415771484375,0.021409116685390472,0.007881008088588715
1782772234542968600,6.679968505859375,-0.07655143737792969,0.01667920872569084,0.017537079751491547
1782772234552978200,6.689978271484375,-0.09331130981445312,0.021456528455018997,0.010311023332178593
1782772234562988000,6.699988037109375,-0.07415771484375,0.009481143206357956,0.010328235104680061
1782772234572967400,6.709967529296875,-0.08612823486328125,-0.004866546019911766,0.019982796162366867
1782772234582917600,6.719917724609375,-0.08133983612060547,0.007067419588565826,0.0007962696254253387
1782772234593047800,6.7300478515625,-0.11007022857666016,0.014269877225160599,0.005553491413593292
1782772234602996700,6.739996826171875,2.3248329162597656,-0.0695270448923111,0.1732085943222046
1782772234612975900,6.749975830078125,-0.7827959060668945,0.043377410620450974,-0.16733664274215698
1782772234622985700,6.75998583984375,-0.15546131134033203,0.02077104151248932,0.0012466125190258026
1782772234632995600,6.76999560546875,-0.10039997100830078,0.009461130946874619,0.038713499903678894
1782772234642974700,6.779974609375,-0.1099843978881836,0.0295126773416996,0.030393514782190323
1782772234652984600,6.789984619140625,-0.39251136779785156,0.02362503483891487,-0.02177353762090206
1782772234662994200,6.799994140625,-0.0860738754272461,-0.0003299824893474579,-0.023214412853121758
1782772234672973300,6.809973388671875,0.4310340881347656,-0.014442427083849907,0.03456839174032211
1782772234682983200,6.819983154296875,-0.15796375274658203,0.04743257164955139,-0.007102195173501968
