time,seconds_elapsed,z,y,x
1782771778750480100,0.219480224609375,-0.03574657440185547,-0.000932052731513977,0.0006814468652009964
1782771778760490000,0.229489990234375,-0.04532623291015625,0.0017159506678581238,0.01220998540520668
1782771778770499800,0.239499755859375,-0.028568267822265625,-0.005226843059062958,0.007003519684076309
1782771778780479000,0.24947900390625,-0.04533100128173828,-0.0025920569896698,0.028131870552897453
1782771778790488600,0.259488525390625,-0.03814697265625,-0.021685753017663956,0.01867506094276905
1782771778800498400,0.26949853515625,-0.045330047607421875,0.004590630531311035,-0.00041783973574638367
1782771778810477600,0.2794775390625,-0.03096485137939453,-0.0025320015847682953,0.018795963376760483
1782771778820487400,0.2894873046875,-0.057328224182128906,-0.002295609563589096,0.017455458641052246
1782771778830497300,0.299497314453125,-0.05014610290527344,0.004767369478940964,-0.011154628358781338
1782771778840476400,0.309476318359375,-0.04296302795410156,-0.004809483885765076,-0.008700638078153133
1782771778850486300,0.319486328125,-0.06690502166748047,0.014344137161970139,-0.008640989661216736
1782771778860496100,0.32949609375,-0.05493450164794922,-0.016780443489551544,0.003390423022210598
1782771778870475300,0.339475341796875,-0.05254077911376953,0.007281232625246048,0.0057846256531775
1782771778880484900,0.34948486328125,-0.06451225280761719,-0.01187238097190857,0.013087054714560509
1782771778890494700,0.35949462890625,-0.040569305419921875,-0.004629991948604584,-0.017978042364120483
1782771778900473900,0.369473876953125,-0.05014610290527344,-0.002235792577266693,0.003629866987466812
1782771778910483700,0.379483642578125,-0.06451225280761719,-0.014206849038600922,-0.013010552152991295
1782771778920493600,0.38949365234375,-0.0357818603515625,0.00015845894813537598,0.0013552741147577763
1782771778930472700,0.39947265625,-0.033387184143066406,0.0001585148274898529,0.008657854050397873
1782771778940482600,0.409482666015625,-0.06211662292480469,-0.0022955499589443207,-0.0009186472743749619
1782771778950492400,0.419492431640625,-0.04535865783691406,-0.004629913717508316,-0.00564721692353487
1782771778960471600,0.429471435546875,-0.052539825439453125,0.00015854835510253906,0.00877839419990778
1782771778970481200,0.439481201171875,-0.059722900390625,0.009794998914003372,0.011172596365213394
1782771778980491000,0.449490966796875,-0.06451129913330078,-0.016541220247745514,0.013566797599196434
1782771778990470100,0.45947021484375,-0.052539825439453125,-0.0141470767557621,-0.022286701947450638
1782771779000480000,0.46947998046875,-0.057328224182128906,-0.014147128909826279,0.004109121859073639
1782771779010489900,0.47948974609375,-0.059722900390625,-0.00696452334523201,0.018534164875745773
1782771779020499500,0.48949951171875,-0.059722900390625,-0.00217612087726593,0.0018348447047173977
1782771779030478800,0.499478759765625,-0.054935455322265625,-0.006964471191167831,-0.0004992177709937096
1782771779040488700,0.50948876953125,-0.050147056579589844,-0.021329564973711967,0.004349708557128906
1782771779050498600,0.51949853515625,-0.06211662292480469,0.0002780817449092865,-0.002713235095143318
1782771779060477700,0.529477783203125,-0.052539825439453125,0.002672344446182251,-0.0050470344722270966
1782771779070487300,0.5394873046875,-0.057328224182128906,-0.014146611094474792,0.002195825334638357
1782771779080497200,0.5494970703125,-0.052539825439453125,0.002612803131341934,0.014226929284632206
1782771779090476500,0.5594765625,-0.045357704162597656,-0.004509970545768738,0.01662113144993782
1782771779100486100,0.569486083984375,-0.06211662292480469,0.01224943995475769,-0.0025324812158942223
1782771779110496000,0.57949609375,-0.054935455322265625,-0.006844338029623032,-0.0001382799819111824
1782771779120475100,0.58947509765625,-0.05254077911376953,-0.011572703719139099,0.007044018711894751
1782771779130485000,0.599485107421875,-0.06930065155029297,0.0003983601927757263,0.014286575838923454
1782771779140494800,0.609494873046875,-0.06451225280761719,-0.006784185767173767,-0.0024124346673488617
1782771779150474000,0.619473876953125,-0.06690692901611328,-0.00672435387969017,-0.00959504023194313
1782771779160483800,0.62948388671875,-0.06690692901611328,-0.004330046474933624,0.019135992974042892
1782771779170493700,0.63949365234375,-0.04775238037109375,-0.013906795531511307,0.00004251021891832352
1782771779180472800,0.649472900390625,-0.05732917785644531,0.007580984383821487,0.007285515312105417
1782771779190482400,0.659482421875,-0.06451225280761719,-0.018755175173282623,0.007345466408878565
1782771779200492300,0.6694921875,-0.06451225280761719,-0.001995764672756195,0.009799765422940254
1782771779210471400,0.679471435546875,-0.07648277282714844,-0.023543577641248703,-0.004505615681409836
1782771779220481300,0.689481201171875,-0.07408905029296875,-0.00438990443944931,0.014648301526904106
1782771779230491100,0.6994912109375,-0.04535865783691406,0.007581103593111038,0.009859898127615452
1782771779240470300,0.70947021484375,-0.06930065155029297,0.0027927644550800323,0.019497103989124298
1782771779250480000,0.719480224609375,-0.07887744903564453,-0.013847347348928452,0.0004031416028738022
1782771779260490000,0.729489990234375,-0.047753334045410156,-0.008938685059547424,0.0027375533245503902
1782771779270499600,0.73949951171875,-0.0621185302734375,0.015063278377056122,0.010040424764156342
1782771779280479000,0.74947900390625,-0.0645132064819336,-0.025638148188591003,0.005312113091349602
1782771779290488600,0.759488525390625,-0.07887840270996094,0.0006981343030929565,0.002977865282446146
1782771779300498400,0.76949853515625,-0.06690692901611328,-0.0016359202563762665,0.003038268070667982
1782771779310477600,0.7794775390625,-0.07169628143310547,-0.018263641744852066,0.017388705164194107
1782771779320487400,0.7894873046875,-0.05493736267089844,-0.003883078694343567,0.01736442930996418
1782771779330497300,0.799497314453125,-0.059726715087890625,-0.0038092508912086487,0.0030977404676377773
1782771779340476400,0.809476318359375,-0.07888031005859375,0.005767486989498138,0.005551734007894993
1782771779350486300,0.819486328125,-0.05733203887939453,0.003379039466381073,0.024680720642209053
1782771779360496000,0.82949609375,-0.0669088363647461,-0.006131790578365326,0.012688692659139633
1782771779370475300,0.839475341796875,-0.06930351257324219,0.0010548047721385956,0.007881591096520424
1782771779380484900,0.84948486328125,-0.0645151138305664,-0.008456408977508545,0.007923174649477005
1782771779390494700,0.85949462890625,-0.0693044662475586,-0.0011541396379470825,0.0008003991097211838
1782771779400473900,0.869473876953125,-0.07648563385009766,-0.003548339009284973,0.012831505388021469
1782771779410483700,0.879483642578125,-0.05733299255371094,-0.01318473368883133,0.005589550361037254
1782771779420493600,0.88949365234375,-0.07169818878173828,-0.013124573975801468,-0.00644125510007143
1782771779430472700,0.89947265625,-0.0669097900390625,0.0013603009283542633,0.0007413523271679878
1782771779440482600,0.909482666015625,-0.07648658752441406,0.013331249356269836,-0.0015333238989114761
1782771779450492400,0.919492431640625,-0.06212139129638672,-0.005762532353401184,0.003314908128231764
1782771779460471600,0.929471435546875,-0.0669097900390625,-0.005762472748756409,0.0033152070827782154
1782771779470481400,0.9394814453125,-0.07169818878173828,0.006268251687288284,0.020074915140867233
1782771779480491000,0.949490966796875,-0.07409286499023438,0.013390760868787766,0.012952407822012901
1782771779490470100,0.95947021484375,-0.07409381866455078,-0.015219870954751968,0.012953003868460655
1782771779500480000,0.96947998046875,-0.057333946228027344,0.0015396066009998322,-0.001351996324956417
1782771779510489900,0.97948974609375,-0.07888126373291016,-0.02725064940750599,-0.008474771864712238
1782771779520499700,0.989499755859375,-0.07409286499023438,-0.003308560699224472,0.010739236138761044
1782771779530478800,0.999478759765625,-0.0669107437133789,-0.012885238975286484,0.006011259742081165
1782771779540488700,1.00948876953125,-0.0669107437133789,0.00393415242433548,0.022770967334508896
1782771779550498600,1.01949853515625,-0.08127498626708984,-0.008096754550933838,-0.005899918265640736
1782771779560477700,1.029477783203125,-0.0693044662475586,0.0014199577271938324,0.0013427827507257462
1782771779570487300,1.0394873046875,-0.05733299255371094,-0.0057625845074653625,-0.013081779703497887
1782771779580497200,1.0494970703125,-0.07409286499023438,0.001540347933769226,0.02289193868637085
1782771779590476500,1.0594765625,-0.07648658752441406,0.006328955292701721,0.01337585598230362
1782771779600486100,1.069486083984375,-0.062122344970703125,0.006388727575540543,0.001524076797068119
1782771779610496000,1.07949609375,-0.07409381866455078,0.0016003921627998352,-0.012840835377573967
1782771779620475100,1.08947509765625,-0.08367061614990234,-0.01755315065383911,0.006313075311481953
1782771779630485000,1.099485107421875,-0.057333946228027344,-0.005522489547729492,0.0015246719121932983
1782771779640494800,1.109494873046875,-0.07409477233886719,-0.010250743478536606,0.008767673745751381
1782771779650474000,1.119473876953125,-0.07169914245605469,-0.0055221617221832275,0.006373467855155468
1782771779660483800,1.12948388671875,-0.08127593994140625,0.011237237602472305,0.01355607621371746
1782771779670493700,1.13949365234375,-0.08606529235839844,0.0041145458817481995,0.01834477297961712
1782771779680472800,1.149472900390625,-0.08367061614990234,0.011357307434082031,0.01122256275266409
1782771779690482700,1.159482666015625,-0.06451797485351562,-0.02210192382335663,0.0017051063477993011
1782771779700492300,1.1694921875,-0.08606529235839844,-0.005342453718185425,0.013796607032418251
1782771779710471400,1.179471435546875,-0.0693063735961914,-0.0004942826926708221,0.00912756659090519
1782771779720481300,1.189481201171875,-0.08127689361572266,-0.005282696336507797,0.011521771550178528
1782771779730491100,1.1994912109375,-0.0717000961303711,-0.002888418734073639,-0.0003891102969646454
1782771779740470300,1.20947021484375,-0.0717000961303711,-0.010010860860347748,0.00451978063210845
1782771779750480100,1.219480224609375,-0.07648849487304688,-0.0147993303835392,0.004519485402852297
1782771779760490000,1.229489990234375,-0.0717000961303711,0.0044143833220005035,0.004579582717269659
1782771779770499800,1.239499755859375,-0.06691169738769531,-0.0074883997440338135,0.02138162963092327
1782771779780479000,1.24947900390625,-0.07409477233886719,-0.002690322697162628,0.014235522598028183
1782771779790488600,1.259488525390625,-0.06930732727050781,0.0044982172548770905,0.007150652818381786
1782771779800498400,1.26949853515625,-0.06451797485351562,-0.012201033532619476,-0.00715416856110096
1782771779810477600,1.2794775390625,-0.0693063735961914,-0.0002898573875427246,0.007211041636765003
1782771779820487400,1.2894873046875,-0.0717010498046875,0.00934702530503273,0.014333944767713547
1782771779830497300,1.299497314453125,-0.06212329864501953,-0.009801480919122696,0.016769085079431534
1782771779840476400,1.309476318359375,-0.08606624603271484,0.0022897236049175262,-0.0023842304944992065
1782771779850486300,1.319486328125,-0.08127880096435547,-0.014410007745027542,0.004798374604433775
1782771779860496100,1.32949609375,-0.06930732727050781,-0.004893194884061813,0.01682974025607109
1782771779870475300,1.339475341796875,-0.09324932098388672,-0.014459587633609772,0.007296774536371231
1782771779880484900,1.34948486328125,-0.0740957260131836,-0.0263479296118021,0.009728152304887772
1782771779890494700,1.35949462890625,-0.0740957260131836,0.002398233860731125,0.009707624092698097
1782771779900473900,1.369473876953125,-0.0717010498046875,-0.01433604583144188,0.012072590179741383
1782771779910483700,1.379483642578125,-0.06930732727050781,0.0095582976937294,0.012109288945794106
1782771779920493600,1.38949365234375,-0.08606719970703125,-0.00951480120420456,0.019311800599098206
1782771779930472700,1.39947265625,-0.07888412475585938,0.01915578916668892,0.00009834952652454376
1782771779940482600,1.409482666015625,-0.062125205993652344,0.00006603822112083435,0.01694510132074356
1782771779950492400,1.419492431640625,-0.06691360473632812,-0.002324119210243225,0.009733811020851135
1782771779960471600,1.429471435546875,-0.05973243713378906,-0.004592537879943848,0.009762192144989967
1782771779970481200,1.439481201171875,-0.0740976333618164,0.00977274775505066,0.00269917119294405
1782771779980491000,1.449490966796875,-0.06930923461914062,-0.00692657008767128,0.009941872209310532
1782771779990470100,1.45947021484375,-0.08606815338134766,-0.004412636160850525,0.010001996532082558
1782771780000480000,1.46947998046875,-0.0740976333618164,-0.001958366483449936,0.010002575814723969
1782771780010489900,1.47948974609375,-0.0788869857788086,-0.0019549988210201263,0.021944522857666016
1782771780020499500,1.48949951171875,-0.06931018829345703,0.00522816926240921,0.00037393439561128616
1782771780030478800,1.499478759765625,-0.07170295715332031,-0.001894526183605194,0.0028282571583986282
1782771780040488700,1.50948876953125,-0.06691551208496094,0.014924868941307068,0.0004343446344137192
1782771780050498600,1.51949853515625,-0.06212806701660156,0.0005595870316028595,0.01713363640010357
1782771780060477700,1.529477783203125,-0.08607006072998047,-0.0016595721244812012,0.019492777064442635
1782771780070487300,1.5394873046875,-0.08128166198730469,0.007907703518867493,0.009938027709722519
1782771780080497200,1.5494970703125,-0.07170486450195312,0.0031195320188999176,0.00030198972672224045
1782771780090476500,1.5594765625,-0.0788888931274414,-0.013579968363046646,0.009938914328813553
1782771780100486100,1.569486083984375,-0.0788888931274414,0.00556984543800354,0.014755191281437874
1782771780110496000,1.57949609375,-0.07170581817626953,-0.0038291364908218384,0.017236802726984024
1782771780120475100,1.58947509765625,-0.0812826156616211,0.0010169260203838348,0.005293519701808691
1782771780130485000,1.599485107421875,-0.0788888931274414,-0.0013772733509540558,-0.006677488796412945
1782771780140494800,1.609494873046875,-0.06931209564208984,-0.003771260380744934,0.024484120309352875
1782771780150474000,1.619473876953125,-0.0788888931274414,-0.0013763532042503357,0.010092927142977715
1782771780160483800,1.62948388671875,-0.06691837310791016,-0.0059822313487529755,0.01251806877553463
1782771780170493700,1.63949365234375,-0.08607196807861328,-0.020336292684078217,0.005308328662067652
1782771780180472800,1.649472900390625,-0.07888984680175781,-0.01080227643251419,0.019755706191062927
1782771780190482700,1.659482666015625,-0.0788888931274414,0.001123722642660141,0.014983739703893661
1782771780200492300,1.6694921875,-0.07170581817626953,-0.006119046360254288,-0.013746966607868671
1782771780210471400,1.679471435546875,-0.07649421691894531,-0.008513249456882477,0.003012445755302906
1782771780220481300,1.689481201171875,-0.08367729187011719,0.0035176649689674377,0.005526470486074686
1782771780230491100,1.6994912109375,-0.0836782455444336,-0.008393429219722748,0.012709361501038074
1782771780240470300,1.70947021484375,-0.07170677185058594,-0.010727539658546448,-0.0015957560390233994
1782771780250480000,1.719480224609375,-0.06931209564208984,0.003587394952774048,0.027169913053512573
1782771780260490000,1.729489990234375,-0.06691741943359375,-0.013155750930309296,0.02007199637591839
1782771780270499800,1.739499755859375,-0.07649517059326172,0.006069649010896683,0.010454615578055382
1782771780280479000,1.74947900390625,-0.07170772552490234,0.01576671004295349,-0.0015161046758294106
1782771780290488600,1.759488525390625,-0.0836782455444336,0.0012818723917007446,0.022446300834417343
1782771780300498400,1.76949853515625,-0.0836782455444336,-0.008291598409414291,0.003323286771774292
1782771780310477600,1.7794775390625,-0.06931304931640625,-0.003498658537864685,0.012987441383302212
1782771780320487400,1.7894873046875,-0.07649517059326172,-0.005944982171058655,0.017793916165828705
1782771780330497300,1.799497314453125,-0.07410144805908203,-0.005937714129686356,0.005734506528824568
1782771780340476400,1.809476318359375,-0.07410144805908203,-0.010666027665138245,-0.00378220621496439
1782771780350486300,1.819486328125,-0.09325504302978516,0.008487585932016373,-0.01096480991691351
1782771780360496000,1.82949609375,-0.057342529296875,0.003759283572435379,0.005794601049274206
1782771780370475300,1.839475341796875,-0.0812845230102539,-0.008091907948255539,0.013037603348493576
1782771780380484900,1.84948486328125,-0.0812845230102539,-0.005637791007757187,-0.003661898896098137
1782771780390494700,1.85949462890625,-0.07889175415039062,0.0016046464443206787,0.013097514398396015
1782771780400473900,1.869473876953125,-0.06931400299072266,-0.008032247424125671,0.005974999163299799
1782771780410483700,1.879483642578125,-0.06931400299072266,0.015850115567445755,0.008309549652040005
1782771780420493600,1.88949365234375,-0.06931304931640625,0.001424890011548996,0.0203409381210804
1782771780430472700,1.89947265625,-0.0812835693359375,-0.0033635087311267853,0.003641357645392418
1782771780440482600,1.909482666015625,-0.08846664428710938,-0.005817539989948273,0.010884160175919533
1782771780450492400,1.919492431640625,-0.06691837310791016,-0.0033635087311267853,0.0013073533773422241
1782771780460471600,1.929471435546875,-0.06931400299072266,-0.008031640201807022,0.013398833572864532
1782771780470481200,1.939481201171875,-0.06452560424804688,0.013575892895460129,0.0014281105250120163
1782771780480491000,1.949490966796875,-0.0812845230102539,-0.000729292631149292,0.015793034806847572
1782771780490470100,1.95947021484375,-0.06692028045654297,-0.005457866936922073,0.013458662666380405
1782771780500480000,1.96947998046875,-0.06692028045654297,0.0017845556139945984,0.006275779101997614
1782771780510489900,1.97948974609375,-0.0836801528930664,-0.019693974405527115,0.02306004986166954
1782771780520499500,1.98949951171875,-0.06452655792236328,-0.005258914083242416,0.015782656148076057
1782771780530478800,1.999478759765625,-0.0836801528930664,0.013836659491062164,0.025253692641854286
1782771780540488700,2.00948876953125,-0.07649707794189453,-0.00046708807349205017,0.0012653237208724022
1782771780550498600,2.01949853515625,-0.08368110656738281,-0.014762494713068008,0.010857012122869492
1782771780560477700,2.029477783203125,-0.07649803161621094,0.006789050996303558,0.006210136692970991
1782771780570487300,2.0394873046875,-0.08368110656738281,0.0020026378333568573,0.018191413953900337
1782771780580497200,2.0494970703125,-0.07410430908203125,-0.002723243087530136,0.018148737028241158
1782771780590476500,2.0594765625,-0.08368206024169922,0.004518534988164902,0.010867005214095116
1782771780600486100,2.069486083984375,-0.08368110656738281,-0.007509436458349228,0.010890932753682137
1782771780610496000,2.07949609375,-0.0860757827758789,-0.00020708516240119934,-0.005808371119201183
1782771780620475100,2.08947509765625,-0.0860757827758789,0.0022477805614471436,0.027731910347938538
1782771780630485000,2.099485107421875,-0.08128738403320312,-0.0049321092665195465,0.010873613879084587
1782771780640494800,2.109494873046875,-0.0860757827758789,-0.014442283660173416,0.006059576291590929
1782771780650474000,2.119473876953125,-0.07410621643066406,0.0047711580991744995,-0.01297437772154808
1782771780660483800,2.12948388671875,-0.07649993896484375,0.004771240055561066,0.008693543262779713
1782771780670493700,2.13949365234375,-0.06931781768798828,-0.009529255330562592,0.023033417761325836
1782771780680472800,2.149472900390625,-0.07410621643066406,-0.004740770906209946,0.0039401790127158165
1782771780690482700,2.159482666015625,-0.09086418151855469,-0.009638167917728424,0.0254536010324955
1782771780700492300,2.1694921875,-0.08128833770751953,-0.007234558463096619,0.013514905236661434
1782771780710471400,2.179471435546875,-0.08128738403320312,-0.0024947188794612885,0.015871703624725342
1782771780720481300,2.189481201171875,-0.06931686401367188,-0.002484045922756195,0.018284371122717857
1782771780730491100,2.1994912109375,-0.0860757827758789,0.016789577901363373,0.01117895357310772
1782771780740470300,2.20947021484375,-0.08368301391601562,-0.007089141756296158,0.0015698084607720375
1782771780750480100,2.219480224609375,-0.08368301391601562,-0.007084589451551437,0.0016069114208221436
1782771780760490000,2.229489990234375,-0.08368301391601562,-0.004570275545120239,0.006455133203417063
1782771780770499800,2.239499755859375,-0.0884714126586914,-0.00695844367146492,0.018403973430395126
1782771780780479000,2.24947900390625,-0.08607673645019531,-0.006888452917337418,0.02566879242658615
1782771780790488600,2.259488525390625,-0.08847236633300781,0.005148887634277344,0.013652379624545574
1782771780800498400,2.26949853515625,-0.07889556884765625,-0.006753269582986832,0.020786544308066368
1782771780810477600,2.2794775390625,-0.07889652252197266,0.010127559304237366,0.011214202269911766
1782771780820487400,2.2894873046875,-0.07410812377929688,0.007729891687631607,0.016009995713829994
1782771780830497300,2.299497314453125,-0.08129024505615234,0.012567918747663498,0.004114004783332348
1782771780840476400,2.309476318359375,-0.08368587493896484,0.005434978753328323,-0.003159484826028347
1782771780850486300,2.319486328125,-0.08129119873046875,0.007879149168729782,0.013575755059719086
1782771780860496100,2.32949609375,-0.07650375366210938,0.02228238806128502,0.011149091646075249
1782771780870475300,2.339475341796875,-0.06692695617675781,0.005562063306570053,0.01590355858206749
1782771780880484900,2.34948486328125,-0.059744834899902344,0.022347040474414825,0.00156305730342865
1782771780890494700,2.35949462890625,-0.08129215240478516,0.0103379525244236,0.013553162105381489
1782771780900473900,2.369473876953125,-0.07410812377929688,0.01748005673289299,0.001668970100581646
1782771780910483700,2.379483642578125,-0.08847332000732422,-0.01605784334242344,0.0017652865499258041
1782771780920493600,2.38949365234375,-0.08607864379882812,-0.004100102931261063,0.020952381193637848
1782771780930472700,2.39947265625,-0.08607959747314453,0.0031288936734199524,0.013799956999719143
1782771780940482600,2.409482666015625,-0.08607864379882812,-0.006515532732009888,0.006591851357370615
1782771780950492400,2.419492431640625,-0.0908670425415039,0.01980292797088623,0.011349024251103401
1782771780960471600,2.429471435546875,-0.08368492126464844,-0.006605938076972961,0.0232795812189579
1782771780970481200,2.439481201171875,-0.08847332000732422,-0.0017084069550037384,0.013661554083228111
1782771780980491000,2.449490966796875,-0.07171344757080078,0.010184761136770248,0.02323867753148079
1782771780990470100,2.45947021484375,-0.07410812377929688,-0.004127956926822662,-0.01018598023802042
1782771781000480000,2.46947998046875,-0.062137603759765625,0.0007721222937107086,0.013783854432404041
1782771781010489900,2.47948974609375,-0.08129119873046875,0.012787390500307083,0.02098264917731285
1782771781020499500,2.48949951171875,-0.0693206787109375,-0.003982730209827423,0.011304302141070366
1782771781030478800,2.499478759765625,-0.07650375366210938,0.000917293131351471,0.0066043841652572155
1782771781040488700,2.50948876953125,-0.07650375366210938,-0.006329677999019623,0.013810981065034866
1782771781050498600,2.51949853515625,-0.08129215240478516,-0.003937818109989166,0.01861315593123436
1782771781060477700,2.529477783203125,-0.06692695617675781,0.003240436315536499,0.016226548701524734
1782771781070487600,2.539487548828125,-0.06692695617675781,0.0008418932557106018,0.021018240600824356
1782771781080497200,2.5494970703125,-0.08129215240478516,-0.0014955103397369385,0.011382289230823517
1782771781090476500,2.5594765625,-0.059744834899902344,-0.001436907798051834,-0.003066234290599823
1782771781100486100,2.569486083984375,-0.06213855743408203,-0.001437544822692871,0.013726403936743736
1782771781110436400,2.579436279296875,-0.08129215240478516,-0.0013778842985630035,0.001801980659365654
1782771781121624000,2.5906240234375,-0.07650375366210938,-0.008554480969905853,0.028139136731624603
1782771781140494800,2.609494873046875,-0.07889938354492188,0.0012467578053474426,0.0065720523707568645
1782771781150474000,2.619473876953125,-0.07650470733642578,0.0011853426694869995,0.016115756705403328
1782771781160483800,2.62948388671875,-0.07650470733642578,-0.005995806306600571,0.020851265639066696
1782771781170524200,2.639524169921875,-0.098052978515625,-0.0011460967361927032,0.018460713326931
1782771781180472800,2.649472900390625,-0.07171630859375,0.008485481142997742,0.040036965161561966
1782771781190482400,2.659482421875,-0.07890033721923828,0.0060820914804935455,0.013675035908818245
1782771781200492300,2.6694921875,-0.07650470733642578,-0.003440629690885544,0.023279065266251564
1782771781210471400,2.679471435546875,-0.0717172622680664,0.003734275698661804,0.01116609014570713
1782771781220422000,2.689421875,-0.09326553344726562,0.006118711084127426,0.008766676299273968
1782771781230552000,2.699552001953125,-0.08368873596191406,0.00856049358844757,-0.0008557606488466263
1782771781240470300,2.70947021484375,-0.06932449340820312,-0.0009037628769874573,0.015862438827753067
1782771781250480000,2.719480224609375,-0.08129501342773438,-0.010364897549152374,0.0038553504273295403
1782771781260490000,2.729489990234375,-0.07171821594238281,-0.005636334419250488,0.01100502721965313
1782771781270499800,2.739499755859375,-0.08847808837890625,-0.0007878914475440979,0.013419289141893387
1782771781280479000,2.74947900390625,-0.07171821594238281,-0.012752853333950043,0.0062647550366818905
1782771781290488600,2.759488525390625,-0.07890129089355469,-0.012679032981395721,0.023032888770103455
1782771781300498400,2.76949853515625,-0.07171916961669922,-0.003088969737291336,0.011014331132173538
1782771781310477600,2.7794775390625,-0.0789022445678711,-0.005353547632694244,0.013493639416992664
1782771781320428000,2.789427978515625,-0.09087276458740234,0.0018393732607364655,0.015896042808890343
1782771781330558200,2.79955810546875,-0.08608627319335938,-0.007604014128446579,0.025407589972019196
1782771781340476400,2.809476318359375,-0.08848094940185547,0.0019828863441944122,0.01582670584321022
1782771781350426600,2.819426513671875,-0.07411575317382812,-0.005188334733247757,0.008645465597510338
1782771781361606400,2.8306064453125,-0.09087467193603516,0.004396114498376846,0.025380432605743408
1782771781380484900,2.84948486328125,-0.07650947570800781,-0.005006223917007446,0.006235154811292887
1782771781390494700,2.85949462890625,-0.0789041519165039,0.0046282559633255005,0.027707088738679886
1782771781400473900,2.869473876953125,-0.07890510559082031,-0.009612638503313065,0.006100211758166552
1782771781410424300,2.87942431640625,-0.07172203063964844,-0.0024253129959106445,0.010952278971672058
1782771781420554500,2.889554443359375,-0.07890605926513672,0.00242498517036438,0.013289401307702065
1782771781430472700,2.89947265625,-0.08848285675048828,0.00009170174598693848,-0.008274568244814873
1782771781440482600,2.909482666015625,-0.07172298431396484,0.016910575330257416,0.0013615256175398827
1782771781450492400,2.919492431640625,-0.09327125549316406,0.007333766669034958,-0.0034268787130713463
1782771781460471600,2.929471435546875,-0.07890605926513672,0.012122169137001038,0.013392627239227295
1782771781470481200,2.939481201171875,-0.10045337677001953,-0.006980173289775848,0.02300054021179676
1782771781480491000,2.949490966796875,-0.0860891342163086,0.00031361356377601624,0.013388516381382942
1782771781490470100,2.95947021484375,-0.07411861419677734,0.009882699698209763,0.013306907378137112
1782771781500480000,2.96947998046875,-0.07411861419677734,-0.004485975950956345,0.0013233795762062073
1782771781510489900,2.97948974609375,-0.07890701293945312,-0.0044262222945690155,0.008445889689028263
1782771781520499700,2.989499755859375,-0.07411861419677734,0.014776553958654404,0.027564633637666702
1782771781530419500,2.99941943359375,-0.06454181671142578,0.009976506233215332,0.006049614865332842
1782771781540549600,3.009549560546875,-0.07890701293945312,0.005114611238241196,0.008473076857626438
1782771781550439000,3.01943896484375,-0.0836954116821289,0.010004431009292603,0.015557201579213142
1782771781561640700,3.030640625,-0.07172489166259766,0.007648296654224396,0.003551867790520191
1782771781580497200,3.0494970703125,-0.09087848663330078,-0.009086217731237411,0.013134476728737354
1782771781590476500,3.0594765625,-0.08369731903076172,0.010172657668590546,0.01795288547873497
1782771781600486100,3.069486083984375,-0.08130264282226562,-0.013719191774725914,0.03471348434686661
1782771781610496000,3.07949609375,-0.07172584533691406,0.003031499683856964,0.0011522984132170677
1782771781620415700,3.089415771484375,-0.08369731903076172,0.015048671513795853,0.0035130390897393227
1782771781630546000,3.0995458984375,-0.0884857177734375,0.0007285922765731812,0.015561580657958984
1782771781640494800,3.109494873046875,-0.08369731903076172,0.003170289099216461,0.015581760555505753
1782771781650414600,3.11941455078125,-0.06693744659423828,0.0032133087515830994,0.027551498264074326
1782771781660544800,3.129544677734375,-0.07412147521972656,0.008045360445976257,-0.0035535860806703568
1782771781670493700,3.13949365234375,-0.07412052154541016,0.0009098611772060394,0.0037164315581321716
1782771781680472800,3.149472900390625,-0.07651424407958984,0.003292262554168701,0.0036892369389533997
1782771781690482700,3.159482666015625,-0.07412147521972656,0.022487368434667587,0.008454035967588425
1782771781700492300,3.1694921875,-0.07651424407958984,0.0008618161082267761,0.020453257486224174
1782771781710471400,3.179471435546875,-0.08130264282226562,-0.00399370864033699,-0.000989832915365696
1782771781720481300,3.189481201171875,-0.07651424407958984,-0.006327927112579346,-0.000989571213722229
1782771781730491100,3.1994912109375,-0.07172584533691406,0.0057030729949474335,0.003799346275627613
1782771781740470300,3.20947021484375,-0.06693840026855469,-0.0014193467795848846,0.0014654994010925293
1782771781750480100,3.219480224609375,-0.07412052154541016,0.01049209013581276,0.011042563244700432
1782771781760490000,3.229489990234375,-0.0860910415649414,0.003358554095029831,0.02771393023431301
1782771781770499800,3.239499755859375,-0.08369827270507812,0.012975789606571198,0.015704445540905
1782771781780479000,3.24947900390625,-0.08609199523925781,-0.006125397980213165,0.008500473573803902
1782771781790488600,3.259488525390625,-0.08369827270507812,-0.006070394068956375,0.013326240703463554
1782771781800498400,3.26949853515625,-0.08609199523925781,-0.0012275129556655884,0.003779861144721508
1782771781810477600,3.2794775390625,-0.07651519775390625,-0.0012300275266170502,0.01339728944003582
1782771781820487400,3.2894873046875,-0.08130359649658203,0.0011642538011074066,0.0014265384525060654
1782771781830497300,3.299497314453125,-0.06693840026855469,-0.006019432097673416,0.020599976181983948
1782771781840476400,3.309476318359375,-0.07890987396240234,-0.003624100238084793,0.018276121467351913
1782771781850486300,3.319486328125,-0.07412147521972656,0.008343163877725601,0.0014832839369773865
1782771781860496100,3.32949609375,-0.07412147521972656,0.010787390172481537,0.0062964619137346745
1782771781870475300,3.339475341796875,-0.05975627899169922,0.0035942494869232178,0.032703936100006104
1782771781880484900,3.34948486328125,-0.05736255645751953,0.008430540561676025,0.006389586720615625
1782771781890494700,3.35949462890625,-0.07412242889404297,-0.0034910105168819427,0.018311727792024612
1782771781900473900,3.369473876953125,-0.0932760238647461,0.0084679014980793,0.011207686737179756
1782771781910483700,3.379483642578125,-0.08369922637939453,0.010902214795351028,0.018277036026120186
1782771781920493600,3.38949365234375,-0.08369922637939453,0.008484948426485062,0.023003101348876953
1782771781930472700,3.39947265625,-0.08369922637939453,0.001341402530670166,0.01575763337314129
1782771781940423200,3.409423095703125,-0.08848762512207031,-0.010698523372411728,0.00613201642408967
1782771781950553300,3.41955322265625,-0.09566974639892578,0.006048228591680527,0.020438075065612793
1782771781960471600,3.429471435546875,-0.08130359649658203,-0.0012659281492233276,0.01803981140255928
1782771781970481200,3.439481201171875,-0.08369922637939453,-0.0036073625087738037,0.018032986670732498
1782771781980491000,3.449490966796875,-0.08130359649658203,0.005899868905544281,0.015513092279434204
1782771781990470400,3.459470458984375,-0.07412147521972656,-0.0012899711728096008,0.015507159754633904
1782771782000480000,3.46947998046875,-0.08609199523925781,0.003488585352897644,0.020276792347431183
1782771782010430200,3.47943017578125,-0.08369827270507812,0.005874104797840118,0.001078559085726738
1782771782020560600,3.489560546875,-0.062150001525878906,-0.001316998153924942,0.024957269430160522
1782771782030478800,3.499478759765625,-0.08369922637939453,-0.0012036599218845367,0.02254834771156311
1782771782040488700,3.50948876953125,-0.06215190887451172,0.017989996820688248,0.003330775536596775
1782771782050498600,3.51949853515625,-0.06215190887451172,0.0036103427410125732,0.0008954787626862526
1782771782060477700,3.529477783203125,-0.10285377502441406,0.0036548003554344177,0.017727356404066086
1782771782070487600,3.539487548828125,-0.08609294891357422,-0.010715693235397339,-0.00139582809060812
1782771782080497200,3.5494970703125,-0.08130455017089844,0.015612315386533737,0.0010402416810393333
1782771782090476500,3.5594765625,-0.07891082763671875,-0.008389446884393692,-0.0037479083985090256
1782771782100486100,3.569486083984375,-0.0932760238647461,0.022719670087099075,0.01783512905240059
1782771782110496000,3.57949609375,-0.06933403015136719,0.01799117773771286,-0.013289240188896656
1782771782120475100,3.58947509765625,-0.07412242889404297,0.0060542672872543335,0.017809975892305374
1782771782130485000,3.599485107421875,-0.05736351013183594,-0.0034782476723194122,0.012999936938285828
1782771782140494800,3.609494873046875,-0.07651615142822266,0.010745741426944733,0.01536421850323677
1782771782150474000,3.619473876953125,-0.08370018005371094,-0.013147911056876183,0.017723586410284042
1782771782160483800,3.62948388671875,-0.0932769775390625,0.013286903500556946,0.02491353079676628
1782771782170493700,3.63949365234375,-0.07412338256835938,0.0012981593608856201,0.00816740095615387
1782771782180472800,3.649472900390625,-0.07412338256835938,0.010974667966365814,0.015425208956003189
1782771782190423000,3.659423095703125,-0.08609390258789062,-0.005735974758863449,0.005876718554645777
1782771782200553500,3.669553466796875,-0.08848953247070312,-0.0032912269234657288,0.010569322854280472
1782771782210471400,3.679471435546875,-0.08370113372802734,0.003937233239412308,0.015363922342658043
1782771782220481300,3.689481201171875,-0.07412338256835938,0.003926366567611694,0.01777597889304161
1782771782230491100,3.6994912109375,-0.07651805877685547,0.003974046558141708,0.008157806470990181
1782771782240411000,3.709410888671875,-0.0693359375,0.008750800043344498,0.0009480500593781471
1782771782250571800,3.71957177734375,-0.07412433624267578,0.011128764599561691,0.0009815748780965805
1782771782260490000,3.729489990234375,-0.08130645751953125,-0.003175560384988785,0.008225061930716038
1782771782270440200,3.739440185546875,-0.08130645751953125,0.003992956131696701,0.01782745122909546
1782771782280671000,3.7496708984375,-0.0956716537475586,0.008764427155256271,0.00827743485569954
1782771782290488600,3.759488525390625,-0.08848953247070312,-0.0007513910531997681,-0.010937165468931198
1782771782300498400,3.76949853515625,-0.0669412612915039,0.008825574070215225,0.005822744686156511
1782771782310477600,3.7794775390625,-0.08130550384521484,0.008765745908021927,-0.00614826288074255
1782771782320487400,3.7894873046875,-0.09088325500488281,-0.012721998617053032,0.005823251325637102
1782771782330497300,3.799497314453125,-0.08370113372802734,-0.0031451918184757233,0.015340227633714676
1782771782340476400,3.809476318359375,-0.07891273498535156,0.004029750823974609,0.02733929082751274
1782771782350486300,3.819486328125,-0.07412433624267578,0.004084181040525436,0.010620476678013802
1782771782360496000,3.82949609375,-0.07891273498535156,0.0016845166683197021,0.015446266159415245
1782771782370475300,3.839475341796875,-0.07172966003417969,-0.0029300376772880554,0.010685395449399948
1782771782380484900,3.84948486328125,-0.08370208740234375,-0.005267444998025894,0.015431022271513939
1782771782390494700,3.85949462890625,-0.07651901245117188,0.01148335263133049,0.005878864321857691
1782771782400473900,3.869473876953125,-0.07412528991699219,-0.0028246305882930756,0.008317013271152973
1782771782410483700,3.879483642578125,-0.07412528991699219,0.018710337579250336,0.022648010402917862
1782771782420493600,3.88949365234375,-0.08849048614501953,-0.0004551522433757782,0.020212043076753616
1782771782430472700,3.89947265625,-0.09088516235351562,0.01389431580901146,0.0010257121175527573
1782771782440482600,3.909482666015625,-0.08609676361083984,0.006757061928510666,0.005787605885416269
1782771782450492400,3.919492431640625,-0.10046195983886719,0.009189266711473465,0.02011233940720558
1782771782460471600,3.929471435546875,-0.07891464233398438,0.011554781347513199,0.020120112225413322
1782771782470481200,3.939481201171875,-0.08130836486816406,-0.0028288960456848145,-0.0014034528285264969
1782771782480491000,3.949490966796875,-0.08130836486816406,0.00678572803735733,0.01770547777414322
1782771782490470400,3.959470458984375,-0.06933784484863281,-0.005198400467634201,0.005700597073882818
1782771782500480000,3.96947998046875,-0.07651996612548828,0.016334105283021927,-0.0015638098120689392
1782771782510489900,3.97948974609375,-0.06933784484863281,0.00919397547841072,0.0032042264938354492
1782771782520499700,3.989499755859375,-0.08849143981933594,0.021254289895296097,0.015145063400268555
1782771782530478800,3.999478759765625,-0.08130931854248047,0.026044368743896484,0.02945074252784252
1782771782540488700,4.00948876953125,-0.08609771728515625,0.0068940818309783936,0.017414312809705734
1782771782550498600,4.01949853515625,-0.05736732482910156,-0.0027228593826293945,0.012687509879469872
1782771782560477700,4.029477783203125,-0.08609771728515625,0.0021553561091423035,0.003127572126686573
1782771782570487600,4.039487548828125,-0.08370304107666016,0.0045270733535289764,-0.008749130181968212
1782771782580497200,4.0494970703125,-0.0717325210571289,0.011812526732683182,0.003266560845077038
1782771782590476500,4.0594765625,-0.08130836486816406,-0.009806707501411438,0.020006008446216583
1782771782600486100,4.069486083984375,-0.09088516235351562,0.023677214980125427,0.010449621826410294
1782771782610496000,4.07949609375,-0.07891559600830078,0.009402167052030563,0.008023901842534542
1782771782620475100,4.08947509765625,-0.07891464233398438,0.002191055566072464,0.019954504445195198
1782771782630425600,4.099425537109375,-0.0717325210571289,-0.004951111972332001,0.00794881209731102
1782771782641570300,4.1105703125,-0.06933879852294922,0.0021524615585803986,0.012697024270892143
1782771782660483800,4.12948388671875,-0.07891654968261719,-0.0001509934663772583,0.003066488541662693
1782771782670493700,4.13949365234375,-0.08609867095947266,0.0046171993017196655,0.010263035073876381
1782771782680472800,4.149472900390625,-0.07173347473144531,0.0046582892537117004,0.017459355294704437
1782771782690482700,4.159482666015625,-0.09567546844482422,0.0023651830852031708,0.005505172070115805
1782771782700492300,4.1694921875,-0.08849334716796875,0.007252201437950134,0.010248692706227303
1782771782710471400,4.179471435546875,-0.07173442840576172,0.0072891004383563995,0.017442427575588226
1782771782720481300,4.189481201171875,-0.06694507598876953,0.004814036190509796,0.005489666480571032
1782771782730491100,4.1994912109375,-0.0765218734741211,0.00957973301410675,0.00545279448851943
1782771782740470300,4.20947021484375,-0.09807014465332031,-0.004741765558719635,0.010265147313475609
1782771782750480100,4.219480224609375,-0.08370494842529297,-0.004752017557621002,0.007898831740021706
1782771782760490000,4.229489990234375,-0.06933975219726562,0.011993017047643661,0.007989119738340378
1782771782770499600,4.23949951171875,-0.07173347473144531,0.00724685937166214,0.015195425599813461
1782771782780479000,4.24947900390625,-0.09328174591064453,0.012142714112997055,0.005599393974989653
1782771782790488600,4.259488525390625,-0.07173347473144531,0.026539206504821777,-0.0016059717163443565
1782771782800498400,4.26949853515625,-0.06694602966308594,0.007418159395456314,0.01046069897711277
1782771782810477600,4.2794775390625,-0.0765218734741211,0.012176025658845901,0.008100678212940693
1782771782820487400,4.2894873046875,-0.07891654968261719,0.01215040311217308,-0.0038862377405166626
1782771782830497300,4.299497314453125,-0.06694507598876953,0.019291825592517853,0.017633195966482162
1782771782840476400,4.309476318359375,-0.06215667724609375,0.002440504729747772,0.005698100198060274
1782771782850486300,4.319486328125,-0.07891654968261719,0.0024712346494197845,0.0032818708568811417
1782771782860496100,4.32949609375,-0.0741281509399414,0.011950258165597916,0.0224582701921463
1782771782870475300,4.339475341796875,-0.08370494842529297,-0.004776217043399811,0.02241602912545204
1782771782880484900,4.34948486328125,-0.0765218734741211,0.007165830582380295,0.022423947229981422
1782771782890494700,4.35949462890625,-0.08130931854248047,0.011855039745569229,0.020019417628645897
1782771782900473900,4.369473876953125,-0.08609771728515625,0.007089786231517792,0.015283916145563126
1782771782910483700,4.379483642578125,-0.0765218734741211,-0.00245589017868042,0.012945295311510563
1782771782920493600,4.38949365234375,-0.07173347473144531,0.009542502462863922,0.012939292006194592
1782771782930472700,4.39947265625,-0.0980691909790039,0.026248857378959656,0.02237585186958313
1782771782940482600,4.409482666015625,-0.09567451477050781,0.009498029947280884,0.015234842896461487
1782771782950492400,4.419492431640625,-0.074127197265625,0.007060721516609192,-0.003913587890565395
1782771782960471600,4.429471435546875,-0.0741262435913086,0.006964206695556641,0.00328638032078743
1782771782970481200,4.439481201171875,-0.08849143981933594,0.016494102776050568,0.008146930485963821
1782771782980491000,4.449490966796875,-0.0980682373046875,-0.00514322891831398,0.012954781763255596
1782771782990470400,4.459470458984375,-0.08609676361083984,0.0020769909024238586,0.0009545134380459785
1782771783000480000,4.46947998046875,-0.07651996612548828,0.01156771183013916,0.015345122665166855
1782771783010489900,4.47948974609375,-0.08609676361083984,0.006817251443862915,0.0010149609297513962
1782771783020499700,4.489499755859375,-0.06215381622314453,0.021090511232614517,0.010682063177227974
1782771783030478800,4.499478759765625,-0.08849143981933594,0.009089462459087372,0.00580750172957778
1782771783040488700,4.50948876953125,-0.095672607421875,0.018630560487508774,0.0033888081088662148
1782771783050498600,4.51949853515625,-0.07891368865966797,0.016243912279605865,0.02004699967801571
1782771783060477700,4.529477783203125,-0.09327983856201172,-0.0028856731951236725,0.015280226245522499
1782771783070487600,4.539487548828125,-0.08130836486816406,0.006708163768053055,0.027251141145825386
1782771783080497200,4.5494970703125,-0.0717315673828125,0.018686357885599136,0.02005949057638645
1782771783090476500,4.5594765625,-0.08609580993652344,-0.002904687076807022,0.01998521201312542
1782771783100486100,4.569486083984375,-0.08849048614501953,-0.002934325486421585,0.008014393039047718
1782771783110496000,4.57949609375,-0.07651901245117188,0.016188278794288635,0.0008478863164782524
1782771783120475100,4.58947509765625,-0.08370113372802734,0.008920345455408096,0.003151130862534046
1782771783130485000,4.599485107421875,-0.07891273498535156,0.00410991907119751,0.010364340618252754
1782771783140435200,4.609435302734375,-0.08370113372802734,0.008876092731952667,0.010395776480436325
1782771783150565600,4.619565673828125,-0.08609580993652344,0.0017292797565460205,0.015028078109025955
1782771783160483800,4.62948388671875,-0.10046100616455078,0.020788919180631638,0.005475739482790232
1782771783170493700,4.63949365234375,-0.08130741119384766,-0.010240621864795685,0.027035027742385864
1782771783180472800,4.649472900390625,-0.08609580993652344,-0.005405254662036896,-0.0016657719388604164
1782771783190482700,4.659482666015625,-0.08130836486816406,0.013790830969810486,0.007882793433964252
1782771783200492300,4.6694921875,-0.09088420867919922,0.006646677851676941,0.015088038519024849
1782771783210471400,4.679471435546875,-0.08130741119384766,-0.0005511343479156494,0.0055421325378119946
1782771783220481300,4.689481201171875,-0.08130741119384766,0.009005725383758545,-0.00400114618241787
1782771783230491100,4.6994912109375,-0.095672607421875,-0.0029053129255771637,0.0031819650903344154
1782771783240470300,4.70947021484375,-0.0956735610961914,-0.005239337682723999,0.010364823043346405
1782771783250480000,4.719480224609375,-0.10764503479003906,0.0067316703498363495,0.0007880162447690964
1782771783260490000,4.729489990234375,-0.08849048614501953,-0.0076933354139328,-0.006334790028631687
1782771783270499600,4.73949951171875,-0.08130836486816406,0.004397932440042496,0.010364491492509842
1782771783280479000,4.74947900390625,-0.0741262435913086,0.004397932440042496,0.0032419823110103607
1782771783290488600,4.759488525390625,-0.08370304107666016,-0.012421051040291786,0.005636435467749834
1782771783300498400,4.76949853515625,-0.08609676361083984,0.009126842021942139,0.012819290161132812
1782771783310418200,4.779418212890625,-0.08130741119384766,0.009067010134458542,0.00557685224339366
1782771783320489000,4.789489013671875,-0.08609580993652344,0.0066728852689266205,0.01994231343269348
1782771783330558200,4.79955810546875,-0.09327888488769531,0.006612818688154221,-0.013636402785778046
1782771783340476400,4.809476318359375,-0.07891368865966797,0.004218779504299164,0.01276065781712532
1782771783350486300,4.819486328125,-0.08370208740234375,0.009007103741168976,0.003124317154288292
1782771783360496000,4.82949609375,-0.08849143981933594,0.013855673372745514,0.0030644740909337997
1782771783370475300,4.839475341796875,-0.10285663604736328,-0.0003897920250892639,-0.00166384968906641
1782771783380484900,4.84948486328125,-0.09327983856201172,0.004458524286746979,0.015215391293168068
1782771783390494700,4.85949462890625,-0.07891464233398438,0.0044586025178432465,0.012941100634634495
1782771783400473900,4.869473876953125,-0.08130836486816406,0.014035649597644806,-0.0013632625341415405
1782771783410483700,4.879483642578125,-0.08370304107666016,0.014035731554031372,0.001150493510067463
1782771783420493600,4.88949365234375,-0.08370304107666016,-0.01708889752626419,0.001210588961839676
1782771783430472700,4.89947265625,-0.08609676361083984,0.0021846219897270203,0.0012711714953184128
1782771783440482600,4.909482666015625,-0.0717315673828125,0.011761512607336044,0.027607638388872147
1782771783450492400,4.919492431640625,-0.08370304107666016,0.0021850280463695526,0.0012724203988909721
1782771783460471600,4.929471435546875,-0.08849143981933594,-0.00014899671077728271,0.018032081425189972
1782771783470481400,4.9394814453125,-0.08849143981933594,-0.00015895813703536987,0.018003756180405617
1782771783480491000,4.949490966796875,-0.08609676361083984,0.009400971233844757,0.02029460109770298
1782771783490470400,4.959470458984375,-0.07891559600830078,0.011831916868686676,0.020242927595973015
1782771783500480000,4.96947998046875,-0.08130836486816406,0.014263972640037537,0.008294707164168358
1782771783510489900,4.97948974609375,-0.09328079223632812,-0.004844527691602707,0.0035367803648114204
1782771783520499700,4.989499755859375,-0.06933879852294922,0.004776984453201294,0.008295487612485886
1782771783530478800,4.999478759765625,-0.07652091979980469,0.012001898139715195,0.010721705853939056
1782771783540488700,5.00948876953125,-0.08131027221679688,0.014429241418838501,0.015531837940216064
1782771783550498600,5.01949853515625,-0.09567546844482422,0.012064296752214432,0.0035254349932074547
1782771783560418300,5.029418212890625,-0.08609771728515625,0.009634599089622498,0.008334944024682045
1782771783570544400,5.03954443359375,-0.08849334716796875,0.016832895576953888,0.010686928406357765
1782771783580497200,5.0494970703125,-0.08609867095947266,-0.002283625304698944,-0.010758636519312859
1782771783590476500,5.0594765625,-0.07652091979980469,0.00476156547665596,0.01801236905157566
1782771783600486100,5.069486083984375,-0.0717325210571289,-0.000046137720346450806,0.00362464040517807
1782771783610436400,5.079436279296875,-0.08849239349365234,0.004742346704006195,0.0012905197218060493
1782771783620566800,5.08956689453125,-0.10285758972167969,-0.004774477332830429,0.01577579230070114
1782771783630485000,5.099485107421875,-0.09328079223632812,0.002408284693956375,0.008593689650297165
1782771783640435200,5.109435302734375,-0.07891654968261719,-0.004725739359855652,0.01580106094479561
1782771783650565600,5.119565673828125,-0.08849239349365234,0.012083437293767929,0.011051343753933907
1782771783660424400,5.129424560546875,-0.09088611602783203,0.00490083172917366,-0.0033138664439320564
1782771783670554600,5.1395546875,-0.10285758972167969,0.00011242926120758057,0.008716183714568615
1782771783680472800,5.149472900390625,-0.08609771728515625,0.007295113056898117,0.011171337217092514
1782771783690482400,5.159482421875,-0.08849239349365234,-0.007070004940032959,0.0063831801526248455
1782771783700492300,5.1694921875,-0.08130931854248047,0.004893116652965546,0.020783310756087303
1782771783710471400,5.179471435546875,-0.09328079223632812,0.004820488393306732,0.016013555228710175
1782771783720481300,5.189481201171875,-0.0980691909790039,0.021619826555252075,0.011250562965869904
1782771783730491100,5.1994912109375,-0.08370399475097656,-0.002338152378797531,0.013728125020861626
1782771783740470300,5.20947021484375,-0.08370304107666016,-0.00707559660077095,0.0017890390008687973
1782771783750480100,5.219480224609375,-0.08609676361083984,-0.0022932253777980804,0.011399809271097183
1782771783760490000,5.229489990234375,-0.08130931854248047,0.009783323854207993,0.020989706739783287
1782771783770499600,5.23949951171875,-0.07652091979980469,-0.0021395422518253326,0.006639313418418169
1782771783780479000,5.24947900390625,-0.09328174591064453,0.01465911790728569,0.03781800717115402
1782771783790488600,5.259488525390625,-0.08849334716796875,0.0003391578793525696,0.006705391686409712
1782771783800498400,5.26949853515625,-0.09328174591064453,0.014676399528980255,0.016215000301599503
1782771783810477600,5.2794775390625,-0.08131027221679688,-0.001986689865589142,0.028166044503450394
1782771783820487400,5.2894873046875,-0.08609867095947266,0.021916240453720093,0.011385954916477203
1782771783830497300,5.299497314453125,-0.09088706970214844,0.019476905465126038,-0.0005872249603271484
1782771783840476400,5.309476318359375,-0.09088706970214844,0.012308873236179352,0.01611112616956234
1782771783850486300,5.319486328125,-0.08609867095947266,0.009858604520559311,0.025721009820699692
1782771783860496100,5.32949609375,-0.08609867095947266,0.012248370796442032,0.02561613731086254
1782771783870475300,5.339475341796875,-0.08370494842529297,0.00979391485452652,0.013609535060822964
1782771783880484900,5.34948486328125,-0.09328079223632812,0.02408343181014061,0.00633813114836812
1782771783890494700,5.35949462890625,-0.08609771728515625,0.000026945024728775024,0.013505471870303154
1782771783900473900,5.369473876953125,-0.08609771728515625,0.012005779892206192,0.01828126609325409
1782771783910483700,5.379483642578125,-0.09327983856201172,-0.00006580352783203125,0.015878289937973022
1782771783920493600,5.38949365234375,-0.0980682373046875,0.011985838413238525,0.008638082072138786
1782771783930472700,5.39947265625,-0.09088706970214844,0.0024367794394493103,0.0038036098703742027
1782771783940482600,5.409482666015625,-0.09328079223632812,0.02160288766026497,0.025466959923505783
1782771783950492400,5.419492431640625,-0.08130931854248047,-0.014218151569366455,0.006260744761675596
1782771783960471600,5.429471435546875,-0.09807014465332031,-0.009443916380405426,0.01579361781477928
1782771783970481400,5.4394814453125,-0.0765218734741211,0.00012233853340148926,0.006181959528476
1782771783980491000,5.449490966796875,-0.08131027221679688,0.0072319768369197845,0.006207949947565794
1782771783990380300,5.45938037109375,-0.0980691909790039,0.019122403115034103,0.015747033059597015
1782771784001393700,5.4703935546875,-0.07652091979980469,-0.007228277623653412,0.02054944820702076
1782771784020499700,5.489499755859375,-0.08609771728515625,0.016730479896068573,0.006149787921458483
1782771784030478800,5.499478759765625,-0.09328174591064453,0.0024582482874393463,0.013286661356687546
1782771784040488700,5.50948876953125,-0.07891559600830078,-0.004801053553819656,0.006127848755568266
1782771784050498600,5.51949853515625,-0.07891559600830078,0.011996831744909286,0.0038193343207240105
1782771784060477700,5.529477783203125,-0.0956735610961914,-0.002446044236421585,0.015871556475758553
1782771784070487600,5.539487548828125,-0.10525131225585938,0.012013513594865799,0.015824485570192337
1782771784080497200,5.5494970703125,-0.09088706970214844,0.026394568383693695,0.010982267558574677
1782771784090476500,5.5594765625,-0.08849334716796875,0.00014932453632354736,0.018180586397647858
1782771784100486100,5.569486083984375,-0.0765218734741211,0.007300581783056259,0.015795335173606873
1782771784110496000,5.57949609375,-0.09328174591064453,0.01451011374592781,0.0038424599915742874
1782771784120415700,5.589415771484375,-0.0741281509399414,0.002577219158411026,-0.003364930860698223
1782771784130546000,5.5995458984375,-0.08130931854248047,0.01212853193283081,-0.0008738553151488304
1782771784140494800,5.609494873046875,-0.09088611602783203,0.0025325119495391846,0.006351502146571875
1782771784150474000,5.619473876953125,-0.08849239349365234,-0.004650086164474487,0.004016682505607605
1782771784160483800,5.62948388671875,-0.08131027221679688,-0.00220402330160141,0.018367212265729904
1782771784170493700,5.63949365234375,-0.09567546844482422,-0.006932470947504044,-0.005514699034392834
1782771784180472800,5.649472900390625,-0.08849334716796875,0.02178294211626053,0.02085988223552704
1782771784190482400,5.659482421875,-0.08131027221679688,0.0002154707908630371,0.03523531183600426
1782771784200492300,5.6694921875,-0.08370494842529297,0.024189841002225876,0.0017391154542565346
1782771784210471400,5.679471435546875,-0.10764598846435547,0.016907144337892532,0.013721652328968048
1782771784220481300,5.689481201171875,-0.07891654968261719,0.004956163465976715,0.025691136717796326
1782771784230491100,5.6994912109375,-0.07652091979980469,0.009700153023004532,0.018497232347726822
1782771784240470300,5.70947021484375,-0.09328079223632812,0.014444921165704727,0.0016834670677781105
1782771784250480000,5.719480224609375,-0.07652091979980469,0.016786042600870132,0.01359417662024498
1782771784260490000,5.729489990234375,-0.07891559600830078,0.009609967470169067,0.015924599021673203
1782771784270499800,5.739499755859375,-0.09088516235351562,0.007170733064413071,0.008748162537813187
1782771784280479000,5.74947900390625,-0.08849143981933594,-0.004778217524290085,0.02310684695839882
1782771784290488600,5.759488525390625,-0.07891559600830078,0.012008756399154663,-0.0008184434846043587
1782771784300498400,5.76949853515625,-0.08130931854248047,0.009647537022829056,-0.0007276404649019241
1782771784310477600,5.7794775390625,-0.10285758972167969,0.016784243285655975,0.01598413474857807
1782771784320487400,5.7894873046875,-0.09088611602783203,-0.004738319665193558,0.013660946860909462
1782771784330497300,5.799497314453125,-0.07651996612548828,0.021546639502048492,0.023171644657850266
1782771784340476400,5.809476318359375,-0.08609676361083984,-0.002374313771724701,0.01831778697669506
1782771784350486300,5.819486328125,-0.09328079223632812,0.0024457424879074097,0.008692125789821148
1782771784360496000,5.82949609375,-0.09328079223632812,0.012051615864038467,0.011038796976208687
1782771784370475300,5.839475341796875,-0.08370399475097656,-0.002275940030813217,0.011057311668992043
1782771784380484900,5.84948486328125,-0.07891559600830078,0.0025545619428157806,0.011141439899802208
1782771784390494700,5.85949462890625,-0.09567546844482422,0.019403159618377686,0.018276110291481018
1782771784400473900,5.869473876953125,-0.1004638671875,0.021872729063034058,0.0038621267303824425
1782771784410483700,5.879483642578125,-0.08370494842529297,-0.006886042654514313,0.011003470048308372
1782771784420493600,5.88949365234375,-0.09328174591064453,0.009840689599514008,0.025374481454491615
1782771784430472700,5.89947265625,-0.09088706970214844,0.005080539733171463,0.018253318965435028
1782771784440482600,5.909482666015625,-0.1028585433959961,0.01455599069595337,0.015791146084666252
1782771784450492400,5.919492431640625,-0.09088706970214844,0.01696326956152916,0.00621386943385005
1782771784460471600,5.929471435546875,-0.08849334716796875,0.009793918579816818,0.013336163945496082
1782771784470481400,5.9394814453125,-0.08131027221679688,0.00975446030497551,0.0037737442180514336
1782771784480491000,5.949490966796875,-0.1028585433959961,0.007381264120340347,0.0036129560321569443
1782771784490470400,5.959470458984375,-0.0765218734741211,-0.006940063089132309,-0.005980496294796467
1782771784500480000,5.96947998046875,-0.08849334716796875,0.007342446595430374,0.02523100934922695
1782771784510489900,5.97948974609375,-0.07173347473144531,-0.007037278264760971,0.01807439513504505
1782771784520499500,5.98949951171875,-0.1004638671875,0.014485914260149002,0.01808677613735199
1782771784530478800,5.999478759765625,-0.08370494842529297,0.014454085379838943,0.018032046034932137
1782771784540488700,6.00948876953125,-0.07891654968261719,0.0024512745440006256,0.006005366798490286
1782771784550498600,6.01949853515625,-0.07891559600830078,0.007207252085208893,0.010798495262861252
1782771784560477700,6.029477783203125,-0.08131027221679688,-0.0023338161408901215,0.010807782411575317
1782771784570487600,6.039487548828125,-0.08609771728515625,0.007222030311822891,-0.0011380445212125778
1782771784580497200,6.0494970703125,-0.08609867095947266,-0.004688728600740433,-0.010654252953827381
1782771784590476500,6.0594765625,-0.09567546844482422,0.007282286882400513,0.013287758454680443
1782771784600486100,6.069486083984375,-0.09567546844482422,0.007391504943370819,0.01566464640200138
1782771784610496000,6.07949609375,-0.09328174591064453,0.021739378571510315,-0.0011100973933935165
1782771784620475100,6.08947509765625,-0.1004638671875,0.002566024661064148,0.013293064199388027
1782771784630485000,6.099485107421875,-0.09328174591064453,0.019353952258825302,0.013262956403195858
1782771784640494800,6.109494873046875,-0.1028585433959961,0.024093523621559143,0.02046048268675804
1782771784650474000,6.119473876953125,-0.09567546844482422,0.0001762285828590393,0.013298293575644493
1782771784660483800,6.12948388671875,-0.10764694213867188,0.007265176624059677,0.013317247852683067
1782771784670493700,6.13949365234375,-0.09567546844482422,0.01201394572854042,0.015782421454787254
1782771784680472800,6.149472900390625,-0.07891654968261719,0.0048522017896175385,0.020513270050287247
1782771784690482400,6.159482421875,-0.08370399475097656,0.009599357843399048,0.00854568276554346
1782771784700492300,6.1694921875,-0.11243438720703125,0.007166240364313126,0.010946456342935562
1782771784710471400,6.179471435546875,-0.08370399475097656,-0.0023717284202575684,-0.000994260422885418
1782771784720481300,6.189481201171875,-0.08370399475097656,0.0023953132331371307,0.0181815717369318
1782771784730491100,6.1994912109375,-0.10525131225585938,-0.0024086497724056244,0.008631205186247826
1782771784740470300,6.20947021484375,-0.09567451477050781,0.004762560129165649,-0.001025613397359848
1782771784750480100,6.219480224609375,-0.08370399475097656,0.004810553044080734,0.008590648882091045
1782771784760490000,6.229489990234375,-0.08849239349365234,0.00008241087198257446,-0.000925564207136631
1782771784770499800,6.239499755859375,-0.07652091979980469,0.002476610243320465,0.013559309765696526
1782771784780479000,6.24947900390625,-0.09088611602783203,0.0049309879541397095,0.006437043193727732
1782771784790488600,6.259488525390625,-0.0980691909790039,0.004918493330478668,0.01844096928834915
1782771784800498400,6.26949853515625,-0.08609867095947266,0.012141667306423187,0.013677963986992836
1782771784810477600,6.2794775390625,-0.08131027221679688,0.0001535750925540924,0.01130741834640503
1782771784820487400,6.2894873046875,-0.0980691909790039,0.00964878499507904,0.025623800233006477
1782771784830497300,6.299497314453125,-0.08609771728515625,0.019255556166172028,-0.007930717431008816
1782771784840476400,6.309476318359375,-0.09567451477050781,-0.002314511686563492,0.01609439216554165
1782771784850486300,6.319486328125,-0.08849239349365234,0.021594230085611343,0.006480145733803511
1782771784860496100,6.32949609375,-0.09327983856201172,-0.0024942196905612946,0.01846890151500702
1782771784870475300,6.339475341796875,-0.0980682373046875,-0.004905257374048233,0.008916342630982399
1782771784880484900,6.34948486328125,-0.09088516235351562,0.004655610769987106,0.008943215012550354
1782771784890494700,6.35949462890625,-0.09327983856201172,0.009481653571128845,0.018594861030578613
1782771784900473900,6.369473876953125,-0.07891464233398438,0.009395584464073181,0.016090240329504013
1782771784910483700,6.379483642578125,-0.10046195983886719,0.011697366833686829,0.020816724747419357
1782771784920493600,6.38949365234375,-0.08609676361083984,0.006939191371202469,0.0016151443123817444
1782771784930472700,6.39947265625,-0.09327983856201172,-0.004992403090000153,0.020719585940241814
1782771784940482600,6.409482666015625,-0.0741262435913086,0.0021769702434539795,-0.005583781749010086
1782771784950492400,6.419492431640625,-0.095672607421875,0.014007247984409332,0.018320515751838684
1782771784960471600,6.429471435546875,-0.07651901245117188,0.011587906628847122,0.011098483577370644
1782771784970481400,6.4394814453125,-0.08849048614501953,-0.014761615544557571,0.02063031867146492
1782771784980491000,6.449490966796875,-0.0932779312133789,0.0019865408539772034,0.008621033281087875
1782771784990470400,6.459470458984375,-0.095672607421875,-0.005201514810323715,0.001532258465886116
1782771785000480000,6.46947998046875,-0.09327888488769531,0.02117219939827919,0.02787286788225174
1782771785010430200,6.47943017578125,-0.07891368865966797,0.016350064426660538,0.02068197913467884
1782771785020560600,6.489560546875,-0.08848953247070312,0.004349358379840851,0.003986154682934284
1782771785030478800,6.499478759765625,-0.07891368865966797,0.009166698902845383,0.011114347726106644
1782771785040429000,6.509428955078125,-0.10046005249023438,-0.010003246366977692,0.015855900943279266
1782771785050500000,6.5195,-0.09088420867919922,0.004402574151754379,0.008682221174240112
1782771785060569300,6.5295693359375,-0.0932779312133789,-0.007636763155460358,0.01110105775296688
1782771785070487600,6.539487548828125,-0.09088420867919922,0.009167123585939407,0.013504626229405403
1782771785080497200,6.5494970703125,-0.10285472869873047,-0.005263153463602066,0.0015678638592362404
1782771785090476500,6.5594765625,-0.10285568237304688,0.011605072766542435,0.01590198464691639
1782771785100486100,6.569486083984375,-0.08609676361083984,-0.014614537358283997,0.015928711742162704
1782771785110496000,6.57949609375,-0.09327983856201172,0.002200290560722351,0.018223322927951813
1782771785120475100,6.58947509765625,-0.06455039978027344,0.002314426004886627,0.01338882464915514
1782771785130425600,6.599425537109375,-0.074127197265625,0.016724925488233566,0.006106039043515921
1782771785140555800,6.6095556640625,-0.08609867095947266,0.01681613177061081,0.02292383648455143
1782771785150474000,6.619473876953125,-0.1004629135131836,0.002368990331888199,0.008570768870413303
1782771785160483800,6.62948388671875,-0.1004629135131836,-0.000045359134674072266,0.01815043017268181
1782771785170493700,6.63949365234375,-0.1004629135131836,0.004720557481050491,0.018203720450401306
1782771785180472800,6.649472900390625,-0.10046195983886719,0.002249162644147873,0.011088024824857712
1782771785190423000,6.659423095703125,-0.07891464233398438,-0.00022064149379730225,0.015875035896897316
1782771785201590000,6.670590087890625,-0.09327983856201172,0.009395148605108261,0.006242700386792421
1782771785220481300,6.689481201171875,-0.08849143981933594,0.004581954330205917,0.013407675549387932
1782771785230491100,6.6994912109375,-0.09088516235351562,0.00701451301574707,0.03003404475748539
1782771785240470300,6.70947021484375,-0.10764503479003906,0.004657328128814697,0.018103480339050293
1782771785250420700,6.719420654296875,-0.08849239349365234,-0.00009165331721305847,0.022864723578095436
1782771785260551000,6.729551025390625,-0.09088611602783203,-0.007226817309856415,0.02276817336678505
1782771785270499800,6.739499755859375,-0.08370494842529297,-0.0023869872093200684,0.02266569994390011
1782771785280479000,6.74947900390625,-0.11004066467285156,0.01668722927570343,0.0011006658896803856
1782771785290488600,6.759488525390625,-0.0980691909790039,-0.007324967533349991,0.012999740429222584
1782771785300498400,6.76949853515625,-0.08609867095947266,0.004755698144435883,0.00582543620839715
1782771785310477600,6.7794775390625,-0.06215667724609375,0.004805702716112137,-0.0013324236497282982
1782771785320487400,6.7894873046875,-0.08131027221679688,0.00240262970328331,0.0034870728850364685
1782771785330497300,6.799497314453125,-0.08609867095947266,0.002452477812767029,0.015363320708274841
1782771785340476400,6.809476318359375,-0.08131027221679688,0.019188717007637024,0.02255425974726677
1782771785350426600,6.819426513671875,-0.09328174591064453,0.007199577987194061,-0.0013599377125501633
1782771785361564400,6.830564453125,-0.09328174591064453,0.007180590182542801,-0.006171347573399544
1782771785380484900,6.84948486328125,-0.08131027221679688,0.00005159527063369751,-0.008445708081126213
1782771785390494700,6.85949462890625,-0.11243534088134766,0.0024458765983581543,0.008194651454687119
1782771785400473900,6.869473876953125,-0.08849334716796875,-0.0024025440216064453,-0.0061102136969566345
1782771785410483700,6.879483642578125,-0.09088706970214844,0.004780221730470657,0.017832297831773758
1782771785420493600,6.88949365234375,-0.09088611602783203,0.014417126774787903,0.020286597311496735
1782771785430472700,6.89947265625,-0.09088706970214844,0.009748462587594986,0.0011332305148243904
1782771785440482600,6.909482666015625,-0.1004638671875,0.00972338393330574,0.025039829313755035
1782771785450432800,6.919432861328125,-0.08609867095947266,0.004908807575702667,0.02750394493341446
1782771785460563200,6.929563232421875,-0.09807014465332031,0.009726941585540771,0.013085936196148396
1782771785470481400,6.9394814453125,-0.1028585433959961,0.00019130855798721313,0.003474770113825798
1782771785480491000,6.949490966796875,-0.1028585433959961,-0.014181278645992279,0.005962751340121031
1782771785490470400,6.959470458984375,-0.11482906341552734,0.021719567477703094,-0.005964089184999466
1782771785500480000,6.96947998046875,-0.09088706970214844,0.021755218505859375,0.020344793796539307
1782771785510489900,6.97948974609375,-0.0765218734741211,0.007421664893627167,0.010795202106237411
1782771785520499700,6.989499755859375,-0.1004638671875,-0.002113349735736847,0.0036492664366960526
1782771785530478800,6.999478759765625,-0.3997373580932617,0.08620178699493408,-0.18042276799678802
1782771785540488700,7.00948876953125,0.46222591400146484,-0.005879338830709457,0.02603432536125183
1782771785550498600,7.01949853515625,-0.10760021209716797,0.013975348323583603,-0.001194048672914505
1782771785560477700,7.029477783203125,-0.06928634643554688,0.0036635324358940125,-0.004776477813720703
1782771785570487600,7.039487548828125,-0.12435436248779297,0.02303457260131836,0.01659230701625347
1782771785580497400,7.049497314453125,-0.1267538070678711,0.011760242283344269,0.020593978464603424
1782771785590476500,7.0594765625,-0.24647140502929688,0.012628279626369476,-0.019145114347338676
1782771785600486100,7.069486083984375,0.2203807830810547,-0.026156054809689522,0.032266534864902496
