time,seconds_elapsed,z,y,x
1782771715735279900,0.21327978515625,-0.042983055114746094,-0.000915873795747757,0.0005360245704650879
1782771715745289500,0.22328955078125,-0.05734825134277344,0.0062666237354278564,-0.016159743070602417
1782771715755299300,0.23329931640625,-0.05974292755126953,-0.01049288734793663,-0.006522806361317635
1782771715765278700,0.24327880859375,-0.05734825134277344,-0.0009161755442619324,-0.03758709505200386
1782771715775288600,0.25328857421875,-0.06693840026855469,0.004172876477241516,-0.018375111743807793
1782771715785298200,0.263298095703125,-0.062150001525878906,-0.000615488737821579,-0.008798573166131973
1782771715795277300,0.27327734375,-0.064544677734375,0.009021110832691193,0.012809637933969498
1782771715805287200,0.283287109375,-0.05975627899169922,-0.005284257233142853,-0.0062838285230100155
1782771715815296800,0.293296875,-0.07891082763671875,-0.012407038360834122,0.003353106789290905
1782771715825276200,0.303276123046875,-0.07651615142822266,-0.00277014821767807,0.008201586082577705
1782771715835286000,0.3132861328125,-0.059757232666015625,0.009200818836688995,-0.010892096906900406
1782771715845295600,0.323295654296875,-0.0669403076171875,-0.0026500411331653595,-0.008377442136406898
1782771715855275000,0.33327490234375,-0.06215190887451172,0.009261175990104675,-0.02268308401107788
1782771715865284900,0.343284912109375,-0.05496978759765625,0.004472769796848297,-0.008198052644729614
1782771715875294500,0.35329443359375,-0.05257415771484375,0.011595506221055984,-0.01304602436721325
1782771715885273600,0.363273681640625,-0.0693349838256836,-0.002709604799747467,0.006167682819068432
1782771715895283500,0.373283447265625,-0.06454658508300781,0.0020788349211215973,-0.0034093870781362057
1782771715905293300,0.383293212890625,-0.0693349838256836,0.006927289068698883,-0.001014921348541975
1782771715915272400,0.3932724609375,-0.06215190887451172,0.009441237896680832,-0.010592254810035229
1782771715925282300,0.4032822265625,-0.06454753875732422,0.0023185350000858307,-0.015320747159421444
1782771715935292200,0.413292236328125,-0.05975914001464844,-0.002469860017299652,-0.022443518042564392
1782771715945271300,0.423271240234375,-0.07171154022216797,0.005629338324069977,-0.01429622620344162
1782771715955281200,0.43328125,-0.08128833770751953,-0.011070434004068375,-0.004719418473541737
1782771715965291000,0.443291015625,-0.05016517639160156,-0.0014334991574287415,0.002463474404066801
1782771715975270100,0.453270263671875,-0.06931877136230469,0.008143305778503418,0.0024036425165832043
1782771715985280000,0.463280029296875,-0.07410717010498047,0.010537568479776382,-0.00950688123703003
1782771715995289600,0.47328955078125,-0.0908660888671875,-0.00143340602517128,0.004858614411205053
1782771716005299500,0.483299560546875,-0.0645303726196289,0.012991894036531448,0.007312909699976444
1782771716015278600,0.493278564453125,-0.06453132629394531,0.008263319730758667,-0.006992466282099485
1782771716025288400,0.503288330078125,-0.08129024505615234,-0.008436176925897598,0.0026442501693964005
1782771716035298000,0.513298095703125,-0.07171344757080078,-0.01555895060300827,-0.004478523042052984
1782771716045277400,0.52327734375,-0.062137603759765625,0.006109118461608887,0.005158950109034777
1782771716055287300,0.533287353515625,-0.07410907745361328,-0.015498347580432892,0.005158950109034777
1782771716065297000,0.543296875,-0.06453227996826172,-0.005921576172113419,-0.002023939974606037
1782771716075276300,0.5532763671875,-0.07410812377929688,0.0012610293924808502,0.00031042471528053284
1782771716085286100,0.5632861328125,-0.07171440124511719,-0.0010732337832450867,-0.009266097098588943
1782771716095295700,0.573295654296875,-0.10044479370117188,0.006109409034252167,0.009947632439434528
1782771716105275000,0.58327490234375,-0.0693206787109375,-0.0010731667280197144,0.007553716190159321
1782771716115284700,0.59328466796875,-0.07410907745361328,0.001380719244480133,-0.004417009185999632
1782771716125294300,0.60329443359375,-0.07171440124511719,-0.008196085691452026,0.0027655959129333496
1782771716135273700,0.613273681640625,-0.07650279998779297,0.003834754228591919,0.007613832596689463
1782771716145283600,0.62328369140625,-0.06213855743408203,0.006288833916187286,0.0028850561939179897
1782771716155293200,0.633293212890625,-0.08129215240478516,0.011137064546346664,-0.009085949510335922
1782771716165272600,0.6432724609375,-0.07650375366210938,0.0016203559935092926,0.007673460990190506
1782771716175282400,0.653282470703125,-0.08608150482177734,-0.007896840572357178,0.0028251297771930695
1782771716185292000,0.6632919921875,-0.07889842987060547,-0.019867803901433945,0.014796420931816101
1782771716195271200,0.673271240234375,-0.08847522735595703,0.00886266678571701,0.007614380680024624
1782771716205281000,0.683281005859375,-0.07889938354492188,-0.003048427402973175,0.002825976349413395
1782771716215290600,0.69329052734375,-0.06692695617675781,0.011256977915763855,0.005280291195958853
1782771716225270000,0.70327001953125,-0.0693216323852539,-0.005502462387084961,0.0028858063742518425
1782771716235280000,0.71327978515625,-0.0717153549194336,-0.012685038149356842,0.005339942406862974
1782771716245289500,0.72328955078125,-0.07889938354492188,0.011317070573568344,-0.008965176530182362
1782771716255299300,0.73329931640625,-0.0741109848022461,0.004134479910135269,-0.004057100974023342
1782771716265278700,0.74327880859375,-0.05495738983154297,-0.005382277071475983,0.005579519551247358
1782771716275288600,0.75328857421875,-0.06692790985107422,0.011436820030212402,0.000791396014392376
1782771716285298200,0.763298095703125,-0.0741119384765625,-0.00041396915912628174,0.005580080207437277
1782771716295277300,0.77327734375,-0.0717172622680664,0.0020400993525981903,0.010428596287965775
1782771716305287200,0.783287109375,-0.06932449340820312,-0.002688337117433548,-0.0014819405041635036
1782771716315296800,0.793296875,-0.0741128921508789,-0.005082499235868454,0.008095145225524902
1782771716325276200,0.803276123046875,-0.08847808837890625,0.007008738815784454,0.0009128199890255928
1782771716335286000,0.8132861328125,-0.07890129089355469,-0.016873599961400032,-0.008663710206747055
1782771716345295600,0.823295654296875,-0.08369064331054688,-0.01435917243361473,0.008156074211001396
1782771716355275000,0.83327490234375,-0.08129596710205078,0.009582843631505966,0.0177927128970623
1782771716365284900,0.843284912109375,-0.07411384582519531,0.004914231598377228,-0.0060896663926541805
1782771716375294500,0.85329443359375,-0.08369064331054688,-0.007056776434183121,0.0010929382406175137
1782771716385273900,0.86327392578125,-0.09566116333007812,-0.004722669720649719,0.005881340708583593
1782771716395283500,0.873283447265625,-0.08847904205322266,0.00012541189789772034,0.005941265728324652
1782771716405293300,0.883293212890625,-0.0789022445678711,-0.007117278873920441,-0.003575448878109455
1782771716415272400,0.8932724609375,-0.09326744079589844,-0.011845886707305908,0.013243520632386208
1782771716425282300,0.9032822265625,-0.07171916961669922,0.012216228991746902,0.0181520227342844
1782771716435292200,0.913292236328125,-0.07172012329101562,-0.01166609302163124,-0.008303584530949593
1782771716445271300,0.923271240234375,-0.0765085220336914,-0.004483412951231003,0.018033185973763466
1782771716455281200,0.93328125,-0.076507568359375,-0.014119807630777359,0.008516578935086727
1782771716465291000,0.943291015625,-0.08608436584472656,0.012216456234455109,-0.005788259673863649
1782771716475270100,0.953270263671875,-0.06453704833984375,-0.0021487250924110413,0.02054823562502861
1782771716485280000,0.963280029296875,-0.07411479949951172,0.007488038390874863,0.008517591282725334
1782771716495289900,0.973289794921875,-0.06932640075683594,0.009942065924406052,-0.017758794128894806
1782771716505299500,0.983299560546875,-0.054961204528808594,-0.0020890720188617706,0.006243039853870869
1782771716515278600,0.993278564453125,-0.09326744079589844,-0.009331472218036652,0.013425920158624649
1782771716525288400,1.003288330078125,-0.08369064331054688,0.0001854225993156433,0.003789203241467476
1782771716535298000,1.013298095703125,-0.08847999572753906,0.00748772919178009,-0.000998924020677805
1782771716545277400,1.02327734375,-0.09087371826171875,0.007487736642360687,-0.005727232899516821
1782771716555287300,1.033287353515625,-0.08369159698486328,-0.018788877874612808,0.008697351440787315
1782771716565297000,1.043296875,-0.0789031982421875,-0.0044836848974227905,0.006303702015429735
1782771716575276300,1.0532763671875,-0.08847999572753906,-0.01160641759634018,0.00642364239320159
1782771716585286100,1.0632861328125,-0.0789022445678711,-0.00202961266040802,0.006483548786491156
1782771716595295700,1.073295654296875,-0.08608531951904297,0.0028186216950416565,-0.002973584458231926
1782771716605275000,1.08327490234375,-0.08848094940185547,-0.009032148867845535,0.013906292617321014
1782771716615284700,1.09328466796875,-0.08608627319335938,-0.008912809193134308,0.018754618242383003
1782771716625294300,1.10329443359375,-0.08369255065917969,-0.004124414175748825,0.009117716923356056
1782771716635273700,1.113273681640625,-0.0812978744506836,0.010240834206342697,0.009117990732192993
1782771716645283600,1.12328369140625,-0.09087467193603516,0.005512341856956482,0.011512191966176033
1782771716655293200,1.133293212890625,-0.0789041519165039,0.0030574575066566467,0.028239894658327103
1782771716665272600,1.1432724609375,-0.06932735443115234,0.010233983397483826,0.0019320794381201267
1782771716675282400,1.153282470703125,-0.08369255065917969,-0.0041312165558338165,0.004385929089039564
1782771716685292000,1.1632919921875,-0.0812978744506836,-0.008859451860189438,0.011629180982708931
1782771716695271200,1.173271240234375,-0.0836935043334961,0.005565587431192398,0.009234979748725891
1782771716705281000,1.183281005859375,-0.09087562561035156,-0.006405331194400787,-0.007404065690934658
1782771716715290600,1.19329052734375,-0.054962158203125,0.0031116828322410583,0.021386461332440376
1782771716725270000,1.20327001953125,-0.08608627319335938,0.012748628854751587,0.002233121544122696
1782771716735279900,1.21327978515625,-0.09087657928466797,0.010473720729351044,-0.002614931669086218
1782771716745289500,1.22328955078125,-0.09087562561035156,-0.006285775452852249,-0.00016118213534355164
1782771716755299300,1.23329931640625,-0.09087657928466797,0.00819910317659378,-0.00973799079656601
1782771716765278700,1.24327880859375,-0.0812997817993164,-0.0037118494510650635,-0.004949857480823994
1782771716775288600,1.25328857421875,-0.07890605926513672,-0.008500173687934875,-0.009737721644341946
1782771716785298200,1.263298095703125,-0.10524177551269531,-0.01568274013698101,0.014204571023583412
1782771716795277300,1.27327734375,-0.0860891342163086,0.00353071466088295,0.00462776143103838
1782771716805287200,1.283287109375,-0.07890605926513672,0.015501759946346283,0.01905323751270771
1782771716815296800,1.293296875,-0.06454086303710938,0.005984745919704437,-0.00004035467281937599
1782771716825276200,1.303276123046875,-0.0860891342163086,-0.0010777264833450317,-0.004888533148914576
1782771716835286000,1.3132861328125,-0.0836954116821289,-0.0034122318029403687,0.01187087781727314
1782771716845295600,1.323295654296875,-0.08848381042480469,-0.003472335636615753,-0.0024946024641394615
1782771716855275000,1.33327490234375,-0.07411861419677734,0.01574118435382843,0.009536538273096085
1782771716865284900,1.343284912109375,-0.07651233673095703,-0.0033524595201015472,0.0048085544258356094
1782771716875294500,1.35329443359375,-0.07651233673095703,0.013406995683908463,0.000020419247448444366
1782771716885273900,1.36327392578125,-0.0860891342163086,-0.022445878013968468,0.007143499329686165
1782771716895283500,1.373283447265625,-0.09566688537597656,-0.008020903915166855,0.012051798403263092
1782771716905293300,1.383293212890625,-0.0884847640991211,-0.007960718125104904,-0.016617989167571068
1782771716915272400,1.3932724609375,-0.07172584533691406,0.008858531713485718,-0.004587148316204548
1782771716925282300,1.4032822265625,-0.07172584533691406,0.008978400379419327,0.014626648277044296
1782771716935292200,1.413292236328125,-0.10045623779296875,0.008978445082902908,0.005050108302384615
1782771716945271300,1.423271240234375,-0.08130264282226562,-0.0005382262170314789,0.009898873046040535
1782771716955281200,1.43328125,-0.08130264282226562,-0.017297592014074326,0.014687541872262955
1782771716965291000,1.443291015625,-0.08130264282226562,-0.005266435444355011,0.01965649612247944
1782771716975270100,1.453270263671875,-0.09327411651611328,0.006764434278011322,0.01735936664044857
1782771716985280000,1.463280029296875,-0.10045623779296875,0.004310373216867447,0.00544853275641799
1782771716995289900,1.473289794921875,-0.07412147521972656,0.004370257258415222,-0.0040681734681129456
1782771717005299500,1.483299560546875,-0.08609199523925781,0.004550587385892868,0.0031747911125421524
1782771717015278600,1.493278564453125,-0.10045719146728516,-0.002572234719991684,0.01035713404417038
1782771717025288400,1.503288330078125,-0.08609294891357422,-0.007300779223442078,0.017659295350313187
1782771717035298000,1.513298095703125,-0.08848857879638672,-0.004786856472492218,-0.0038882559165358543
1782771717045277400,1.52327734375,-0.07891178131103516,0.00724434107542038,0.01526588574051857
1782771717055287300,1.533287353515625,-0.0908823013305664,-0.004607316106557846,-0.0014336174353957176
1782771717065297000,1.543296875,-0.08130645751953125,0.019454888999462128,0.020114196464419365
1782771717075276300,1.5532763671875,-0.08609390258789062,0.014606703072786331,-0.003767726942896843
1782771717085286100,1.5632861328125,-0.08609390258789062,0.00024154409766197205,0.001020937692373991
1782771717095295700,1.573295654296875,-0.0932769775390625,0.00024154409766197205,0.020234383642673492
1782771717105275000,1.58327490234375,-0.0932769775390625,0.012257460504770279,0.010633081197738647
1782771717115284700,1.59328466796875,-0.0932769775390625,0.00752871111035347,-0.0012782784178853035
1782771717125294300,1.60329443359375,-0.07412338256835938,0.00034610554575920105,-0.010855085216462612
1782771717135273700,1.613273681640625,-0.0908823013305664,0.005134504288434982,-0.0011586137115955353
1782771717145283600,1.62328369140625,-0.0693359375,0.019559573382139206,0.003689439967274666
1782771717155293200,1.633293212890625,-0.07891273498535156,0.005194362252950668,0.010872045531868935
1782771717165272600,1.6432724609375,-0.09088325500488281,-0.004382442682981491,0.00847784336656332
1782771717175282400,1.653282470703125,-0.0932779312133789,0.007588565349578857,0.010872045531868935
1782771717185292000,1.6632919921875,-0.07891273498535156,0.007588565349578857,0.00847784336656332
1782771717195271200,1.673271240234375,-0.09806632995605469,0.002740330994129181,0.010872045531868935
1782771717205281000,1.683281005859375,-0.07891273498535156,0.0003461278975009918,0.0012952391989529133
1782771717215290600,1.69329052734375,-0.10764312744140625,-0.00677664577960968,0.006083641666918993
1782771717225270000,1.70327001953125,-0.10524845123291016,0.0148313008248806,0.010932402685284615
1782771717235280000,1.71327978515625,-0.08130645751953125,0.000585407018661499,-0.005707712844014168
1782771717245289500,1.72328955078125,-0.08370113372802734,0.007828094065189362,-0.0008592139929533005
1782771717255299300,1.73329931640625,-0.08609580993652344,0.01034202054142952,-0.0031933244317770004
1782771717265278700,1.74327880859375,-0.10046005249023438,-0.008871685713529587,0.003989281132817268
1782771717275288600,1.75328857421875,-0.08130741119384766,0.010341573506593704,-0.000799122266471386
1782771717285298200,1.763298095703125,-0.08609580993652344,0.0008249133825302124,0.0040496354922652245
1782771717295277300,1.77327734375,-0.0717315673828125,0.0009445808827877045,0.011292072013020515
1782771717305287200,1.783287109375,-0.09327983856201172,-0.0013297908008098602,0.016140388324856758
1782771717315296800,1.793296875,-0.08849143981933594,-0.0012699589133262634,0.016200220212340355
1782771717325276200,1.803276123046875,-0.08849239349365234,-0.00360933318734169,0.02101990580558777
1782771717335286000,1.8132861328125,-0.0956735610961914,0.010686121881008148,0.01631638966500759
1782771717345295600,1.823295654296875,-0.07651996612548828,0.008396632969379425,0.021118368953466415
1782771717355275000,1.83327490234375,-0.074127197265625,0.006103921681642532,0.011552684009075165
1782771717365284900,1.843284912109375,-0.08849334716796875,0.010927747935056686,0.01867809146642685
1782771717375294500,1.85329443359375,-0.07891654968261719,-0.01302683912217617,0.01867382600903511
1782771717385273900,1.86327392578125,-0.08131027221679688,-0.008183397352695465,0.018548503518104553
1782771717395283500,1.873283447265625,-0.08370494842529297,0.01580587774515152,0.008864399045705795
1782771717405293300,1.883293212890625,-0.10764694213867188,-0.008200734853744507,0.004103964194655418
1782771717415272400,1.8932724609375,-0.08370494842529297,-0.012988163158297539,0.001689957920461893
1782771717425282300,1.9032822265625,-0.08849334716796875,0.013284847140312195,0.016032496467232704
1782771717435292200,1.913292236328125,-0.06694507598876953,0.020516138523817062,0.003977860324084759
1782771717445271300,1.923271240234375,-0.08370494842529297,0.013377252966165543,0.013646489009261131
1782771717455281200,1.93328125,-0.07891654968261719,0.01574719324707985,0.013671215623617172
1782771717465291000,1.943291015625,-0.08131027221679688,0.011054813861846924,0.00891168788075447
1782771717475270100,1.953270263671875,-0.08849334716796875,0.0015147998929023743,-0.01020573079586029
1782771717485280000,1.963280029296875,-0.09567546844482422,0.006343275308609009,0.02089303731918335
1782771717495289900,1.973289794921875,-0.08609867095947266,0.0015269480645656586,0.013725773431360722
1782771717505299500,1.983299560546875,-0.08370590209960938,-0.0032012946903705597,-0.007761695422232151
1782771717515278600,1.993278564453125,-0.06694602966308594,0.006495334208011627,-0.007760935463011265
1782771717525288400,2.003288330078125,-0.0789175033569336,-0.0029616542160511017,0.004210074432194233
1782771717535298000,2.013298095703125,-0.08849430084228516,0.004220951348543167,0.006723941769450903
1782771717545277400,2.02327734375,-0.08849525451660156,-0.002781245857477188,0.0044504329562187195
1782771717555287300,2.033287353515625,-0.08610057830810547,0.004401404410600662,0.009298738092184067
1782771717565297000,2.043296875,-0.059764862060546875,0.0020672939717769623,0.00690453452989459
1782771717575276300,2.0532763671875,-0.07413101196289062,0.014098137617111206,0.00690453452989459
1782771717585286100,2.0632861328125,-0.0813131332397461,-0.0073897093534469604,-0.00027782004326581955
1782771717595295700,2.073295654296875,-0.08849620819091797,0.006975553929805756,0.016541674733161926
1782771717605275000,2.08327490234375,-0.09088993072509766,0.002247307449579239,0.011753519997000694
1782771717615284700,2.09328466796875,-0.08849620819091797,0.004701215773820877,0.014147970825433731
1782771717625294300,2.10329443359375,-0.08370780944824219,0.007086265832185745,0.009401838295161724
1782771717635273700,2.113273681640625,-0.0837087631225586,-0.004714440554380417,0.01655658893287182
1782771717645283600,2.12328369140625,-0.09089088439941406,0.009710744023323059,-0.004871155135333538
1782771717655293200,2.133293212890625,-0.09807395935058594,0.007376357913017273,-0.009599725715816021
1782771717665272600,2.1432724609375,-0.083709716796875,-0.0044743940234184265,0.014342539012432098
1782771717675282400,2.153282470703125,-0.08849906921386719,0.010000456124544144,0.01923302561044693
1782771717685292000,2.1632919921875,-0.08131599426269531,-0.001970488578081131,0.004928153939545155
1782771717695271200,2.173271240234375,-0.0837106704711914,0.002877742052078247,0.00013975054025650024
1782771717705281000,2.183281005859375,-0.08131599426269531,0.007606230676174164,-0.007102766074240208
1782771717715290600,2.19329052734375,-0.09089279174804688,-0.0019107386469841003,0.00013967324048280716
1782771717725270000,2.20327001953125,-0.09328746795654297,0.0053320229053497314,0.021687734872102737
1782771717735279900,2.21327978515625,-0.0861043930053711,0.0053917355835437775,0.016839927062392235
1782771717745289500,2.22328955078125,-0.10286426544189453,0.007785871624946594,0.00008026976138353348
1782771717755299300,2.23329931640625,-0.10525798797607422,0.007785756140947342,0.004928017035126686
1782771717765278700,2.24327880859375,-0.06934547424316406,-0.011367859318852425,0.0050482070073485374
1782771717775288600,2.25328857421875,-0.0837106704711914,0.012633871287107468,0.00031969789415597916
1782771717785298200,2.263298095703125,-0.07892227172851562,0.012693967670202255,-0.004408610984683037
1782771717795277300,2.27327734375,-0.07413482666015625,0.00802522525191307,0.017258867621421814
1782771717805287200,2.283287109375,-0.08371257781982422,0.00335664302110672,0.010136174038052559
1782771717815296800,2.293296875,-0.09328842163085938,0.010518655180931091,0.017293261364102364
1782771717825276200,2.303276123046875,-0.0885009765625,0.0033741742372512817,0.007687679957598448
1782771717835286000,2.3132861328125,-0.09089469909667969,-0.0013545602560043335,0.0029589408077299595
1782771717845295600,2.323295654296875,-0.07413578033447266,0.010659739375114441,0.007726920302957296
1782771717855275000,2.33327490234375,-0.09089469909667969,0.017875637859106064,0.0077025736682116985
1782771717865284900,2.343284912109375,-0.08131790161132812,-0.0036122016608715057,-0.006662395782768726
1782771717875294500,2.35329443359375,-0.09089469909667969,-0.0012179985642433167,0.010156848467886448
1782771717885273900,2.36327392578125,-0.09089469909667969,0.010796412825584412,0.014985132031142712
1782771717895283500,2.373283447265625,-0.08131885528564453,-0.001055404543876648,-0.00656244158744812
1782771717905293300,2.383293212890625,-0.0908956527709961,-0.003449607640504837,0.012591172009706497
1782771717915272700,2.393272705078125,-0.0885009765625,0.018088284879922867,0.01742631196975708
1782771717925282300,2.4032822265625,-0.0645589828491211,0.0084296315908432,0.010334666818380356
1782771717935292200,2.413292236328125,-0.07892417907714844,0.01327795535326004,-0.008758842945098877
1782771717945271300,2.423271240234375,-0.08610725402832031,-0.005815532058477402,0.003272468689829111
1782771717955281200,2.43328125,-0.09568405151367188,0.003761209547519684,0.003331910353153944
1782771717965291000,2.443291015625,-0.08131885528564453,0.01100393757224083,0.010574818588793278
1782771717975270100,2.453270263671875,-0.08131885528564453,-0.008149676024913788,0.020211489871144295
1782771717985280000,2.463280029296875,-0.08371353149414062,0.008669715374708176,0.008240720257163048
1782771717995289900,2.473289794921875,-0.09329032897949219,0.011103659868240356,0.013058872893452644
1782771718005299500,2.483299560546875,-0.07413673400878906,0.013604428619146347,0.0010736584663391113
1782771718015278600,2.493278564453125,-0.07892513275146484,0.0015736445784568787,0.0010739006102085114
1782771718025288400,2.503288330078125,-0.06934833526611328,0.011069029569625854,0.008295275270938873
1782771718035298000,2.513298095703125,-0.0908956527709961,-0.00563054159283638,0.013143511489033699
1782771718045277400,2.52327734375,-0.08131885528564453,0.01829177886247635,-0.0011790236458182335
1782771718055287300,2.533287353515625,-0.0885019302368164,0.006426256150007248,0.013231471180915833
1782771718065297000,2.543296875,-0.0885019302368164,-0.005484640598297119,0.008503161370754242
1782771718075276300,2.5532763671875,-0.07653045654296875,0.004092227667570114,0.0037748278118669987
1782771718085286100,2.5632861328125,-0.0908956527709961,0.013708341866731644,0.02295851893723011
1782771718095295700,2.573295654296875,-0.08850288391113281,0.0017812997102737427,-0.0010044705122709274
1782771718105275000,2.58327490234375,-0.08371448516845703,0.018576882779598236,0.006155612878501415
1782771718115284700,2.59328466796875,-0.09568500518798828,-0.002911284565925598,0.0037017599679529667
1782771718125294300,2.60329443359375,-0.08850383758544922,0.006725821644067764,0.006156769581139088
1782771718135273700,2.613273681640625,-0.08371448516845703,0.0018683522939682007,0.0180545374751091
1782771718145283600,2.62328369140625,-0.07413864135742188,-0.0028601400554180145,0.0014149444177746773
1782771718155293200,2.633293212890625,-0.07892704010009766,0.004322528839111328,0.006263417191803455
1782771718165272600,2.6432724609375,-0.07413673400878906,-0.007708501070737839,0.01829475909471512
1782771718175282400,2.653282470703125,-0.0932912826538086,0.013888489454984665,0.008756300434470177
1782771718185292000,2.6632919921875,-0.07413768768310547,0.00669349730014801,0.011126664467155933
1782771718195271200,2.673271240234375,-0.08131885528564453,0.009080193936824799,0.0015987418591976166
1782771718205221400,2.683221435546875,-0.07413768768310547,0.016302719712257385,0.018331734463572502
1782771718215351800,2.693351806640625,-0.0932912826538086,-0.00041461363434791565,0.003941806498914957
1782771718225270000,2.70327001953125,-0.08610820770263672,0.016323640942573547,0.0015274537727236748
1782771718235280000,2.71327978515625,-0.08850288391113281,0.011506106704473495,0.025493074208498
1782771718245230000,2.72322998046875,-0.0932912826538086,0.018704816699028015,0.015927519649267197
1782771718255360500,2.733360595703125,-0.0932912826538086,0.004302818328142166,0.001583433710038662
1782771718265278700,2.74327880859375,-0.093292236328125,0.0020600110292434692,0.0063983844593167305
1782771718275288600,2.75328857421875,-0.08131980895996094,0.011606082320213318,0.0063678789883852005
1782771718285298200,2.763298095703125,-0.08132076263427734,-0.009897561743855476,0.003952446859329939
1782771718295277300,2.77327734375,-0.08610916137695312,0.011746708303689957,0.011166858486831188
1782771718305287200,2.783287109375,-0.08610916137695312,0.0021488331258296967,0.003839090932160616
1782771718315296800,2.793296875,-0.08850383758544922,0.002208668738603592,0.006352965719997883
1782771718325276200,2.803276123046875,-0.06695556640625,0.0022087283432483673,-0.00555771216750145
1782771718335286000,2.8132861328125,-0.08610916137695312,0.01657400280237198,-0.0008287234231829643
1782771718345295600,2.823295654296875,-0.07653236389160156,-0.0025194473564624786,0.02071932516992092
1782771718355275000,2.83327490234375,-0.08850383758544922,0.007103882730007172,0.015972284600138664
1782771718365284900,2.843284912109375,-0.06456184387207031,0.0047096796333789825,0.004061186220496893
1782771718375294500,2.85329443359375,-0.08371543884277344,0.009538829326629639,0.008766859769821167
1782771718385273900,2.86327392578125,-0.0908975601196289,0.011910483241081238,0.008742766454815865
1782771718395283500,2.873283447265625,-0.07892704010009766,0.016665589064359665,0.003986910451203585
1782771718405234000,2.88323388671875,-0.08850383758544922,0.011839941143989563,0.01353086531162262
1782771718415304700,2.8933046875,-0.07653331756591797,-0.0024368464946746826,0.018279725685715675
1782771718425343200,2.90334326171875,-0.07413959503173828,0.002385832369327545,0.01823744922876358
1782771718435292000,2.9132919921875,-0.08850479125976562,-0.0023032203316688538,0.018252702429890633
1782771718445212000,2.9232119140625,-0.08371639251708984,0.00007468461990356445,0.020659824833273888
1782771718455342000,2.933342041015625,-0.07653331756591797,0.004843920469284058,0.013423090800642967
1782771718465291000,2.943291015625,-0.08132171630859375,0.004825320094823837,0.003800394479185343
1782771718475270100,2.953270263671875,-0.08132171630859375,0.011985912919044495,0.013392133638262749
1782771718485280000,2.963280029296875,-0.08611011505126953,0.028762493282556534,0.020575283095240593
1782771718495289900,2.973289794921875,-0.08371639251708984,-0.00005914270877838135,0.006103024818003178
1782771718505299500,2.983299560546875,-0.0932931900024414,0.004702769219875336,-0.010626192204654217
1782771718515278600,2.993278564453125,-0.08132171630859375,0.004675246775150299,0.015732673928141594
1782771718525288400,3.003288330078125,-0.07174491882324219,0.004712752997875214,0.0038526966236531734
1782771718535298000,3.013298095703125,-0.08850479125976562,0.007084917277097702,0.011065823957324028
1782771718545277400,3.02327734375,-0.08371639251708984,0.011905483901500702,0.0014605466276407242
1782771718555287300,3.033287353515625,-0.08371639251708984,0.014274440705776215,-0.005797920748591423
1782771718565297000,3.043296875,-0.07174491882324219,0.02625856176018715,0.010815485380589962
1782771718575276300,3.0532763671875,-0.07653331756591797,-0.0024995356798171997,0.006068354472517967
1782771718585286100,3.0632861328125,-0.07413959503173828,0.011834230273962021,0.0037152827717363834
1782771718595295700,3.073295654296875,-0.07892799377441406,-0.0024324245750904083,0.008427396416664124
1782771718605275000,3.08327490234375,-0.07892799377441406,-0.0024324245750904083,-0.0010893158614635468
1782771718615284700,3.09328466796875,-0.0669565200805664,0.01670762524008751,0.008537949994206429
1782771718625294300,3.10329443359375,-0.09089851379394531,0.009626228362321854,0.008524227887392044
1782771718635273700,3.113273681640625,-0.0932931900024414,0.0024855174124240875,0.02047555148601532
1782771718645283600,3.12328369140625,-0.07174491882324219,0.009639929980039597,0.006141991354525089
1782771718655293200,3.133293212890625,-0.08611106872558594,0.007334105670452118,0.013349657878279686
1782771718665272600,3.1432724609375,-0.10047531127929688,0.014489531517028809,0.003808851819485426
1782771718675282400,3.153282470703125,-0.07892799377441406,-0.0046782828867435455,0.013486439362168312
1782771718685292300,3.163292236328125,-0.08611106872558594,0.01451382040977478,0.0015550265088677406
1782771718695271200,3.173271240234375,-0.0932931900024414,0.024053853005170822,0.02067480981349945
1782771718705221400,3.183221435546875,-0.08371639251708984,0.009576909244060516,0.013441383838653564
1782771718716464400,3.19446435546875,-0.09089851379394531,-0.01666073687374592,0.01585591584444046
1782771718735279900,3.21327978515625,-0.10286998748779297,0.00957910344004631,0.006282231770455837
1782771718745289500,3.22328955078125,-0.08611011505126953,-0.004807021468877792,0.015697719529271126
1782771718755299300,3.23329931640625,-0.08132171630859375,0.004754353314638138,-0.0011468706652522087
1782771718765278700,3.24327880859375,-0.0693511962890625,0.011917348951101303,-0.0011090654879808426
1782771718775288600,3.25328857421875,-0.08850479125976562,0.01913224160671234,0.018075058236718178
1782771718785298200,3.263298095703125,-0.0956869125366211,0.007191792130470276,0.008466985076665878
1782771718795277300,3.27327734375,-0.08371639251708984,0.007106062024831772,0.003653178457170725
1782771718805287200,3.283287109375,-0.07413959503173828,-0.002434518188238144,0.020496107637882233
1782771718815296800,3.293296875,-0.0669565200805664,-0.0000638328492641449,0.018113691359758377
1782771718825276200,3.303276123046875,-0.07174491882324219,0.009437017142772675,0.010902262292802334
1782771718835286000,3.3132861328125,-0.08132171630859375,0.00946781411767006,0.029936058446764946
1782771718845295600,3.323295654296875,-0.08611011505126953,0.019067414104938507,0.013177772983908653
1782771718855275000,3.33327490234375,-0.08371639251708984,0.004667680710554123,0.01078664232045412
1782771718865284900,3.343284912109375,-0.07653331756591797,0.004692111164331436,0.02262943983078003
1782771718875294500,3.35329443359375,-0.07892799377441406,-0.012145504355430603,0.010601304471492767
1782771718885273900,3.36327392578125,-0.08850479125976562,0.021347034722566605,0.005766775459051132
1782771718895283500,3.373283447265625,-0.0908975601196289,0.02841820940375328,0.010613917373120785
1782771718905293300,3.383293212890625,-0.07653331756591797,-0.004998687654733658,-0.01095283031463623
1782771718915272400,3.3932724609375,-0.08611011505126953,0.026156079024076462,-0.010907702147960663
1782771718925282300,3.4032822265625,-0.0932931900024414,0.0021899305284023285,-0.0012819739058613777
1782771718935292000,3.4132919921875,-0.07653331756591797,0.014131415635347366,0.010673795826733112
1782771718945271300,3.423271240234375,-0.10047531127929688,0.00690971314907074,0.020220410078763962
1782771718955281200,3.43328125,-0.08132171630859375,0.011720553040504456,0.008161928504705429
1782771718965291000,3.443291015625,-0.0693502426147461,-0.00033381953835487366,0.0034145633690059185
1782771718975270100,3.453270263671875,-0.07413864135742188,0.018788788467645645,0.003394936677068472
1782771718985280000,3.463280029296875,-0.07653236389160156,0.016406744718551636,0.02017774060368538
1782771718995289900,3.473289794921875,-0.07653236389160156,0.006788063794374466,0.008113078773021698
1782771719005299500,3.483299560546875,-0.09808063507080078,0.004298791289329529,0.008142426609992981
1782771719015278600,3.493278564453125,-0.08371543884277344,0.011506851762533188,0.003327746409922838
1782771719025288400,3.503288330078125,-0.08371543884277344,0.011532668024301529,0.010543626733124256
1782771719035298000,3.513298095703125,-0.07174396514892578,0.00915975496172905,0.010511815547943115
1782771719045277400,3.52327734375,-0.06695556640625,0.011637944728136063,-0.013387111946940422
1782771719055287300,3.533287353515625,-0.07653236389160156,-0.005181219428777695,0.0034914319403469563
1782771719065297000,3.543296875,-0.07413864135742188,-0.005060967057943344,-0.001236642710864544
1782771719075276300,3.5532763671875,-0.07653236389160156,0.0045159682631492615,0.01552323903888464
1782771719085286100,3.5632861328125,-0.0908975601196289,0.004516027867794037,0.006006583571434021
1782771719095295700,3.573295654296875,-0.08610916137695312,-0.00021254271268844604,0.02037179283797741
1782771719105275000,3.58327490234375,-0.08611011505126953,0.009408146142959595,0.013104109093546867
1782771719115284700,3.59328466796875,-0.07653331756591797,0.007057882845401764,0.005899534560739994
1782771719125294300,3.60329443359375,-0.06456279754638672,0.004706520587205887,0.008329415693879128
1782771719135273700,3.613273681640625,-0.07653236389160156,0.0070253051817417145,0.017940659075975418
1782771719145283600,3.62328369140625,-0.08610916137695312,0.009345293045043945,0.0012225573882460594
1782771719155293400,3.63329345703125,-0.07653236389160156,-0.00018490105867385864,0.0060514286160469055
1782771719165272600,3.6432724609375,-0.0693511962890625,-0.00013536587357521057,0.015667513012886047
1782771719175282400,3.653282470703125,-0.08371639251708984,-0.0024697892367839813,0.0037566195242106915
1782771719185292300,3.663292236328125,-0.08850479125976562,0.007227212190628052,0.006150821223855019
1782771719195271400,3.673271484375,-0.07892799377441406,0.02408292144536972,0.006186777725815773
1782771719205281000,3.683281005859375,-0.08371639251708984,0.00969318300485611,0.01567617803812027
1782771719215290600,3.69329052734375,-0.0980825424194336,-0.0022324547171592712,0.01565399020910263
1782771719225270000,3.70327001953125,-0.10047531127929688,0.02407696843147278,0.010896782390773296
1782771719235280000,3.71327978515625,-0.08850574493408203,0.00017711520195007324,-0.010606174357235432
1782771719245289500,3.72328955078125,-0.09089851379394531,0.012116238474845886,0.013366712257266045
1782771719255299300,3.73329931640625,-0.08371734619140625,0.014541301876306534,0.015733707696199417
1782771719265219000,3.743218994140625,-0.08371734619140625,0.009769439697265625,0.008570775389671326
1782771719276118000,3.754117919921875,-0.06695747375488281,0.009737532585859299,-0.0009704744443297386
1782771719295277300,3.77327734375,-0.08850574493408203,0.012206953018903732,-0.008062321692705154
1782771719305287200,3.783287109375,-0.08611106872558594,0.009789388626813889,0.008684143424034119
1782771719315296800,3.793296875,-0.08611011505126953,0.01460285484790802,0.008784281089901924
1782771719325276200,3.803276123046875,-0.0693521499633789,0.002658255398273468,0.015940211713314056
1782771719335286000,3.8132861328125,-0.09089946746826172,0.014652971178293228,0.004004464950412512
1782771719345295600,3.823295654296875,-0.08132266998291016,0.007441043853759766,-0.0031938254833221436
1782771719355275000,3.83327490234375,-0.08611202239990234,0.01231764629483223,-0.005658350884914398
1782771719365284900,3.843284912109375,-0.09090042114257812,0.009888138622045517,-0.0008196160197257996
1782771719375294500,3.85329443359375,-0.06695842742919922,0.005131937563419342,0.01113939844071865
1782771719385273900,3.86327392578125,-0.08371829986572266,0.0003436729311943054,0.00874566100537777
1782771719395283500,3.873283447265625,-0.10766029357910156,0.0028571821749210358,0.00635145790874958
1782771719405293300,3.883293212890625,-0.08132362365722656,0.024377282708883286,-0.0007822019979357719
1782771719415272700,3.893272705078125,-0.07653522491455078,0.00765005499124527,0.003994638565927744
1782771719425282300,3.9032822265625,-0.08850669860839844,0.007687188684940338,-0.007981552742421627
1782771719435292200,3.913292236328125,-0.07653617858886719,-0.006558429449796677,-0.0031933803111314774
1782771719445271300,3.923271240234375,-0.06935405731201172,0.005412716418504715,0.01117229089140892
1782771719455281200,3.93328125,-0.07653522491455078,0.019816022366285324,0.008888119831681252
1782771719465291000,3.943291015625,-0.06456470489501953,0.027070313692092896,0.025618236511945724
1782771719475270100,3.953270263671875,-0.08371925354003906,0.015166256576776505,0.004102194216102362
1782771719485280000,3.963280029296875,-0.08850765228271484,0.00805617868900299,0.004077617544680834
1782771719495289900,3.973289794921875,-0.08132457733154297,-0.0062734223902225494,0.008908191695809364
1782771719505299500,3.983299560546875,-0.0741424560546875,-0.001508031040430069,0.004100628662854433
1782771719515278600,3.993278564453125,-0.09329605102539062,0.0009460747241973877,-0.0005678795278072357
1782771719525288400,4.003288330078125,-0.07893085479736328,0.005734547972679138,0.0017666397616267204
1782771719535298000,4.013298095703125,-0.08850765228271484,0.003400184214115143,0.0017666397616267204
1782771719545277400,4.02327734375,-0.07893085479736328,0.0128936767578125,0.023411259055137634
1782771719555287300,4.033287353515625,-0.08611297607421875,0.024767234921455383,0.0066841719672083855
1782771719565297000,4.043296875,-0.09568977355957031,0.01521303877234459,0.0018141577020287514
1782771719575276300,4.0532763671875,-0.08611297607421875,0.010378792881965637,0.016146220266819
1782771719585286100,4.0632861328125,-0.0980844497680664,0.015173893421888351,0.020948834717273712
1782771719595295700,4.073295654296875,-0.07653617858886719,0.0031651705503463745,-0.0053551048040390015
1782771719605215500,4.083215576171875,-0.08611202239990234,0.015085536986589432,0.02572232112288475
1782771719615346000,4.093345947265625,-0.0956888198852539,-0.004100758582353592,0.0018059657886624336
1782771719625235000,4.10323486328125,-0.07892990112304688,0.010302439332008362,-0.0005462896078824997
1782771719635734500,4.113734619140625,-0.07653617858886719,-0.00875718705356121,0.02102205902338028
1782771719645283600,4.12328369140625,-0.08371925354003906,-0.013491988182067871,0.009023655205965042
1782771719655293200,4.133293212890625,-0.07653617858886719,0.01763276383280754,-0.0028898464515805244
1782771719665272600,4.1432724609375,-0.0741424560546875,0.022389549762010574,0.01628941297531128
1782771719675282400,4.153282470703125,-0.0741424560546875,0.017618782818317413,0.016246140003204346
1782771719685292000,4.1632919921875,-0.08850765228271484,0.02719784900546074,0.001840881071984768
1782771719695271200,4.173271240234375,-0.09568977355957031,0.01761573925614357,0.006588899530470371
1782771719705281000,4.183281005859375,-0.08850765228271484,0.003202289342880249,0.01134174782782793
1782771719715290600,4.19329052734375,-0.0717477798461914,-0.006345909088850021,0.008917249739170074
1782771719725210600,4.203210693359375,-0.07893085479736328,0.003261212259531021,-0.0006856964901089668
1782771719735312000,4.213311767578125,-0.0741424560546875,-0.0014294236898422241,0.00647492241114378
1782771719745350700,4.2233505859375,-0.0741434097290039,0.010584060102701187,0.013637786731123924
1782771719755299300,4.23329931640625,-0.09329605102539062,0.003449678421020508,0.0017146924510598183
1782771719765278700,4.24327880859375,-0.06935501098632812,0.008275385946035385,0.02089923992753029
1782771719775288600,4.25328857421875,-0.08372020721435547,0.013093672692775726,0.01374002918601036
1782771719785298200,4.263298095703125,-0.08611392974853516,0.01551014557480812,0.013757813721895218
1782771719795277300,4.27327734375,-0.0765371322631836,0.02031010016798973,0.01849561184644699
1782771719805287200,4.283287109375,-0.08372020721435547,0.020311716943979263,-0.0006429394707083702
1782771719815296800,4.293296875,-0.09329700469970703,0.015524793416261673,0.004106335807591677
1782771719825276200,4.303276123046875,-0.07414436340332031,-0.003555621951818466,0.006523380987346172
1782771719835286000,4.3132861328125,-0.07893180847167969,0.005978841334581375,0.018511071801185608
1782771719845295600,4.323295654296875,-0.08132648468017578,0.006006266921758652,-0.0007314691320061684
1782771719855275000,4.33327490234375,-0.1004800796508789,-0.0012007057666778564,0.0015807906165719032
1782771719865284900,4.343284912109375,-0.09808635711669922,0.01074812188744545,-0.0032220883294939995
1782771719875294500,4.35329443359375,-0.06696033477783203,0.02261800691485405,0.025534123182296753
1782771719885273900,4.36327392578125,-0.09090328216552734,0.0106685571372509,0.008863098919391632
1782771719895283500,4.373283447265625,-0.11005592346191406,0.024916958063840866,0.011157470755279064
1782771719905293300,4.383293212890625,-0.0741424560546875,0.0033169612288475037,0.023076899349689484
1782771719915272400,4.3932724609375,-0.10287284851074219,0.000878307968378067,0.02062484622001648
1782771719925222700,4.40322265625,-0.08850765228271484,-0.0015419870615005493,-0.0010167695581912994
1782771719935293400,4.41329345703125,-0.0741424560546875,0.01756899431347847,0.018085012212395668
1782771719945362700,4.42336279296875,-0.0717477798461914,-0.006331451237201691,-0.005880326963961124
1782771719955281200,4.43328125,-0.09568977355957031,0.017637677490711212,0.00851234421133995
1782771719965291000,4.443291015625,-0.08611297607421875,0.00558166578412056,0.00848560594022274
1782771719975270100,4.453270263671875,-0.08132457733154297,0.012734178453683853,0.013183359056711197
1782771719985280000,4.463280029296875,-0.08611297607421875,0.003129713237285614,0.01314961165189743
1782771719995289900,4.473289794921875,-0.07653617858886719,0.007949844002723694,0.008387863636016846
1782771720005299500,4.483299560546875,-0.08850765228271484,0.015102457255125046,0.0011786306276917458
1782771720015278600,4.493278564453125,-0.09329605102539062,-0.004012778401374817,0.010789552703499794
1782771720025288400,4.503288330078125,-0.08611297607421875,0.005481798201799393,0.010820871219038963
1782771720035298000,4.513298095703125,-0.08132457733154297,0.019809823483228683,0.017960844561457634
1782771720045277400,4.52327734375,-0.07653617858886719,0.015044130384922028,0.0011682864278554916
1782771720055287300,4.533287353515625,-0.08611297607421875,0.01972496509552002,-0.0011964859440922737
1782771720065297000,4.543296875,-0.09329605102539062,-0.0066334158182144165,0.010755132883787155
1782771720075276300,4.5532763671875,-0.09090137481689453,0.0102156400680542,0.017906665802001953
1782771720085286100,4.5632861328125,-0.08371925354003906,0.012639503926038742,0.003515471238642931
1782771720095295700,4.573295654296875,-0.07653617858886719,-0.006454180926084518,-0.018032114952802658
1782771720105275000,4.58327490234375,-0.09090137481689453,0.0007284246385097504,0.020335175096988678
1782771720115284700,4.59328466796875,-0.1004781723022461,0.024701427668333054,0.010735561139881611
1782771720125294300,4.60329443359375,-0.08371925354003906,0.01753886416554451,0.010766234248876572
1782771720135273700,4.613273681640625,-0.08611392974853516,-0.0039710476994514465,0.017984019592404366
1782771720145283600,4.62328369140625,-0.09090232849121094,0.00803268700838089,0.01555634569376707
1782771720155293200,4.633293212890625,-0.08132553100585938,0.0033401325345039368,0.01073602307587862
1782771720165272600,4.6432724609375,-0.0765380859375,0.005778159946203232,-0.006040412001311779
1782771720175282400,4.653282470703125,-0.09090232849121094,0.022447533905506134,0.001121537759900093
1782771720185292000,4.6632919921875,-0.07174968719482422,0.012949865311384201,0.010670069605112076
1782771720195271400,4.673271484375,-0.09569072723388672,-0.006285760551691055,0.005921325646340847
1782771720205281000,4.683281005859375,-0.08132553100585938,0.00571674108505249,0.01779981143772602
1782771720215291000,4.693290771484375,-0.09090232849121094,0.019986726343631744,0.005798232741653919
1782771720225210600,4.703210693359375,-0.09090137481689453,0.0008067786693572998,0.005773119628429413
1782771720235645700,4.713645751953125,-0.07893085479736328,0.017533838748931885,-0.0014894548803567886
1782771720245289500,4.72328955078125,-0.09568977355957031,0.01750130206346512,0.010586213320493698
1782771720255299300,4.73329931640625,-0.07653617858886719,0.0007279589772224426,0.0010584425181150436
1782771720265219000,4.743218994140625,-0.08611297607421875,0.0031057894229888916,0.003561898600310087
1782771720275628800,4.75362890625,-0.07653617858886719,0.010195869952440262,0.020349562168121338
1782771720285298200,4.763298095703125,-0.09090137481689453,-0.0017940513789653778,0.008419442921876907
1782771720295277300,4.77327734375,-0.062170982360839844,-0.011312935501337051,0.0012372825294733047
1782771720305287200,4.783287109375,-0.09090137481689453,0.012749038636684418,0.010814549401402473
1782771720315296800,4.793296875,-0.09329605102539062,-0.006404571235179901,0.00830068439245224
1782771720325216500,4.803216552734375,-0.0980844497680664,0.007949285209178925,0.020248040556907654
1782771720335347000,4.813346923828125,-0.08132553100585938,-0.003902904689311981,0.0012132469564676285
1782771720345236200,4.823236328125,-0.0717477798461914,-0.006236273795366287,0.013306116685271263
1782771720355907600,4.833907470703125,-0.08132553100585938,0.012976568192243576,-0.0034532956779003143
1782771720375235000,4.853235107421875,-0.08372116088867188,0.005921773612499237,0.008509574458003044
1782771720385365200,4.863365234375,-0.08611488342285156,0.010770019143819809,0.0013267416507005692
1782771720395283500,4.873283447265625,-0.09090328216552734,0.02516842633485794,0.011005676351487637
1782771720405293300,4.883293212890625,-0.08372116088867188,0.01807982847094536,0.010989317670464516
1782771720415272400,4.8932724609375,-0.0765380859375,0.006009548902511597,0.001507696695625782
1782771720425282300,4.9032822265625,-0.09808635711669922,0.022724725306034088,0.006333250552415848
1782771720435292000,4.9132919921875,-0.08850955963134766,0.01787862554192543,0.023112423717975616
1782771720445212000,4.9232119140625,-0.08611488342285156,0.01315280795097351,-0.0008619297295808792
1782771720455342000,4.933342041015625,-0.0765380859375,0.01799529418349266,0.011072489432990551
1782771720465231400,4.9432314453125,-0.09090328216552734,0.0012568831443786621,-0.010552391409873962
1782771720475873000,4.953873046875,-0.0789327621459961,-0.013048965483903885,0.003872495610266924
1782771720495289900,4.973289794921875,-0.08372116088867188,0.010987814515829086,0.008708491921424866
1782771720505299500,4.983299560546875,-0.08611583709716797,0.0110212042927742,0.013536825776100159
1782771720515278600,4.993278564453125,-0.08851051330566406,-0.003284100443124771,0.00168570876121521
1782771720525288400,5.003288330078125,-0.08611488342285156,0.013512223958969116,0.011362914927303791
1782771720535298000,5.013298095703125,-0.10048103332519531,0.015993569046258926,0.01618276908993721
1782771720545277400,5.02327734375,-0.09808731079101562,0.01839948445558548,0.020985765382647514
1782771720555287300,5.033287353515625,-0.06456851959228516,0.023121170699596405,0.025708457455039024
1782771720565297000,5.043296875,-0.09090423583984375,0.006363820284605026,0.0041656759567558765
1782771720575276300,5.0532763671875,-0.0789346694946289,0.0040449947118759155,-0.005446848459541798
1782771720585286100,5.0632861328125,-0.07653999328613281,0.01854337751865387,-0.01504218764603138
1782771720595295700,5.073295654296875,-0.08372306823730469,0.023212116211652756,0.018446452915668488
1782771720605275000,5.08327490234375,-0.09329986572265625,0.011303089559078217,-0.0006717508658766747
1782771720615284700,5.09328466796875,-0.10287666320800781,0.01364300400018692,-0.005475662648677826
1782771720625294300,5.10329443359375,-0.0789346694946289,0.006465137004852295,0.023224037140607834
1782771720635273700,5.113273681640625,-0.09090518951416016,0.01120201125741005,0.008828923106193542
1782771720645283600,5.12328369140625,-0.0789346694946289,0.013659752905368805,0.020818177610635757
1782771720655293400,5.13329345703125,-0.09808826446533203,-0.012642301619052887,0.006367471069097519
1782771720665272600,5.1432724609375,-0.08851146697998047,0.02328464761376381,0.018355704843997955
1782771720675282400,5.153282470703125,-0.07653999328613281,-0.003028072416782379,0.006345835514366627
1782771720685292000,5.1632919921875,-0.0813283920288086,0.001727566123008728,0.018330711871385574
1782771720695271400,5.173271484375,-0.09569358825683594,0.00888006016612053,0.008654484525322914
1782771720705281000,5.183281005859375,-0.09808826446533203,0.008910764008760452,0.008677976205945015
1782771720715290600,5.19329052734375,-0.09090518951416016,0.01366465911269188,0.013425981625914574
1782771720725270000,5.20327001953125,-0.09569358825683594,-0.0007232427597045898,0.0038205557502806187
1782771720735279900,5.21327978515625,-0.10048198699951172,0.008884716778993607,0.02059868536889553
1782771720745289500,5.22328955078125,-0.10287666320800781,0.01848437264561653,0.022942541167140007
1782771720755299300,5.23329931640625,-0.07175159454345703,0.02082676813006401,0.01563948020339012
1782771720765278700,5.24327880859375,-0.08611679077148438,0.008871160447597504,0.006073278374969959
1782771720775288600,5.25328857421875,-0.09808826446533203,0.006365880370140076,0.02282325178384781
1782771720785298200,5.263298095703125,-0.08611679077148438,0.006373319774866104,0.020468484610319138
1782771720795277300,5.27327734375,-0.08611679077148438,-0.008024873211979866,0.017941804602742195
1782771720805287200,5.283287109375,-0.08372306823730469,0.015875432640314102,0.005902407690882683
1782771720815296800,5.293296875,-0.08851146697998047,0.013497177511453629,0.005843529477715492
1782771720825276200,5.303276123046875,-0.08851051330566406,0.006220705807209015,0.001074329949915409
1782771720835286000,5.3132861328125,-0.07175064086914062,0.008586045354604721,0.005830450914800167
1782771720845295600,5.323295654296875,-0.09329891204833984,0.00622810423374176,0.010590847581624985
1782771720855275000,5.33327490234375,-0.09090518951416016,-0.017608195543289185,0.008285799995064735
1782771720865284900,5.343284912109375,-0.08372306823730469,0.018284466117620468,0.003530516754835844
1782771720875294500,5.35329443359375,-0.06696319580078125,0.006352819502353668,0.008292675018310547
1782771720885273900,5.36327392578125,-0.08851146697998047,0.018284745514392853,0.0178234726190567
1782771720895283700,5.37328369140625,-0.0813283920288086,0.013516459614038467,0.008265303447842598
1782771720905293300,5.383293212890625,-0.0813283920288086,0.013530422002077103,0.01545942947268486
1782771720915272400,5.3932724609375,-0.10287666320800781,0.011151093989610672,-0.006122917868196964
1782771720925282300,5.4032822265625,-0.0813283920288086,-0.0007347017526626587,0.008210696280002594
1782771720935292200,5.413292236328125,-0.0789346694946289,0.0040930695831775665,0.0010107681155204773
1782771720945271300,5.423271240234375,-0.0789346694946289,0.013705205172300339,0.003447398077696562
1782771720955281200,5.43328125,-0.09090518951416016,0.020848147571086884,0.0201762355864048
1782771720965291000,5.443291015625,-0.08851146697998047,0.0207807756960392,0.020061280578374863
1782771720975270100,5.453270263671875,-0.09569454193115234,0.0017015449702739716,0.012835266068577766
1782771720985280000,5.463280029296875,-0.07414627075195312,0.013620950281620026,-0.004021023400127888
1782771720995289900,5.473289794921875,-0.08372306823730469,0.02313913032412529,0.0031290953047573566
1782771721005299500,5.483299560546875,-0.07414627075195312,0.027783460915088654,0.017506027594208717
1782771721015278600,5.493278564453125,-0.08611679077148438,0.013461586087942123,0.012729836627840996
1782771721025288400,5.503288330078125,-0.1028757095336914,0.0013019181787967682,0.024697234854102135
1782771721035298000,5.513298095703125,-0.06696224212646484,-0.005919661372900009,-0.0040696607902646065
1782771721045277400,5.52327734375,-0.09569263458251953,0.008413344621658325,0.005538436584174633
1782771721055287300,5.533287353515625,-0.07414531707763672,-0.003577243536710739,-0.0015434520319104195
1782771721065297000,5.543296875,-0.08611583709716797,0.015610869973897934,-0.00389251671731472
1782771721075276300,5.5532763671875,-0.08132743835449219,0.0013653896749019623,0.001015777699649334
1782771721085286100,5.5632861328125,-0.0789327621459961,0.008472185581922531,0.012974834069609642
1782771721095295700,5.573295654296875,-0.08611488342285156,0.013231497257947922,0.010618182830512524
1782771721105275000,5.58327490234375,-0.08372116088867188,0.01325598731637001,0.015376608818769455
1782771721115284700,5.59328466796875,-0.08132648468017578,0.010822076350450516,0.012946754693984985
1782771721125294300,5.60329443359375,-0.1004800796508789,0.0012735649943351746,0.0033403276465833187
1782771721135273700,5.613273681640625,-0.06935596466064453,0.013269487768411636,0.01055153738707304
1782771721145224000,5.623223876953125,-0.09329795837402344,-0.0012419968843460083,0.017700184136629105
1782771721155813600,5.633813720703125,-0.09329891204833984,-0.0011455416679382324,0.010481998324394226
1782771721165364200,5.6433642578125,-0.0765390396118164,-0.005884502083063126,0.005665391683578491
1782771721175282400,5.653282470703125,-0.09090423583984375,0.008537866175174713,0.0009342990815639496
1782771721185292000,5.6632919921875,-0.08132648468017578,0.013246811926364899,0.01299741119146347
1782771721195271200,5.673271240234375,-0.09090423583984375,0.008559301495552063,0.00818561390042305
1782771721205281000,5.683281005859375,-0.08132743835449219,-0.0010361187160015106,0.00815802626311779
1782771721215290600,5.69329052734375,-0.0813283920288086,0.01569605991244316,0.012852825224399567
1782771721225270000,5.70327001953125,-0.09569263458251953,0.018053751438856125,0.012813886627554893
1782771721235280000,5.71327978515625,-0.09329891204833984,0.010893121361732483,0.0008694492280483246
1782771721245289500,5.72328955078125,-0.09090423583984375,-0.0011089853942394257,0.017650222405791283
1782771721255299300,5.73329931640625,-0.09090518951416016,0.008568085730075836,-0.003915666602551937
1782771721265278700,5.74327880859375,-0.08372306823730469,0.027801137417554855,0.019992277026176453
1782771721275288600,5.75328857421875,-0.08851146697998047,0.003810666501522064,0.010428798384964466
1782771721285298200,5.763298095703125,-0.08851146697998047,0.015791498124599457,0.010384766384959221
1782771721295277300,5.77327734375,-0.0789346694946289,0.003835108131170273,0.010400185361504555
1782771721305287200,5.783287109375,-0.09808826446533203,0.0014660283923149109,0.0055158184841275215
1782771721315296800,5.793296875,-0.09808826446533203,0.006230361759662628,0.012671016156673431
1782771721325216500,5.803216552734375,-0.08851146697998047,0.006148159503936768,0.015036620199680328
1782771721335347000,5.813346923828125,-0.09808826446533203,0.015754487365484238,-0.001690358854830265
1782771721345295600,5.823295654296875,-0.09329986572265625,0.013397332280874252,0.003080554772168398
1782771721355275000,5.83327490234375,-0.10287666320800781,0.003913942724466324,0.007848110049962997
1782771721365284900,5.843284912109375,-0.11005878448486328,0.008679021149873734,0.0054955072700977325
1782771721375294500,5.85329443359375,-0.08611679077148438,0.008593466132879257,0.007928542792797089
1782771721385273900,5.86327392578125,-0.08372306823730469,0.008689958602190018,0.005456076003611088
1782771721395283700,5.87328369140625,-0.09090518951416016,0.011053048074245453,0.019910797476768494
1782771721405293300,5.883293212890625,-0.08611679077148438,0.008629262447357178,0.005518692545592785
1782771721415272400,5.8932724609375,-0.10048198699951172,0.006320975720882416,0.008000947535037994
1782771721425282300,5.9032822265625,-0.0813283920288086,0.001568380743265152,0.01270180195569992
1782771721435292200,5.913292236328125,-0.09090614318847656,0.008838474750518799,0.01990196481347084
1782771721445271300,5.923271240234375,-0.08611679077148438,0.01837565377354622,0.005556732416152954
1782771721455281200,5.93328125,-0.0837240219116211,0.004100169986486435,-0.00153341144323349
1782771721465290800,5.943290771484375,-0.07893562316894531,0.013703219592571259,-0.003948894329369068
1782771721475270100,5.953270263671875,-0.1052713394165039,-0.003018725663423538,0.010516378097236156
1782771721485280000,5.963280029296875,-0.10048198699951172,0.011317532509565353,0.013003405183553696
1782771721495289600,5.97328955078125,-0.0789346694946289,0.020857371389865875,0.008246548473834991
1782771721505299500,5.983299560546875,-0.10287666320800781,0.02086520940065384,0.0010341713204979897
1782771721515278600,5.993278564453125,-0.08372306823730469,0.013694431632757187,0.001011548563838005
1782771721525288400,6.003288330078125,-0.0813283920288086,0.01848193258047104,0.017735939472913742
1782771721535298000,6.013298095703125,-0.0789346694946289,0.008853297680616379,0.005854207091033459
1782771721545277400,6.02327734375,-0.09569358825683594,0.003960020840167999,0.015456391498446465
1782771721555287300,6.033287353515625,-0.08851146697998047,0.006253078579902649,0.015417840331792831
1782771721565297000,6.043296875,-0.09329986572265625,0.020559165626764297,0.02487555891275406
1782771721575276300,6.0532763671875,-0.09329891204833984,0.02049167826771736,0.010510824620723724
1782771721585286100,6.0632861328125,-0.08851051330566406,0.0037378184497356415,0.005733182653784752
1782771721595236000,6.073236083984375,-0.10048198699951172,0.00614122673869133,0.01525779440999031
1782771721605366500,6.083366455078125,-0.10048198699951172,0.010938819497823715,0.0008485065773129463
1782771721615284700,6.09328466796875,-0.08851146697998047,0.008624948561191559,-0.003847396932542324
1782771721625294300,6.10329443359375,-0.09808826446533203,0.0038084089756011963,0.01049496978521347
1782771721635273700,6.113273681640625,-0.09090518951416016,0.0253617987036705,0.02002827636897564
1782771721645283600,6.12328369140625,-0.0789346694946289,0.006226055324077606,0.003296440001577139
1782771721655293400,6.13329345703125,-0.08611679077148438,0.010969128459692001,0.015228522941470146
1782771721665272600,6.1432724609375,-0.08611679077148438,0.02300112694501877,0.0008857427164912224
1782771721675222800,6.153222900390625,-0.0789346694946289,0.00135030597448349,0.015274522826075554
1782771721685353200,6.163353271484375,-0.0765390396118164,0.006216034293174744,0.01056729070842266
1782771721695271400,6.173271484375,-0.09090518951416016,0.01347275823354721,0.012919291853904724
1782771721705281000,6.183281005859375,-0.08851146697998047,0.003919191658496857,-0.0014756424352526665
1782771721715290600,6.19329052734375,-0.09090518951416016,0.006341073662042618,0.0008953753858804703
1782771721725270000,6.20327001953125,-0.0765390396118164,0.013416886329650879,0.027304623275995255
1782771721735279900,6.21327978515625,-0.08611679077148438,0.01815156266093254,0.012889564037322998
1782771721745289500,6.22328955078125,-0.08611679077148438,-0.0009822957217693329,0.010450545698404312
1782771721755299300,6.23329931640625,-0.11484718322753906,0.013348352164030075,-0.018300145864486694
1782771721765278700,6.24327880859375,-0.08851146697998047,0.0037402547895908356,0.0032292897813022137
1782771721775288600,6.25328857421875,-0.09808826446533203,-0.0010480321943759918,-0.0014990130439400673
1782771721785298200,6.263298095703125,-0.08851146697998047,0.008528906852006912,-0.013469568453729153
1782771721795277300,6.27327734375,-0.09090423583984375,0.01807670295238495,0.005737374536693096
1782771721805287200,6.283287109375,-0.09090328216552734,0.0060249194502830505,0.015423835255205631
1782771721815296800,6.293296875,-0.09090328216552734,0.010789502412080765,0.005835306830704212
1782771721825276200,6.303276123046875,-0.0789327621459961,0.0012127608060836792,0.008289815858006477
1782771721835286000,6.3132861328125,-0.0789337158203125,0.010884705930948257,0.013059895485639572
1782771721845295600,6.323295654296875,-0.1028757095336914,0.027719970792531967,0.015484615229070187
1782771721855275000,6.33327490234375,-0.09569263458251953,0.025321755558252335,0.008206289261579514
1782771721865284900,6.343284912109375,-0.08611583709716797,0.006172314286231995,0.020134957507252693
1782771721875294500,6.35329443359375,-0.0789337158203125,0.008571002632379532,0.008180726319551468
1782771721885273900,6.36327392578125,-0.08372116088867188,0.008466001600027084,-0.003758843056857586
1782771721895283700,6.37328369140625,-0.09569263458251953,0.010937880724668503,-0.0013861628249287605
1782771721905293300,6.383293212890625,-0.09329891204833984,0.015672843903303146,0.017793189734220505
1782771721915272400,6.3932724609375,-0.08372116088867188,0.0012673325836658478,0.015424397774040699
1782771721925282300,6.4032822265625,-0.1052694320678711,0.013321861624717712,0.008272586390376091
1782771721935292000,6.4132919921875,-0.08851051330566406,0.003831487149000168,0.005850750021636486
1782771721945271300,6.423271240234375,-0.08611679077148438,0.006262253969907761,0.003437639679759741
1782771721955281200,6.43328125,-0.11245250701904297,0.006238136440515518,0.001145247370004654
1782771721965291000,6.443291015625,-0.1052694320678711,-0.0009603351354598999,0.015553529374301434
1782771721975270100,6.453270263671875,-0.08611679077148438,0.015834003686904907,0.006015208549797535
1782771721985280000,6.463280029296875,-0.09090518951416016,0.011137209832668304,0.0180180836468935
1782771721995289900,6.473289794921875,-0.09808826446533203,0.025452129542827606,0.02281804569065571
1782771722005299500,6.483299560546875,-0.1028757095336914,0.01815023645758629,0.005950424820184708
1782771722015278600,6.493278564453125,-0.09808731079101562,0.008573170751333237,0.01786469854414463
1782771722025288400,6.503288330078125,-0.1028757095336914,0.00858338177204132,-0.0036620721220970154
1782771722035298000,6.513298095703125,-0.09090423583984375,0.008598264306783676,0.005880492739379406
1782771722045277400,6.52327734375,-0.1028757095336914,0.013407155871391296,-0.0012059984728693962
1782771722055287300,6.533287353515625,-0.07653999328613281,0.008631762117147446,0.027541249990463257
1782771722065297000,6.543296875,-0.09090423583984375,0.0061949267983436584,0.017917873337864876
1782771722075276300,6.5532763671875,-0.09808826446533203,0.0038833841681480408,0.008358528837561607
1782771722085286100,6.5632861328125,-0.1052703857421875,-0.0008169077336788177,0.0035912473686039448
1782771722095295700,6.573295654296875,-0.10287666320800781,0.008672825992107391,0.01080044824630022
1782771722105275000,6.58327490234375,-0.09569358825683594,0.006376802921295166,-0.005979688838124275
1782771722115299000,6.593299072265625,-0.08372306823730469,-0.012776810675859451,0.005991320125758648
1782771722125308700,6.60330859375,-0.07414627075195312,-0.000745624303817749,0.0036572986282408237
1782771722135288000,6.6132880859375,-0.08851146697998047,0.008817818015813828,0.025178510695695877
1782771722145298000,6.6232978515625,-0.08611679077148438,0.006408173590898514,0.010843519121408463
1782771722155307800,6.633307861328125,-0.08372306823730469,0.02547188475728035,0.010807802900671959
1782771722165287000,6.643286865234375,-0.0813283920288086,0.008741606026887894,0.008318468928337097
1782771722175296800,6.653296875,-0.1076650619506836,0.020664852112531662,0.013179656118154526
1782771722185306600,6.663306640625,-0.09329986572265625,0.015832893550395966,0.005960558541119099
1782771722195285800,6.67328564453125,-0.09090518951416016,-0.0009061433374881744,0.017946209758520126
1782771722205295400,6.68329541015625,-0.08851146697998047,0.00391145795583725,0.013058481737971306
1782771722215305200,6.69330517578125,-0.11963558197021484,0.003946132957935333,0.0035105994902551174
1782771722225284600,6.70328466796875,-0.1076650619506836,0.01587795838713646,0.015376594848930836
1782771722235294200,6.713294189453125,-0.07175064086914062,0.020507164299488068,-0.0038070138543844223
1782771722245303800,6.7233037109375,-0.08372116088867188,0.01321827620267868,0.015308392234146595
1782771722255313700,6.733313720703125,-0.09329891204833984,0.01806613802909851,0.012807244434952736
1782771722265293000,6.74329296875,-0.06935691833496094,0.018059130758047104,0.010423662140965462
1782771722275303000,6.753302978515625,-0.09090423583984375,0.0012999773025512695,0.019941668957471848
1782771722285312500,6.7633125,-0.09808826446533203,0.0037737637758255005,-0.003975284285843372
1782771722295292000,6.7732919921875,-0.0789346694946289,0.010909546166658401,0.005564403720200062
1782771722305301800,6.7833017578125,-0.08611679077148438,-0.010605182498693466,-0.0016431650146842003
1782771722315311400,6.793311279296875,-0.08611679077148438,0.006198156625032425,0.012705113738775253
1782771722325290500,6.80329052734375,-0.10766410827636719,0.006112914532423019,0.005615980364382267
1782771722335300400,6.81330029296875,-0.08611583709716797,0.0036591291427612305,-0.0015663998201489449
1782771722345310000,6.82331005859375,-0.08132743835449219,0.008507747203111649,-0.0014457553625106812
1782771722355289300,6.833289306640625,-0.08611488342285156,0.0012653172016143799,-0.011022564023733139
1782771722365299200,6.84329931640625,-0.09090328216552734,0.006053652614355087,0.003342419397085905
1782771722375308800,6.853308837890625,-0.1004800796508789,0.015664055943489075,0.02492929995059967
1782771722385288200,6.8632880859375,-0.08851051330566406,0.006121885031461716,0.008148301392793655
1782771722395298000,6.873298095703125,-0.09090328216552734,0.008486427366733551,0.024991001933813095
1782771722405307600,6.8833076171875,-0.10048103332519531,0.006126701831817627,0.015379375778138638
1782771722415286800,6.893286865234375,-0.08372211456298828,-0.003406710922718048,0.010562463663518429
1782771722425296600,6.903296630859375,-0.1052694320678711,0.008542969822883606,0.001016346737742424
1782771722435306200,6.91330615234375,-0.1028757095336914,0.0037333741784095764,0.013013659045100212
1782771722445285600,6.92328564453125,-0.09569263458251953,0.01327730342745781,0.03934493288397789
1782771722455295500,6.93329541015625,-0.09090423583984375,0.013361293822526932,-0.0037393318489193916
1782771722465305300,6.943305419921875,-0.08372211456298828,0.006142590194940567,0.017812611535191536
1782771722475284500,6.953284423828125,-0.08611583709716797,-0.0010057389736175537,0.010643264278769493
1782771722485294300,6.96329443359375,-0.08851146697998047,0.003883194178342819,0.008274015039205551
1782771722495304200,6.97330419921875,-0.1028757095336914,0.018220186233520508,0.015415487810969353
1782771722505313800,6.983313720703125,-0.09090423583984375,0.003774791955947876,-0.0013102507218718529
1782771722515293000,6.99329296875,-0.09808635711669922,0.0012357383966445923,0.010681388899683952
1782771722525243100,7.0032431640625,-0.09329795837402344,0.01801813393831253,0.00818461924791336
1782771722535373600,7.01337353515625,-0.09808635711669922,0.008409187197685242,0.005756334401667118
1782771722545291800,7.023291748046875,-0.10526847839355469,0.0035388097167015076,-0.0013255933299660683
1782771722555301600,7.033301513671875,-0.1004800796508789,0.005908116698265076,0.010736852884292603
1782771722565311200,7.043311279296875,-0.0765380859375,0.008224643766880035,-0.001249249093234539
1782771722575290600,7.05329052734375,-0.09808635711669922,0.003412872552871704,0.017876483500003815
1782771722585300500,7.063300537109375,-0.08372116088867188,0.008261241018772125,-0.0036711012944579124
1782771722595310000,7.07331005859375,-0.08372116088867188,0.003532618284225464,0.008299678564071655
1782771722605289200,7.083289306640625,-0.0789327621459961,0.010703559964895248,0.013016026467084885
1782771722615299000,7.093299072265625,-0.08132648468017578,-0.0012913085520267487,0.017827706411480904
1782771722625249300,7.103249267578125,-0.08132648468017578,0.034647781401872635,0.0034362035803496838
1782771722635746600,7.11374658203125,-0.09090328216552734,0.02262973040342331,0.008194005116820335
1782771722655368700,7.13336865234375,-0.08611392974853516,0.010495398193597794,0.0033471942879259586
1782771722665287000,7.143286865234375,-0.1004781723022461,0.0008234046399593353,0.0033275517635047436
1782771722675237000,7.153237060546875,-0.10287284851074219,0.017531894147396088,0.00336191663518548
1782771722685367600,7.163367431640625,-0.0980844497680664,0.003182683140039444,0.008124902844429016
1782771722695285800,7.17328564453125,-0.09329605102539062,0.0007630921900272369,0.01528655644506216
1782771722705295400,7.18329541015625,-0.0980844497680664,0.027175456285476685,0.0056843021884560585
1782771722715305200,7.19330517578125,-0.09329700469970703,-0.006314761936664581,0.017744524404406548
1782771722725284400,7.203284423828125,-0.08850955963134766,0.0009586028754711151,0.015254315920174122
1782771722735294200,7.213294189453125,-0.07893180847167969,0.020067181438207626,0.010539650917053223
1782771722745304000,7.223303955078125,1.2977333068847656,-0.07798289507627487,0.25188058614730835
1782771722755313700,7.233313720703125,-1.1658926010131836,0.03807634487748146,0.019642051309347153
1782771722765293000,7.24329296875,-0.35183048248291016,0.009267110377550125,0.0012388378381729126
1782771722775303000,7.253302978515625,-0.15789508819580078,-0.0056946054100990295,-0.014506516978144646
1782771722785312500,7.2633125,-0.105224609375,0.01130518689751625,-0.019595397636294365
1782771722795292000,7.2732919921875,-0.1124105453491211,0.03575986996293068,0.025250937789678574
1782771722805301800,7.2833017578125,-0.10762500762939453,0.012151099741458893,0.012720445170998573
1782771722815311400,7.293311279296875,-0.13875293731689453,0.007820665836334229,-0.011744428426027298
1782771722825290500,7.30329052734375,-0.2800168991088867,0.01815742626786232,-0.04414347559213638
1782771722835300400,7.31330029296875,0.17247676849365234,-0.013944428414106369,0.0512523427605629
1782771722845310000,7.32331005859375,-0.09329891204833984,0.0034109167754650116,0.0023199780844151974
