time,seconds_elapsed,z,y,x
1782771619803654100,0.211654052734375,-0.040579795837402344,-0.0009336024522781372,0.000621692044660449
1782771619813663700,0.221663818359375,-0.031003952026367188,-0.012714531272649765,-0.009018473327159882
1782771619823673600,0.231673583984375,-0.05734062194824219,0.004224464297294617,0.005286874249577522
1782771619833652700,0.24165283203125,-0.04776477813720703,-0.00996057316660881,-0.023503603413701057
1782771619843662600,0.25166259765625,-0.021430015563964844,0.030860230326652527,0.002892589895054698
1782771619853672400,0.26167236328125,-0.04058361053466797,0.004584096372127533,-0.0017753955908119678
1782771619863651600,0.271651611328125,-0.0334014892578125,0.007097970694303513,0.003071994287893176
1782771619873661400,0.281661376953125,-0.04776573181152344,-0.012055665254592896,0.0079798623919487
1782771619883671300,0.29167138671875,-0.04537200927734375,0.0023095309734344482,-0.008719975128769875
1782771619893650400,0.301650390625,-0.06931495666503906,-0.00960136204957962,-0.0015370768960565329
1782771619903660300,0.311660400390625,-0.06213092803955078,0.007098440080881119,-0.008719098754227161
1782771619913670000,0.321669921875,-0.057342529296875,0.007038351148366928,-0.0015364941209554672
1782771619923649000,0.33164892578125,-0.04537200927734375,0.02134374901652336,-0.00865897350013256
1782771619933659000,0.341658935546875,-0.06691932678222656,-0.007386650890111923,0.015283335000276566
1782771619943668700,0.351668701171875,-0.05255413055419922,-0.007386650890111923,-0.00620464701205492
1782771619953647900,0.36164794921875,-0.04776573181152344,-0.01935761608183384,-0.013326568529009819
1782771619963657700,0.37165771484375,-0.057342529296875,-0.007326938211917877,-0.0012956184800714254
1782771619973667600,0.38166748046875,-0.06691932678222656,-0.019237825646996498,-0.0012953239493072033
1782771619983646700,0.391646728515625,-0.04776573181152344,-0.012055207043886185,0.010675977915525436
1782771619993656600,0.401656494140625,-0.06452560424804688,-0.00247839093208313,-0.003629320999607444
1782771620003666200,0.411666259765625,-0.06692028045654297,-0.000024370849132537842,0.00834168866276741
1782771620013645300,0.421645263671875,-0.057343482971191406,0.007158245891332626,-0.013206128031015396
1782771620023655200,0.4316552734375,-0.09086227416992188,-0.014329910278320312,-0.013146188110113144
1782771620033665000,0.4416650390625,-0.06452655792236328,0.00003531947731971741,0.003673615399748087
1782771620043644200,0.45164404296875,-0.052555084228515625,-0.002299029380083084,-0.005843070801347494
1782771620053654000,0.461654052734375,-0.05494976043701172,-0.004693228751420975,-0.0009348392486572266
1782771620063663900,0.471663818359375,-0.0597381591796875,-0.016664236783981323,0.0015790220350027084
1782771620073673700,0.481673828125,-0.06931495666503906,-0.011875811964273453,-0.0008148872293531895
1782771620083652900,0.49165283203125,-0.040584564208984375,-0.007087349891662598,-0.003148674964904785
1782771620093662500,0.501662353515625,-0.06213188171386719,-0.011875741183757782,-0.0030884682200849056
1782771620103672300,0.51167236328125,-0.07649707794189453,-0.007087297737598419,-0.0006341454572975636
1782771620113651500,0.5216513671875,-0.06931495666503906,0.002549629658460617,-0.007756362669169903
1782771620123661300,0.531661376953125,-0.07649707794189453,0.007397692650556564,0.0018803845159709454
1782771620133671200,0.541671142578125,-0.0597381591796875,-0.009361688047647476,-0.0004534306935966015
1782771620143650300,0.551650390625,-0.06931591033935547,0.0026692040264606476,0.006849418394267559
1782771620153660200,0.56166015625,-0.07170963287353516,-0.006847657263278961,-0.00984979048371315
1782771620163670000,0.571669921875,-0.062132835388183594,-0.011576205492019653,0.011698313057422638
1782771620173649200,0.581649169921875,-0.07889366149902344,0.0027890317142009735,-0.0003925957717001438
1782771620183658800,0.59165869140625,-0.07410526275634766,-0.001999344676733017,0.009184499271214008
1782771620193668600,0.601668701171875,-0.05734539031982422,0.00045494362711906433,-0.007514814846217632
1782771620203647700,0.611647705078125,-0.05016326904296875,-0.013969998806715012,-0.0003313426859676838
1782771620213657600,0.62165771484375,-0.05016326904296875,-0.0020588859915733337,0.006851553451269865
1782771620223667500,0.63166748046875,-0.08128547668457031,-0.006907064467668533,-0.0002706390805542469
1782771620233646600,0.641646484375,-0.06931495666503906,-0.0021787770092487335,-0.00978764146566391
1782771620243656400,0.651656494140625,-0.09086227416992188,-0.009361419826745987,0.002242724411189556
1782771620253666300,0.661666259765625,-0.0860738754272461,-0.02372657135128975,-0.007273400668054819
1782771620263645400,0.6716455078125,-0.07889175415039062,-0.0022385530173778534,-0.004819077905267477
1782771620273655300,0.6816552734375,-0.06452655792236328,0.016974996775388718,-0.01194147951900959
1782771620283665000,0.691664794921875,-0.07889175415039062,-0.021272368729114532,-0.007092953659594059
1782771620293644300,0.701644287109375,-0.07410335540771484,-0.004512954503297806,-0.0046386574395000935
1782771620303654100,0.711654052734375,-0.06452751159667969,-0.004453305155038834,0.002543947659432888
1782771620313663700,0.721663818359375,-0.07410430908203125,0.00039518997073173523,-0.011761166155338287
1782771620323673600,0.731673583984375,-0.06692028045654297,-0.002058807760477066,-0.0020644082687795162
1782771620333652700,0.74165283203125,-0.07170963287353516,-0.0043929219245910645,-0.0020043128170073032
1782771620343662600,0.75166259765625,-0.047768592834472656,0.0005744248628616333,-0.006792714819312096
1782771620353672400,0.76167236328125,-0.08128738403320312,-0.0066682323813438416,0.014755388721823692
1782771620363651600,0.771651611328125,-0.07171058654785156,-0.011456616222858429,0.012481139972805977
1782771620373661400,0.781661376953125,-0.07410430908203125,-0.0043938010931015015,0.010087227448821068
1782771620383671300,0.79167138671875,-0.07410430908203125,-0.011576376855373383,-0.021037105470895767
1782771620393650400,0.801650390625,-0.06692123413085938,-0.006727874279022217,-0.011400202289223671
1782771620403660000,0.811659912109375,-0.0884695053100586,0.0003951229155063629,-0.018463224172592163
1782771620413670000,0.821669921875,-0.08128547668457031,0.0002749003469944,0.010326998308300972
1782771620423649000,0.83164892578125,-0.08128547668457031,0.005063343793153763,0.0055987173691391945
1782771620433659000,0.841658935546875,-0.07410335540771484,0.005063328891992569,-0.008706582710146904
1782771620443668700,0.851668701171875,-0.07170867919921875,-0.011576365679502487,0.00811295211315155
1782771620453648000,0.86164794921875,-0.07889175415039062,-0.009182136505842209,0.008173341862857342
1782771620463657700,0.87165771484375,-0.07410335540771484,-0.009241752326488495,0.003385226707905531
1782771620473667600,0.88166748046875,-0.07889175415039062,-0.011696010828018188,-0.0205564983189106
1782771620483646700,0.891646728515625,-0.09325695037841797,-0.018878577277064323,0.017751019448041916
1782771620493656300,0.90165625,-0.07889175415039062,-0.006907537579536438,0.0010518096387386322
1782771620503666200,0.911666259765625,-0.06931495666503906,-0.009241867810487747,0.010688737034797668
1782771620513645600,0.9216455078125,-0.08846855163574219,-0.02352277562022209,0.005892705637961626
1782771620523655200,0.9316552734375,-0.09086322784423828,-0.0067422762513160706,0.0035513974726200104
1782771620533665000,0.9416650390625,-0.08128547668457031,-0.0020138919353485107,-0.006024826783686876
1782771620543644200,0.95164404296875,-0.07889175415039062,-0.004407990723848343,0.0010988172143697739
1782771620553654000,0.961654052734375,-0.09086322784423828,0.0004402846097946167,-0.01087248232215643
1782771620563664000,0.971663818359375,-0.06692028045654297,-0.009256154298782349,0.008281422778964043
1782771620573673700,0.981673828125,-0.07410335540771484,0.00756339356303215,0.015404223464429379
1782771620583652900,0.99165283203125,-0.0836801528930664,-0.00919598713517189,0.010675940662622452
1782771620593662500,1.001662353515625,-0.05016136169433594,-0.016498412936925888,-0.00362935708835721
1782771620603672300,1.01167236328125,-0.07889175415039062,-0.011710010468959808,0.006007281132042408
1782771620613651500,1.0216513671875,-0.06931495666503906,-0.0021331310272216797,-0.0011747409589588642
1782771620623661300,1.031661376953125,-0.07889175415039062,-0.0021927468478679657,0.0036736042238771915
1782771620633671200,1.041671142578125,-0.07410335540771484,-0.004526820033788681,0.01331079937517643
1782771620643650300,1.051650390625,-0.06692028045654297,-0.01889199949800968,-0.003508151974529028
1782771620653660200,1.06166015625,-0.0836801528930664,-0.01889199949800968,-0.015479160472750664
1782771620663670000,1.071669921875,-0.06692028045654297,-0.006920952349901199,0.0012805415317416191
1782771620673649200,1.081649169921875,-0.06931495666503906,-0.01164926216006279,0.00852324441075325
1782771620683659000,1.091658935546875,-0.09565067291259766,-0.004466693848371506,0.0061287530697882175
1782771620693668600,1.101668701171875,-0.07649707794189453,0.014686919748783112,0.0013403496704995632
1782771620703647700,1.111647705078125,-0.07649707794189453,-0.0045264847576618195,0.010857613757252693
1782771620713657600,1.12165771484375,-0.06931495666503906,-0.006980586796998978,0.006129120476543903
1782771620723667500,1.13166748046875,-0.09086132049560547,-0.01661716401576996,0.013372140005230904
1782771620733646600,1.141646484375,-0.08367919921875,-0.014210090041160583,0.008514614775776863
1782771620743656400,1.151656494140625,-0.09565067291259766,-0.006908155977725983,-0.001002253033220768
1782771620753666300,1.161666259765625,-0.08846855163574219,-0.00211971253156662,0.0013922392390668392
1782771620763645400,1.1716455078125,-0.06452655792236328,-0.006908077746629715,-0.0010016723535954952
1782771620773655300,1.1816552734375,-0.09086227416992188,-0.0093621164560318,-0.008183693513274193
1782771620783665000,1.191664794921875,-0.07889175415039062,-0.0116964690387249,0.008695671334862709
1782771620793644300,1.201644287109375,-0.07649612426757812,0.005002856254577637,0.018332570791244507
1782771620803654100,1.211654052734375,-0.08607292175292969,-0.011816158890724182,0.008756052702665329
1782771620813663700,1.221663818359375,-0.06931400299072266,-0.01186639815568924,0.00880836509168148
1782771620823673600,1.231673583984375,-0.0812845230102539,0.004833150655031204,0.0016254661604762077
1782771620833652700,1.24165283203125,-0.08367919921875,-0.007077768445014954,0.001685554627329111
1782771620843662600,1.25166259765625,-0.06691932678222656,0.007347036153078079,0.02077922783792019
1782771620853672400,1.26167236328125,-0.06452560424804688,-0.0070181600749492645,0.008808217942714691
1782771620863651600,1.271651611328125,-0.07410335540771484,0.0026783421635627747,-0.0055566998198628426
1782771620873661400,1.281661376953125,-0.06692028045654297,-0.004504293203353882,0.0041398052126169205
1782771620883671300,1.29167138671875,-0.09086132049560547,-0.01174657791852951,-0.005436418578028679
1782771620893650400,1.301650390625,-0.08367919921875,-0.009352367371320724,0.013777258805930614
1782771620903660300,1.311660400390625,-0.06213092803955078,-0.00941196084022522,0.008989434689283371
1782771620913670000,1.321669921875,-0.07649612426757812,0.002559032291173935,-0.005315710324794054
1782771620923649000,1.33164892578125,-0.0812845230102539,0.004953294992446899,0.021080661565065384
1782771620933659000,1.341658935546875,-0.07649612426757812,-0.014200292527675629,-0.0076494668610394
1782771620943668700,1.351668701171875,-0.08846759796142578,-0.01653458923101425,-0.00046657072380185127
1782771620953647900,1.36164794921875,-0.08367919921875,0.007407426834106445,0.0018675662577152252
1782771620963657700,1.37165771484375,-0.06691932678222656,0.00022482126951217651,-0.0005266354419291019
1782771620973667600,1.38166748046875,-0.06931495666503906,0.0002849586308002472,0.016233067959547043
1782771620983646700,1.391646728515625,-0.06452655792236328,-0.004443567246198654,0.00905075203627348
1782771620993656600,1.401656494140625,-0.09086227416992188,0.007587306201457977,0.0019277692772448063
1782771621003666200,1.411666259765625,-0.0836801528930664,-0.004383619874715805,0.006716751493513584
1782771621013645300,1.421645263671875,-0.07889175415039062,-0.004323452711105347,0.011565829627215862
1782771621023655200,1.4316552734375,-0.08128547668457031,-0.00911184772849083,0.00923127867281437
1782771621033665000,1.4416650390625,-0.08846855163574219,-0.013840120285749435,0.006897465325891972
1782771621043644200,1.45164404296875,-0.07410335540771484,0.002919211983680725,0.002228143624961376
1782771621053654000,1.461654052734375,-0.07170867919921875,0.002859298139810562,-0.00010614562779664993
1782771621063663900,1.471663818359375,-0.08846855163574219,-0.00426347553730011,-0.012017321772873402
1782771621073673700,1.481673828125,-0.08846855163574219,-0.001869242638349533,0.004742381628602743
1782771621083652900,1.49165283203125,-0.09565067291259766,0.009982116520404816,0.004802210256457329
1782771621093662500,1.501662353515625,-0.0836801528930664,-0.004383102059364319,0.000013809185475111008
1782771621103672300,1.51167236328125,-0.08846759796142578,-0.001988843083381653,0.00007392838597297668
1782771621113651500,1.5216513671875,-0.07649707794189453,-0.0019288025796413422,0.01216484047472477
1782771621123661300,1.531661376953125,-0.09325695037841797,0.0004654526710510254,0.004982521757483482
1782771621133671200,1.541671142578125,-0.08846855163574219,-0.011445466428995132,0.0027085114270448685
1782771621143650300,1.551650390625,-0.07410335540771484,-0.004262860864400864,0.0003741406835615635
1782771621153660200,1.56166015625,-0.0836801528930664,-0.006597157567739487,-0.002020060084760189
1782771621163670000,1.571669921875,-0.08846855163574219,-0.016173917800188065,0.017133843153715134
1782771621173649200,1.581649169921875,-0.07410430908203125,-0.011325418949127197,0.0003744303248822689
1782771621183658800,1.59165869140625,-0.08368110656738281,0.0030995309352874756,0.00043465010821819305
1782771621193668600,1.601668701171875,-0.08128738403320312,-0.008811384439468384,0.0004947474226355553
1782771621203647700,1.611647705078125,-0.08128643035888672,-0.003963202238082886,-0.013751087710261345
1782771621213657600,1.62165771484375,-0.06692123413085938,-0.013539955019950867,0.007797013968229294
1782771621223667500,1.63166748046875,-0.10283470153808594,0.005613707005977631,0.0031883949413895607
1782771621233646600,1.641646484375,-0.07889175415039062,-0.01844850368797779,0.008036896586418152
1782771621243656400,1.651656494140625,-0.07410335540771484,0.0030993111431598663,-0.006328313611447811
1782771621253666300,1.661666259765625,-0.0836801528930664,0.0006450116634368896,0.01049119234085083
1782771621263645400,1.6716455078125,-0.07889175415039062,0.005433417856693268,0.01288539357483387
1782771621273655300,1.6816552734375,-0.08846759796142578,-0.016234274953603745,0.010550815612077713
1782771621283665000,1.691664794921875,-0.09086132049560547,0.01249614730477333,-0.0062085967510938644
1782771621293644300,1.701644287109375,-0.07410240173339844,-0.0018690116703510284,-0.003693913109600544
1782771621303654100,1.711654052734375,-0.07649612426757812,0.026861410588026047,0.010671297088265419
1782771621313663700,1.721663818359375,-0.07170867919921875,-0.008931424468755722,0.0034886905923485756
1782771621323673600,1.731673583984375,-0.0860738754272461,-0.004202805459499359,-0.006087827496230602
1782771621333652700,1.74165283203125,-0.08128547668457031,0.0005855970084667206,0.010731678456068039
1782771621343662600,1.75166259765625,-0.07889080047607422,-0.0018682964146137238,-0.00842222198843956
1782771621353672400,1.76167236328125,-0.057342529296875,-0.004262398928403854,-0.008361545391380787
1782771621363651600,1.771651611328125,-0.08846855163574219,-0.004202466458082199,-0.001118532381951809
1782771621373661400,1.781661376953125,-0.0836801528930664,-0.008990872651338577,0.003729782998561859
1782771621383671300,1.79167138671875,-0.07170867919921875,-0.004202462732791901,0.010972218587994576
1782771621393650400,1.801650390625,-0.08607292175292969,0.007708501070737839,-0.003392701968550682
1782771621403660000,1.811659912109375,-0.08607292175292969,-0.0018683038651943207,0.025397367775440216
1782771621413670000,1.821669921875,-0.08367919921875,-0.0018683597445487976,0.006303558591753244
1782771621423649000,1.83164892578125,-0.09086132049560547,-0.0042026229202747345,0.008817999623715878
1782771621433659000,1.841658935546875,-0.07170867919921875,0.003159649670124054,0.0016950140707194805
1782771621443668700,1.851668701171875,-0.09086227416992188,-0.00396312028169632,0.004089214839041233
1782771621453648000,1.86164794921875,-0.0836801528930664,-0.011145669966936111,-0.005547399632632732
1782771621463657700,1.87165771484375,-0.09325695037841797,0.0008254386484622955,0.013606787659227848
1782771621473667600,1.88166748046875,-0.0860738754272461,-0.0064171962440013885,0.0088186701759696
1782771621483646700,1.891646728515625,-0.08128547668457031,0.0031595975160598755,0.01845530793070793
1782771621493656300,1.90165625,-0.06931591033935547,0.010462082922458649,0.008938701823353767
1782771621503666200,1.911666259765625,-0.0884695053100586,0.008127767592668533,-0.002972189337015152
1782771621513645300,1.921645263671875,-0.0860738754272461,-0.013480141758918762,0.01869581826031208
1782771621523655200,1.9316552734375,-0.08846855163574219,-0.0015090219676494598,-0.0027917781844735146
1782771621533665000,1.9416650390625,-0.09086227416992188,0.0032793767750263214,-0.005125883035361767
1782771621543644200,1.95164404296875,-0.07649707794189453,0.01525038480758667,0.006845125462859869
1782771621553654000,1.961654052734375,-0.08846855163574219,-0.004022996872663498,0.014087931253015995
1782771621563664000,1.971663818359375,-0.10043907165527344,0.005553986877202988,0.0021177842281758785
1782771621573673700,1.981673828125,-0.08367919921875,-0.0016886554658412933,0.00936077255755663
1782771621583652900,1.99165283203125,-0.07889080047607422,0.003039911389350891,0.007026402745395899
1782771621593662500,2.001662353515625,-0.07889080047607422,-0.0016885176301002502,0.007086603436619043
1782771621603672300,2.01167236328125,-0.04537200927734375,0.010162826627492905,-0.004824573174118996
1782771621613651500,2.0216513671875,-0.07889080047607422,0.005374480038881302,0.0024184160865843296
1782771621623661300,2.031661376953125,-0.07649612426757812,-0.01611369103193283,0.0000838628038764
1782771621633671200,2.041671142578125,-0.07889080047607422,-0.011325281113386154,0.01929757371544838
1782771621643650300,2.051650390625,-0.07889080047607422,-0.008931085467338562,-0.0023100720718503
1782771621653660200,2.06166015625,-0.07889080047607422,-0.006536763161420822,-0.0070379870012402534
1782771621663670000,2.071669921875,-0.0812845230102539,-0.013719301670789719,0.014510118402540684
1782771621673649200,2.081649169921875,-0.08607292175292969,-0.006476551294326782,0.004993698559701443
1782771621683659000,2.091658935546875,-0.05494880676269531,-0.01605328544974327,0.0025997809134423733
1782771621693668600,2.101668701171875,-0.07649612426757812,-0.004022132605314255,0.014571080915629864
1782771621703647700,2.111647705078125,-0.07649707794189453,-0.015850532799959183,0.016941776499152184
1782771621713657600,2.12165771484375,-0.08128547668457031,0.0033762753009796143,0.009800348430871964
1782771621723667500,2.13166748046875,-0.0597381591796875,-0.010973501950502396,0.002660579513758421
1782771621733646600,2.141646484375,-0.0836801528930664,0.008180107921361923,0.009903141297399998
1782771621743656400,2.151656494140625,-0.08368110656738281,-0.010840047150850296,0.017059534788131714
1782771621753666300,2.161666259765625,-0.10044002532958984,0.0011998862028121948,0.009915689937770367
1782771621763645400,2.1716455078125,-0.09325885772705078,-0.020264364778995514,0.01705920137465
1782771621773655300,2.1816552734375,-0.07649898529052734,-0.013064544647932053,-0.001994093880057335
1782771621783665000,2.191664794921875,-0.09086418151855469,0.010877463966608047,0.005248343572020531
1782771621793644300,2.201644287109375,-0.07889366149902344,-0.0010284706950187683,0.014873351901769638
1782771621803654100,2.211654052734375,-0.07410526275634766,-0.017772475257515907,0.02202702686190605
1782771621813663700,2.221663818359375,-0.08368206024169922,-0.0033382922410964966,-0.006657199002802372
1782771621823673600,2.231673583984375,-0.08368301391601562,0.0015806779265403748,0.012532474473118782
1782771621833652700,2.24165283203125,-0.07649993896484375,-0.003267817199230194,0.0006816424429416656
1782771621843662600,2.25166259765625,-0.07649993896484375,-0.0032677538692951202,-0.004046827554702759
1782771621853672400,2.26167236328125,-0.07889366149902344,0.006369151175022125,0.01043857354670763
1782771621863651600,2.271651611328125,-0.08128738403320312,-0.0008731596171855927,0.005770398303866386
1782771621873661400,2.281661376953125,-0.09086418151855469,-0.01044996827840805,0.01780131831765175
1782771621883671300,2.29167138671875,-0.0860757827758789,-0.024806590750813484,0.0011511044576764107
1782771621893650400,2.301650390625,-0.07889366149902344,0.003923896700143814,0.005939790979027748
1782771621903660300,2.311660400390625,-0.08368206024169922,-0.00804704800248146,0.0131226796656847
1782771621913670000,2.321669921875,-0.08128738403320312,-0.00559268519282341,0.003546155523508787
1782771621923649000,2.33164892578125,-0.05974102020263672,-0.0030655451118946075,0.02039887011051178
1782771621933659000,2.341658935546875,-0.08368301391601562,-0.005444295704364777,0.01324293203651905
1782771621943668700,2.351668701171875,-0.07649993896484375,0.0065366365015506744,0.01799309067428112
1782771621953647900,2.36164794921875,-0.07171154022216797,0.013720016926527023,0.013221865519881248
1782771621963657700,2.37165771484375,-0.07649993896484375,0.004142314195632935,0.008473414927721024
1782771621973667600,2.38166748046875,-0.0884714126586914,-0.01022275909781456,-0.0106195705011487
1782771621983646700,2.391646728515625,-0.08368301391601562,-0.012676823884248734,0.003865364473313093
1782771621993656600,2.401656494140625,-0.0860757827758789,0.004082582890987396,-0.0032573621720075607
1782771622003666200,2.411666259765625,-0.07410526275634766,0.008930835872888565,0.0015909085050225258
1782771622013645300,2.421645263671875,-0.0860757827758789,-0.0007060207426548004,0.02074451930820942
1782771622023655200,2.4316552734375,-0.0860757827758789,-0.007888484746217728,0.016016356647014618
1782771622033665000,2.4416650390625,-0.07410526275634766,0.006536778062582016,0.006499616429209709
1782771622043644200,2.45164404296875,-0.07889366149902344,-0.01021968200802803,0.016116686165332794
1782771622053654000,2.461654052734375,-0.0621337890625,-0.007945287972688675,0.001811385154724121
1782771622063663900,2.471663818359375,-0.09086322784423828,-0.012845449149608612,0.016278250142931938
1782771622073673700,2.481673828125,-0.09086322784423828,0.0015260837972164154,0.009137166664004326
1782771622083652900,2.49165283203125,-0.07410335540771484,-0.000919196754693985,0.006834459491074085
1782771622093662500,2.501662353515625,-0.09565067291259766,-0.0033733099699020386,-0.00741092674434185
1782771622103672300,2.51167236328125,-0.08128547668457031,0.001474924385547638,0.01168285496532917
1782771622113651500,2.5216513671875,-0.0860748291015625,-0.012830119580030441,-0.0026219813153147697
1782771622123661300,2.531661376953125,-0.06931495666503906,0.01350615918636322,0.009408963844180107
1782771622133671200,2.541671142578125,-0.08128643035888672,0.011172067373991013,-0.00004765298217535019
1782771622143650300,2.551650390625,-0.07889270782470703,-0.003193158656358719,0.00719478540122509
1782771622153660200,2.56166015625,-0.09325790405273438,-0.010315772145986557,0.016831787303090096
1782771622163670000,2.571669921875,-0.088470458984375,0.008897673338651657,0.014497417956590652
1782771622173649200,2.581649169921875,-0.0860748291015625,-0.003133431077003479,0.00007211137562990189
1782771622183658800,2.59165869140625,-0.09086322784423828,-0.010316036641597748,0.01204311940819025
1782771622193668600,2.601668701171875,-0.07889175415039062,-0.0055275559425354,-0.002201622352004051
1782771622203647700,2.611647705078125,-0.09086227416992188,-0.005527634173631668,0.01228297408670187
1782771622213657600,2.62165771484375,-0.0860738754272461,-0.01271015778183937,0.002826262265443802
1782771622223667500,2.63166748046875,-0.07889270782470703,-0.005459185689687729,0.019627589732408524
1782771622233646600,2.641646484375,-0.08128738403320312,-0.02213805913925171,0.017263736575841904
1782771622243656400,2.651656494140625,-0.0836801528930664,-0.007814846932888031,-0.004243955947458744
1782771622253666300,2.661666259765625,-0.09565067291259766,0.004156231880187988,0.005393230821937323
1782771622263645400,2.6716455078125,-0.07649803161621094,-0.005345061421394348,0.0125510822981596
1782771622273655300,2.6816552734375,-0.07649803161621094,-0.007739342749118805,0.005428105127066374
1782771622283665000,2.691664794921875,-0.09086322784423828,-0.012506723403930664,0.007856576703488827
1782771622293644300,2.701644287109375,-0.09565258026123047,0.0043128617107868195,0.007916955277323723
1782771622303654100,2.711654052734375,-0.06931591033935547,0.016224294900894165,-0.00644797645509243
1782771622313663700,2.721663818359375,-0.08128643035888672,-0.010111920535564423,0.022342540323734283
1782771622323673600,2.731673583984375,-0.08368206024169922,0.004313122481107712,0.005642958451062441
1782771622333652700,2.74165283203125,-0.08128738403320312,-0.012326031923294067,0.0033091381192207336
1782771622343662600,2.75166259765625,-0.08368206024169922,0.0020392686128616333,0.008097817189991474
1782771622353672400,2.76167236328125,-0.07171058654785156,0.00455373153090477,0.012946601025760174
1782771622363651600,2.771651611328125,-0.07649898529052734,-0.00017475709319114685,0.003370072692632675
1782771622373661400,2.781661376953125,-0.08368206024169922,0.011796247214078903,-0.0036927079781889915
1782771622383671300,2.79167138671875,-0.07889366149902344,-0.0026286356151103973,0.008338687941432
1782771622393650400,2.801650390625,-0.08368206024169922,-0.019388046115636826,-0.005966427735984325
1782771622403660000,2.811659912109375,-0.11001777648925781,-0.0074766092002391815,0.013306762091815472
1782771622413670000,2.821669921875,-0.088470458984375,-0.005022227764129639,0.010972931981086731
1782771622423649000,2.83164892578125,-0.07889366149902344,-0.012251991778612137,0.020587101578712463
1782771622433659000,2.841658935546875,-0.07410430908203125,-0.0194707028567791,0.013373010791838169
1782771622443668700,2.851668701171875,-0.06931591033935547,-0.00508929044008255,-0.005796722136437893
1782771622453648000,2.86164794921875,-0.07649898529052734,0.004547610878944397,0.008568488992750645
1782771622463657700,2.87165771484375,-0.08368206024169922,-0.0003004409372806549,0.008628139272332191
1782771622473667600,2.88166748046875,-0.05734443664550781,-0.007534049451351166,0.018247663974761963
1782771622483646700,2.891646728515625,-0.07649707794189453,-0.009971756488084793,0.011155443266034126
1782771622493656300,2.90165625,-0.0836801528930664,0.0020591504871845245,0.0016385531052947044
1782771622503666200,2.911666259765625,-0.088470458984375,-0.01467849686741829,0.018300678580999374
1782771622513645300,2.921645263671875,-0.07170867919921875,-0.012328337877988815,0.004034651443362236
1782771622523655200,2.9316552734375,-0.0860738754272461,-0.017101531848311424,-0.003101288340985775
1782771622533665000,2.9416650390625,-0.0860738754272461,-0.00522267073392868,0.00411802064627409
1782771622543644200,2.95164404296875,-0.08128547668457031,-0.005342245101928711,-0.0005504414439201355
1782771622553654000,2.961654052734375,-0.08607292175292969,-0.000613681972026825,0.013815055601298809
1782771622563664000,2.971663818359375,-0.0860738754272461,-0.014837708324193954,0.00906548835337162
1782771622573673700,2.981673828125,-0.06452655792236328,-0.002806529402732849,-0.0004509389400482178
1782771622583652900,2.99165283203125,-0.0836801528930664,0.0019819624722003937,0.009126146323978901
1782771622593662500,3.001662353515625,-0.07170867919921875,-0.005200639367103577,0.011520348489284515
1782771622603672300,3.01167236328125,-0.08846855163574219,-0.009857557713985443,0.01150444895029068
1782771622613651500,3.0216513671875,-0.09325790405273438,-0.004994723945856094,0.011602329090237617
1782771622623661300,3.031661376953125,-0.0860738754272461,-0.012214124202728271,0.028381314128637314
1782771622633671200,3.041671142578125,-0.07649707794189453,0.009287949651479721,0.016426334157586098
1782771622643606800,3.051606689453125,-0.09325790405273438,-0.00021890923380851746,-0.0003639562055468559
1782771622653690600,3.061690673828125,-0.07889270782470703,-0.019350767135620117,0.014019027352333069
1782771622663670000,3.071669921875,-0.07410430908203125,-0.0001755543053150177,0.02593102678656578
1782771622673649200,3.081649169921875,-0.09565162658691406,0.004566125571727753,0.016299482434988022
1782771622683659000,3.091658935546875,-0.09086418151855469,-0.016959143802523613,0.011456001549959183
1782771622693668600,3.101668701171875,-0.07170963287353516,-0.0073623135685920715,-0.002827339805662632
1782771622703647700,3.111647705078125,-0.08368110656738281,-0.0026129744946956635,0.013887115754187107
1782771622715206700,3.12320654296875,-0.07410430908203125,0.002245604991912842,0.006735403556376696
1782771622733646600,3.141646484375,-0.07410430908203125,-0.00017803534865379333,0.0212052371352911
1782771622743656400,3.151656494140625,-0.07649803161621094,-0.002562824636697769,0.021285530179739
1782771622753666300,3.161666259765625,-0.09565162658691406,0.004626892507076263,0.016388053074479103
1782771622763645400,3.1716455078125,-0.10044002532958984,0.0022362060844898224,0.006835062522441149
1782771622773655300,3.1816552734375,-0.07889175415039062,-0.019417867064476013,0.011642556637525558
1782771622783665000,3.191664794921875,-0.06213188171386719,0.006925947964191437,0.01644832268357277
1782771622793644300,3.201644287109375,-0.07889175415039062,-0.014607425779104233,0.011675955727696419
1782771622803654100,3.211654052734375,-0.0884695053100586,0.0021619796752929688,-0.005055120214819908
1782771622813663700,3.221663818359375,-0.05255603790283203,-0.0026186592876911163,0.009344790130853653
1782771622823673600,3.231673583984375,-0.08368110656738281,-0.009801264852285385,-0.0002320166677236557
1782771622833652700,3.24165283203125,-0.08128643035888672,-0.009741012006998062,0.004556948319077492
1782771622843662600,3.25166259765625,-0.08128643035888672,-0.0072871483862400055,0.002222396433353424
1782771622853672400,3.26167236328125,-0.0860738754272461,0.018989045172929764,0.007131274323910475
1782771622863651600,3.271651611328125,-0.07889270782470703,-0.007287252694368362,-0.000051052309572696686
1782771622873661400,3.281661376953125,-0.07889270782470703,-0.007227417081594467,0.024010509252548218
1782771622883671300,3.29167138671875,-0.09086322784423828,-0.009608685970306396,0.016853416338562965
1782771622893650400,3.301650390625,-0.09325885772705078,-0.004747454077005386,0.0049121081829071045
1782771622903660000,3.311659912109375,-0.07171058654785156,0.004953108727931976,0.012134602293372154
1782771622913670000,3.321669921875,-0.07889366149902344,-0.007071215659379959,0.019411342218518257
1782771622923649000,3.33164892578125,-0.07171058654785156,0.004904810339212418,0.01943514496088028
1782771622933659000,3.341658935546875,-0.0860748291015625,-0.01669357158243656,0.0026509668678045273
1782771622943668700,3.351668701171875,-0.062132835388183594,-0.0023215971887111664,0.007480287458747625
1782771622953647900,3.36164794921875,-0.07889270782470703,-0.01907067373394966,-0.006837933324277401
1782771622963657700,3.37165771484375,-0.06931686401367188,-0.014260612428188324,0.03143540769815445
1782771622973667600,3.38166748046875,-0.07889270782470703,-0.0047203414142131805,0.014695991761982441
1782771622983646700,3.391646728515625,-0.09086322784423828,-0.004699777811765671,0.005085107870399952
1782771622993597000,3.401596923828125,-0.07410526275634766,0.007279247045516968,0.0027924589812755585
1782771623003667700,3.411667724609375,-0.08128547668457031,-0.00953957810997963,0.000458400696516037
1782771623013737000,3.421737060546875,-0.07649707794189453,0.011958122253417969,0.02214231714606285
1782771623023655200,3.4316552734375,-0.07649707794189453,-0.00006423145532608032,0.014971015974879265
1782771623033665000,3.4416650390625,-0.0860738754272461,0.014420319348573685,-0.008911097422242165
1782771623043644200,3.45164404296875,-0.08128643035888672,-0.0022804811596870422,0.0293631162494421
1782771623053654000,3.461654052734375,-0.088470458984375,-0.011737529188394547,-0.004095826297998428
1782771623063663900,3.471663818359375,-0.0645284652709961,-0.01172684133052826,0.0150230647996068
1782771623073614000,3.481614013671875,-0.09325885772705078,-0.0044141486287117004,0.03425168618559837
1782771623083744500,3.49174462890625,-0.08368301391601562,0.010072518140077591,0.000759064219892025
1782771623093603000,3.50160302734375,-0.08128833770751953,0.0005576908588409424,0.01748262532055378
1782771623103733500,3.5117333984375,-0.0884714126586914,-0.01379985362291336,0.015107754617929459
1782771623113651500,3.5216513671875,-0.08368301391601562,-0.0040907301008701324,0.02719564363360405
1782771623123661300,3.531661376953125,-0.07649993896484375,0.005550026893615723,0.008044563233852386
1782771623133671200,3.541671142578125,-0.08847236633300781,0.003277219831943512,0.010445556603372097
1782771623143650300,3.551650390625,-0.10044384002685547,-0.0013903267681598663,0.01278318278491497
1782771623153660200,3.56166015625,-0.07889747619628906,0.013204753398895264,0.02713577076792717
1782771623163670000,3.571669921875,-0.066925048828125,0.0084020234644413,0.010487844236195087
1782771623173649200,3.581649169921875,-0.08608055114746094,0.0036566704511642456,0.024768903851509094
1782771623183659000,3.591658935546875,-0.08129215240478516,0.013334259390830994,-0.0063425470143556595
1782771623193668600,3.601668701171875,-0.08368587493896484,0.010915707796812057,0.017665108665823936
1782771623203647700,3.611647705078125,-0.08608055114746094,0.0038304440677165985,0.012944787740707397
1782771623213657600,3.62165771484375,-0.0980520248413086,-0.015213476493954659,0.008167751133441925
1782771623223667500,3.63166748046875,-0.09086894989013672,-0.005582265555858612,0.020145989954471588
1782771623233646600,3.641646484375,-0.0956573486328125,-0.022334212437272072,0.0010134950280189514
1782771623243656400,3.651656494140625,-0.08608055114746094,0.006339918822050095,0.02729698270559311
1782771623253666300,3.661666259765625,-0.06213951110839844,-0.0008383393287658691,0.03438997268676758
1782771623263645400,3.6716455078125,-0.08368778228759766,0.0015575550496578217,-0.00630781427025795
1782771623273655300,3.6816552734375,-0.06453418731689453,-0.0008356384932994843,-0.00878891907632351
1782771623283665000,3.691664794921875,-0.08608150482177734,-0.003229741007089615,0.005636389367282391
1782771623293644300,3.701644287109375,-0.08129215240478516,-0.000775262713432312,0.0009086178615689278
1782771623303654100,3.711654052734375,-0.07889938354492188,-0.012626972049474716,0.005756671540439129
1782771623313663700,3.721663818359375,-0.0980539321899414,-0.0053239911794662476,0.010485517792403698
1782771623323673600,3.731673583984375,-0.06692886352539062,-0.005263965576887131,0.005697648040950298
1782771623333652700,3.74165283203125,-0.09326553344726562,0.0114954374730587,0.005757742561399937
1782771623343662600,3.75166259765625,-0.08608245849609375,-0.002810124307870865,0.020182598382234573
1782771623353672400,3.76167236328125,-0.07650566101074219,0.006826780736446381,-0.0014253128319978714
1782771623363651600,3.771651611328125,-0.08129501342773438,-0.005024384707212448,0.017788665369153023
1782771623373661400,3.781661376953125,-0.08608341217041016,0.011794939637184143,-0.0012451261281967163
1782771623383671300,3.79167138671875,-0.08368968963623047,-0.004904642701148987,0.005937482230365276
1782771623393650400,3.801650390625,-0.09326648712158203,-0.004904545843601227,0.015574649907648563
1782771623403660000,3.811659912109375,-0.06693077087402344,-0.002390854060649872,0.0036041662096977234
1782771623413670000,3.821669921875,-0.09087276458740234,0.007123555988073349,0.022791564464569092
1782771623423649000,3.83164892578125,-0.08129596710205078,-0.002335473895072937,0.020417314022779465
1782771623433659000,3.841658935546875,-0.09087276458740234,0.00011673569679260254,0.00368453748524189
1782771623443668700,3.851668701171875,-0.08369064331054688,-0.01167469471693039,0.003804463893175125
1782771623453648000,3.86164794921875,-0.08369159698486328,0.009930871427059174,0.01340821385383606
1782771623463657700,3.87165771484375,-0.08129692077636719,-0.014007935300469398,0.008600298315286636
1782771623473667600,3.88166748046875,-0.08369159698486328,0.009992524981498718,0.015796327963471413
1782771623483646700,3.891646728515625,-0.07411575317382812,0.0004741661250591278,0.02054838091135025
1782771623493656300,3.90165625,-0.06453895568847656,-0.0019207298755645752,0.006252741441130638
1782771623503666200,3.911666259765625,-0.08608627319335938,0.0005323551595211029,0.018243690952658653
1782771623513645300,3.921645263671875,-0.0812978744506836,0.005436968058347702,0.01341572031378746
1782771623523655200,3.9316552734375,-0.08608722686767578,0.010335776954889297,-0.008101191371679306
1782771623533665000,3.9416650390625,-0.07890605926513672,-0.006249427795410156,0.023100558668375015
1782771623543644200,3.95164404296875,-0.07890605926513672,-0.008584056049585342,0.011093110777437687
1782771623553654000,3.961654052734375,-0.0812997817993164,-0.0036752261221408844,0.008618932217359543
1782771623563664000,3.971663818359375,-0.0836954116821289,-0.0060063935816287994,0.01822252757847309
1782771623573673700,3.981673828125,-0.06933021545410156,0.010810744017362595,0.013400698080658913
1782771623583652900,3.99165283203125,-0.07651233673095703,-0.0011617578566074371,0.010976455174386501
1782771623593662700,4.001662841796875,-0.0836954116821289,0.018162310123443604,0.006219280883669853
1782771623603672300,4.01167236328125,-0.07411861419677734,-0.00817786157131195,0.0062559861689805984
1782771623613651500,4.0216513671875,-0.07411956787109375,-0.0008792765438556671,0.01586030051112175
1782771623623661300,4.031661376953125,-0.07890796661376953,-0.008061882108449936,0.02072470635175705
1782771623633671200,4.041671142578125,-0.08130264282226562,-0.012782799080014229,0.013612806797027588
1782771623643650300,4.051650390625,-0.07651424407958984,-0.010317828506231308,0.013687236234545708
1782771623653660200,4.06166015625,-0.09566783905029297,-0.003064218908548355,0.013698218390345573
1782771623663670000,4.071669921875,-0.09087944030761719,-0.012561550363898277,0.02081720530986786
1782771623673649200,4.081649169921875,-0.07412147521972656,-0.0005173087120056152,0.004073545336723328
1782771623683658800,4.09165869140625,-0.07651519775390625,-0.007626350969076157,0.011274795047938824
1782771623693668600,4.101668701171875,-0.08609199523925781,0.009202074259519577,0.01845867559313774
1782771623703647700,4.111647705078125,-0.06933307647705078,0.004417937248945236,0.01839224435389042
1782771623713657600,4.12165771484375,-0.08369827270507812,-0.002699773758649826,0.001576126553118229
1782771623723667500,4.13166748046875,-0.07890987396240234,-0.007421031594276428,0.01117019448429346
1782771623733646600,4.141646484375,-0.07651615142822266,0.01179170235991478,0.01592210866510868
1782771623743656400,4.151656494140625,-0.07172870635986328,-0.01920607127249241,0.006372543051838875
1782771623753666300,4.161666259765625,-0.06454658508300781,-0.007222127169370651,0.01823524385690689
1782771623763645400,4.1716455078125,-0.07891178131103516,-0.007208392024040222,0.013462293893098831
1782771623773655300,4.1816552734375,-0.08130645751953125,0.009733941406011581,0.003922427073121071
1782771623783665200,4.1916650390625,-0.0932779312133789,0.0002767890691757202,-0.0032601747661828995
1782771623793644300,4.201644287109375,-0.07651805877685547,0.00027883797883987427,0.020715530961751938
1782771623803654100,4.211654052734375,-0.08609485626220703,0.01464395597577095,0.0016213161870837212
1782771623813663700,4.221663818359375,-0.06454753875732422,0.007461342960596085,0.008803922683000565
1782771623823673600,4.231673583984375,-0.08370113372802734,0.007567360997200012,0.01361432671546936
1782771623833652700,4.24165283203125,-0.08370113372802734,-0.013922244310379028,0.015985477715730667
1782771623843662600,4.25166259765625,-0.07651805877685547,-0.004286132752895355,0.025579093024134636
1782771623853672400,4.26167236328125,-0.06933784484863281,-0.0017718598246574402,0.025508802384138107
1782771623863651600,4.271651611328125,-0.07891464233398438,0.0007406137883663177,0.025428706780076027
1782771623873661400,4.281661376953125,-0.07652091979980469,0.005643188953399658,0.0062086377292871475
1782771623883671300,4.29167138671875,-0.08370399475097656,0.008088644593954086,0.0037685781717300415
1782771623893650400,4.301650390625,-0.09088611602783203,0.0009596645832061768,0.0037962011992931366
1782771623903660300,4.311660400390625,-0.0741281509399414,0.005797233432531357,0.025354772806167603
1782771623913670000,4.321669921875,-0.06933975219726562,0.0011189989745616913,0.006215987727046013
1782771623923649000,4.33164892578125,-0.07173347473144531,-0.00600891187787056,0.011081256903707981
1782771623933659000,4.341658935546875,-0.06455135345458984,-0.0011650361120700836,0.022999035194516182
1782771623943668700,4.351668701171875,-0.07173347473144531,0.013245947659015656,0.013360666111111641
1782771623953647900,4.36164794921875,-0.07173347473144531,0.0012614130973815918,0.022986024618148804
1782771623963657700,4.37165771484375,-0.0765228271484375,0.008484452962875366,0.018119867891073227
1782771623973667600,4.38166748046875,-0.09567546844482422,0.010794997215270996,0.00859399139881134
1782771623983646700,4.391646728515625,-0.08370494842529297,0.0035921409726142883,0.0014184145256876945
1782771623993656600,4.401656494140625,-0.08849430084228516,0.006083477288484573,0.018178606405854225
1782771624003666200,4.411666259765625,-0.06934070587158203,-0.0010594353079795837,0.02289634570479393
1782771624013645300,4.421645263671875,-0.0789175033569336,0.0037145428359508514,-0.003540666773915291
1782771624023655200,4.4316552734375,-0.045398712158203125,0.015782762318849564,0.015628011897206306
1782771624033665000,4.4416650390625,-0.07412910461425781,-0.0009369216859340668,0.02281453087925911
1782771624043644200,4.45164404296875,-0.09328365325927734,0.011178940534591675,0.032357316464185715
1782771624053654000,4.461654052734375,-0.10046577453613281,-0.015170969069004059,0.015519020147621632
1782771624063663900,4.471663818359375,-0.09088993072509766,-0.010326733812689781,0.01550260465592146
1782771624073673700,4.481673828125,-0.07413101196289062,-0.0006332024931907654,0.010647384449839592
1782771624083652900,4.49165283203125,-0.08849716186523438,0.011385340243577957,0.027324438095092773
1782771624093662500,4.501662353515625,-0.06694889068603516,0.008974310010671616,0.005824708379805088
1782771624103672300,4.51167236328125,-0.06934356689453125,0.028211932629346848,0.015389576554298401
1782771624113651500,4.5216513671875,-0.07173728942871094,0.011415176093578339,0.005870236083865166
1782771624123661300,4.531661376953125,-0.07173728942871094,0.004200920462608337,0.015447992831468582
1782771624133671200,4.541671142578125,-0.0813131332397461,0.004177320748567581,0.001162729226052761
1782771624143650300,4.551650390625,-0.06455421447753906,0.0017595328390598297,0.015540325082838535
1782771624153660200,4.56166015625,-0.08370780944824219,-0.014891382306814194,0.022730495780706406
1782771624163670000,4.571669921875,-0.08849620819091797,0.006585918366909027,0.008386107161641121
1782771624173649200,4.581649169921875,-0.07173633575439453,0.006507299840450287,0.022743796929717064
1782771624183659000,4.591658935546875,-0.08370780944824219,-0.005413476377725601,0.008329469710588455
1782771624193668600,4.601668701171875,-0.09088993072509766,0.0041550807654857635,0.008293593302369118
1782771624203648000,4.61164794921875,-0.09567832946777344,0.0017529726028442383,0.010772034525871277
1782771624213657600,4.62165771484375,-0.06455421447753906,0.006529003381729126,0.01796613447368145
1782771624223667500,4.63166748046875,-0.07173633575439453,0.004182629287242889,0.015586402267217636
1782771624233646600,4.641646484375,-0.0789194107055664,0.011292710900306702,-0.005988519638776779
1782771624243656400,4.651656494140625,-0.08610153198242188,0.008878957480192184,0.013185849413275719
1782771624253666300,4.661666259765625,-0.0789194107055664,0.004074022173881531,0.015603800304234028
1782771624263645400,4.6716455078125,-0.0813131332397461,-0.00312664732336998,0.01800079643726349
1782771624273655300,4.6816552734375,-0.0813131332397461,0.011216457933187485,0.020455460995435715
1782771624283665200,4.6916650390625,-0.08610153198242188,-0.005560427904129028,0.013264402747154236
1782771624293644300,4.701644287109375,-0.08131217956542969,0.018355511128902435,0.020321935415267944
1782771624303654100,4.711654052734375,-0.08849525451660156,-0.0032633766531944275,-0.010829940438270569
1782771624313663700,4.721663818359375,-0.0789175033569336,-0.010569950565695763,0.008304240182042122
1782771624323673600,4.731673583984375,-0.08131122589111328,0.015817247331142426,0.0012230128049850464
1782771624333593300,4.74159326171875,-0.0789175033569336,0.0037861429154872894,0.008345523849129677
1782771624343723500,4.7517236328125,-0.0765228271484375,-0.008184768259525299,0.0059515610337257385
1782771624354862800,4.76286279296875,-0.08609962463378906,0.0037255436182022095,0.008406460285186768
1782771624373661400,4.781661376953125,-0.09567642211914062,0.01569519191980362,0.015675609931349754
1782771624383671300,4.79167138671875,-0.08609962463378906,0.008492734283208847,0.022812549024820328
1782771624393650400,4.801650390625,-0.06694602966308594,0.01570522040128708,0.010850348509848118
1782771624403660000,4.811659912109375,-0.08131122589111328,0.00609854981303215,0.01809612847864628
1782771624413610200,4.8216103515625,-0.08131122589111328,-0.005894862115383148,0.018033500760793686
1782771624423740700,4.83174072265625,-0.07173442840576172,-0.0059678815305233,0.020364686846733093
1782771624433599500,4.841599609375,-0.05976390838623047,-0.01554570347070694,0.01569887064397335
1782771624443729700,4.851729736328125,-0.09567642211914062,0.003722134977579117,0.018088046461343765
1782771624453648000,4.86164794921875,-0.06934070587158203,-0.0011291839182376862,0.0013398630544543266
1782771624463657700,4.87165771484375,-0.0765218734741211,-0.0035827644169330597,-0.01051281951367855
1782771624473667600,4.88166748046875,-0.0741281509399414,0.01556294783949852,0.027874968945980072
1782771624483646700,4.891646728515625,-0.08849334716796875,0.008367713540792465,0.023154273629188538
1782771624493656300,4.90165625,-0.08609867095947266,-0.01324225589632988,0.004024054855108261
1782771624503666200,4.911666259765625,-0.09567546844482422,0.01314479485154152,0.011167860589921474
1782771624513645300,4.921645263671875,-0.08370494842529297,-0.0036222562193870544,0.032712966203689575
1782771624523655200,4.9316552734375,-0.1004638671875,-0.001232873648405075,0.003996070474386215
1782771624533665000,4.9416650390625,-0.06933975219726562,-0.006022565066814423,0.02787131629884243
1782771624543644200,4.95164404296875,-0.06455135345458984,0.008396126329898834,0.0015423847362399101
1782771624553654000,4.961654052734375,-0.06455135345458984,-0.0011854469776153564,0.00395013764500618
1782771624563664000,4.971663818359375,-0.08609867095947266,0.006057091057300568,-0.0055665988475084305
1782771624573673700,4.981673828125,-0.08849334716796875,0.001268785446882248,-0.0007178578525781631
1782771624583652900,4.99165283203125,-0.08131027221679688,0.015633992850780487,0.004070546478033066
1782771624593662500,5.001662353515625,-0.09328174591064453,-0.0011253245174884796,0.006584811955690384
1782771624603672300,5.01167236328125,-0.08370494842529297,0.0059869736433029175,0.01859135553240776
1782771624613651500,5.0216513671875,-0.07891654968261719,0.013148907572031021,0.021003827452659607
1782771624623661300,5.031661376953125,-0.06455039978027344,-0.003623291850090027,0.00911780633032322
1782771624633671200,5.041671142578125,-0.08849239349365234,-0.0012980662286281586,0.006755184382200241
1782771624643650300,5.051650390625,-0.07891559600830078,-0.006093133240938187,0.02107439562678337
1782771624653660200,5.06166015625,-0.08849143981933594,0.0034181587398052216,0.016310064122080803
1782771624663670000,5.071669921875,-0.06933879852294922,-0.008613664656877518,0.009084152057766914
1782771624673649200,5.081649169921875,-0.0741262435913086,-0.003824107348918915,0.004379453137516975
1782771624683658800,5.09165869140625,-0.09327983856201172,0.005690865218639374,0.01876421831548214
1782771624693668600,5.101668701171875,-0.0956735610961914,0.0008395835757255554,0.023673376068472862
1782771624703648000,5.11164794921875,-0.08370304107666016,0.0008359737694263458,0.0237199068069458
1782771624713598200,5.12159814453125,-0.0717306137084961,-0.0039523690938949585,0.009422048926353455
1782771624723728400,5.131728271484375,-0.07412528991699219,0.008071742951869965,0.023775722831487656
1782771624733587200,5.141587158203125,-0.08130836486816406,0.012906122952699661,0.01646163873374462
1782771624743688400,5.1516884765625,-0.08130836486816406,-0.0038620121777057648,0.00455244816839695
1782771624754784500,5.162784423828125,-0.08130836486816406,0.005702175199985504,0.014067437499761581
1782771624773655300,5.1816552734375,-0.07891464233398438,-0.0014503076672554016,0.006888680160045624
1782771624783665200,5.1916650390625,-0.06933784484863281,0.010510630905628204,0.011684603057801723
1782771624793644300,5.201644287109375,-0.08370304107666016,0.015279117971658707,0.016532916575670242
1782771624803654100,5.211654052734375,-0.0717315673828125,-0.00867348164319992,0.01886751689016819
1782771624813663700,5.221663818359375,-0.07651996612548828,-0.01818789355456829,0.011628285981714725
1782771624823673600,5.231673583984375,-0.08609676361083984,-0.003879047930240631,0.002071238122880459
1782771624833652700,5.24165283203125,-0.08609676361083984,-0.006266750395298004,0.006880646571516991
1782771624843662600,5.25166259765625,-0.08609676361083984,0.005706503987312317,0.02119571715593338
1782771624853672400,5.26167236328125,-0.0717315673828125,0.00803796574473381,0.009181471541523933
1782771624863651600,5.271651611328125,-0.0741262435913086,0.003186281770467758,0.006813624873757362
1782771624873661400,5.281661376953125,-0.08370208740234375,-0.00405743345618248,0.021191835403442383
1782771624883671300,5.29167138671875,-0.08130836486816406,0.0031818076968193054,0.011690746061503887
1782771624893650400,5.301650390625,-0.08130741119384766,0.007903557270765305,0.01410212367773056
1782771624903660300,5.311660400390625,-0.08130741119384766,0.0006558150053024292,0.009334061294794083
1782771624913670000,5.321669921875,-0.08849048614501953,-0.0016818009316921234,0.011695251800119877
1782771624923649000,5.33164892578125,-0.07891368865966797,0.015066716820001602,0.006931629031896591
1782771624933659000,5.341658935546875,-0.08370208740234375,-0.00415349006652832,0.0044481512159109116
1782771624943668700,5.351668701171875,-0.07651901245117188,-0.0017037354409694672,0.01651211641728878
1782771624953647900,5.36164794921875,-0.08848953247070312,0.010258305817842484,0.009478220716118813
1782771624963657700,5.37165771484375,-0.08130645751953125,0.007851585745811462,0.009503556415438652
1782771624973667600,5.38166748046875,-0.0932779312133789,0.010167315602302551,0.021488070487976074
1782771624983646700,5.391646728515625,-0.07891273498535156,0.005362864583730698,0.00481228344142437
1782771624993656300,5.40165625,-0.07891273498535156,0.005403261631727219,0.01679728738963604
1782771625003666200,5.411666259765625,-0.09567070007324219,0.014894410967826843,0.012021991424262524
1782771625013645300,5.421645263671875,-0.07172870635986328,0.005294028669595718,0.012098087929189205
1782771625023655200,5.4316552734375,-0.08370018005371094,0.002879723906517029,0.0144503153860569
1782771625033605400,5.44160546875,-0.0669403076171875,0.010032963007688522,0.024024009704589844
1782771625043735800,5.45173583984375,-0.08609390258789062,0.002821788191795349,0.01683184690773487
1782771625053654000,5.461654052734375,-0.0908823013305664,-0.004377309232950211,0.0024197669699788094
1782771625063663900,5.471663818359375,-0.0908823013305664,-0.002057284116744995,0.007216155529022217
1782771625073673700,5.481673828125,-0.07412338256835938,0.007504604756832123,-0.004787895828485489
1782771625083652900,5.49165283203125,-0.08848857879638672,0.009943228214979172,0.021634455770254135
1782771625093662500,5.501662353515625,-0.07651710510253906,0.005074135959148407,0.016856933012604713
1782771625103672300,5.51167236328125,-0.08130550384521484,-0.006786257028579712,0.009702503681182861
1782771625113651500,5.5216513671875,-0.07172870635986328,0.007569346576929092,0.004889162257313728
1782771625123661300,5.531661376953125,-0.07412338256835938,0.010004714131355286,0.019211266189813614
1782771625133671200,5.541671142578125,-0.08130550384521484,0.009983774274587631,0.011986675672233105
1782771625143650300,5.551650390625,-0.08848953247070312,-0.009122222661972046,0.00955403782427311
1782771625153660200,5.56166015625,-0.08130550384521484,0.0004476495087146759,0.002469145692884922
1782771625163670000,5.571669921875,-0.08130550384521484,-0.009013880044221878,0.019251815974712372
1782771625173649200,5.581649169921875,-0.07651710510253906,0.0029513761401176453,0.0168148223310709
1782771625183689500,5.591689453125,-0.0932769775390625,0.007610753178596497,0.014435024932026863
1782771625193668600,5.601668701171875,-0.08609390258789062,0.007600337266921997,0.004883714020252228
1782771625203648000,5.61164794921875,-0.06454658508300781,0.002861257642507553,0.014484506100416183
1782771625213657600,5.62165771484375,-0.0693349838256836,0.00045805051922798157,0.0025416994467377663
1782771625223667500,5.63166748046875,-0.08130550384521484,-0.011512959375977516,0.004935901612043381
1782771625233646600,5.641646484375,-0.0908823013305664,-0.004330221563577652,0.01939142495393753
1782771625243656400,5.651656494140625,-0.0908823013305664,-0.006780829280614853,0.01696057803928852
1782771625253666300,5.661666259765625,-0.08130550384521484,0.005130480974912643,0.005076484754681587
1782771625263645400,5.6716455078125,-0.07651615142822266,-0.00677800178527832,0.007503978908061981
1782771625273655300,5.6816552734375,-0.0932769775390625,-0.009105179458856583,0.014770284295082092
1782771625283665200,5.6916650390625,-0.0932769775390625,0.0004794374108314514,0.024347640573978424
1782771625293644300,5.701644287109375,-0.0932769775390625,-0.01626718044281006,-0.0020223893225193024
1782771625303654100,5.711654052734375,-0.08609390258789062,-0.004283834248781204,0.00518890842795372
1782771625313663700,5.721663818359375,-0.08370018005371094,0.005232993513345718,-0.001933358609676361
1782771625323673600,5.731673583984375,-0.07651615142822266,-0.011526314541697502,0.010217385366559029
1782771625333652700,5.74165283203125,-0.07412242889404297,-0.006737813353538513,0.005429232493042946
1782771625343662600,5.75166259765625,-0.08848762512207031,0.014750253409147263,0.017399990931153297
1782771625353672400,5.76167236328125,-0.08848762512207031,0.01714058592915535,0.02222231775522232
1782771625363651600,5.771651611328125,-0.0932760238647461,-0.009136192500591278,0.022298771888017654
1782771625373661400,5.781661376953125,-0.07412242889404297,0.021974392235279083,0.01984953135251999
1782771625383671300,5.79167138671875,-0.08130455017089844,0.0004135705530643463,0.02457262948155403
1782771625393650400,5.801650390625,-0.07172775268554688,0.005187049508094788,0.017381880432367325
1782771625403660300,5.811660400390625,-0.08130455017089844,0.010014906525611877,0.017430314794182777
1782771625413670000,5.821669921875,-0.07651615142822266,0.0028115957975387573,0.022197607904672623
1782771625423649000,5.83164892578125,-0.07651615142822266,-0.0019933581352233887,0.019777990877628326
1782771625433659000,5.841658935546875,-0.08609390258789062,-0.001947198063135147,0.024470191448926926
1782771625443668700,5.851668701171875,-0.08848857879638672,-0.0019569210708141327,0.019648658111691475
1782771625453648000,5.86164794921875,-0.08609390258789062,0.007605940103530884,0.0100494883954525
1782771625463657700,5.87165771484375,-0.08130455017089844,0.00035191699862480164,0.014818105846643448
1782771625473667600,5.88166748046875,-0.07651615142822266,0.00028192996978759766,0.005291853100061417
1782771625483646700,5.891646728515625,-0.07651615142822266,0.014626536518335342,0.0147946085780859
1782771625493656600,5.901656494140625,-0.0884866714477539,0.0001833587884902954,0.024346716701984406
1782771625503666200,5.911666259765625,-0.08369827270507812,-0.0022246763110160828,0.024314118549227715
1782771625513645300,5.921645263671875,-0.09806442260742188,0.009847905486822128,0.00042174383997917175
1782771625523655200,5.9316552734375,-0.08369922637939453,-0.0020746998488903046,0.010065881535410881
1782771625533605400,5.94160546875,-0.08130455017089844,0.017120126634836197,0.014864416792988777
1782771625543735800,5.95173583984375,-0.07412338256835938,-0.01150096021592617,0.0077546145766973495
1782771625553654000,5.961654052734375,-0.0932769775390625,0.007579255849123001,0.019674748182296753
1782771625563664000,5.971663818359375,-0.07651615142822266,-0.006792187690734863,0.0028166556730866432
1782771625573673700,5.981673828125,-0.09088134765625,-0.0067936815321445465,0.009969480335712433
1782771625583652900,5.99165283203125,-0.08848857879638672,-0.0163034088909626,0.00998687744140625
1782771625593662500,6.001662353515625,-0.07891178131103516,-0.01395697146654129,0.014796972274780273
1782771625603672300,6.01167236328125,-0.07891178131103516,0.009990137070417404,0.012422549538314342
1782771625613651500,6.0216513671875,-0.07172870635986328,0.002810124307870865,0.010111883282661438
1782771625623661300,6.031661376953125,-0.07891178131103516,0.009989552199840546,0.017310677096247673
1782771625633671200,6.041671142578125,-0.08369827270507812,-0.006829015910625458,0.012542159296572208
1782771625643650300,6.051650390625,-0.07891082763671875,0.009925883263349533,0.012439633719623089
1782771625653660200,6.06166015625,-0.08609294891357422,0.024269752204418182,0.02201695740222931
1782771625663670000,6.071669921875,-0.08369922637939453,0.005151890218257904,0.019553406164050102
1782771625673649200,6.081649169921875,-0.08369922637939453,0.01470240205526352,-0.004314899444580078
1782771625683658800,6.09165869140625,-0.07651615142822266,0.007559996098279953,0.0075654536485672
1782771625693668600,6.101668701171875,-0.08370018005371094,0.0004098378121852875,0.029168767854571342
1782771625703648000,6.11164794921875,-0.08370018005371094,-0.004341449588537216,0.02441970631480217
1782771625713657600,6.12165771484375,-0.0908823013305664,-0.011532684788107872,0.010048339143395424
1782771625723667500,6.13166748046875,-0.08130550384521484,0.002822503447532654,0.00998244434595108
1782771625733646600,6.141646484375,-0.07172870635986328,0.009990975260734558,0.009987380355596542
1782771625743656400,6.151656494140625,-0.08370018005371094,0.005186539143323898,0.019562499597668648
1782771625753666300,6.161666259765625,-0.06215095520019531,-0.006854865700006485,0.026722511276602745
1782771625763645400,6.1716455078125,-0.06933403015136719,0.0002592429518699646,0.012338240630924702
1782771625773655300,6.1816552734375,-0.07172775268554688,-0.004472415894269943,-0.009252829477190971
1782771625783665200,6.1916650390625,-0.08609199523925781,0.004979662597179413,0.012314782477915287
1782771625793644300,6.201644287109375,-0.09566974639892578,0.007487170398235321,0.0051034558564424515
1782771625803654100,6.211654052734375,-0.09566974639892578,-0.006880946457386017,0.017104143276810646
1782771625813663700,6.221663818359375,-0.08130455017089844,-0.009214047342538834,0.002779458649456501
1782771625823614000,6.231614013671875,-0.08130455017089844,-0.004482824355363846,0.014724219217896461
1782771625833744400,6.241744384765625,-0.07172775268554688,0.012336965650320053,0.002753456123173237
1782771625843603000,6.25160302734375,-0.07891178131103516,0.005208246409893036,0.02671637572348118
1782771625853733400,6.2617333984375,-0.08848857879638672,0.0026871562004089355,0.026597052812576294
1782771625863651600,6.271651611328125,-0.08370018005371094,0.009858869016170502,0.002673679031431675
1782771625873661400,6.281661376953125,-0.08369922637939453,0.014687754213809967,0.012382660992443562
1782771625883671300,6.29167138671875,-0.0669393539428711,0.005155690014362335,-0.0019523035734891891
1782771625893650400,6.301650390625,-0.07651710510253906,0.012372501194477081,0.024393849074840546
1782771625903660000,6.311659912109375,-0.08609390258789062,0.00043642520904541016,0.021937943994998932
1782771625913670000,6.321669921875,-0.07891178131103516,0.0028072334825992584,0.019417311996221542
1782771625923649000,6.33164892578125,-0.07412338256835938,0.012410305440425873,0.03129788115620613
1782771625933659000,6.341658935546875,-0.08848857879638672,0.0027982257306575775,0.026397621259093285
1782771625943668700,6.351668701171875,-0.0693349838256836,0.007560309022665024,0.002446998842060566
1782771625953647900,6.36164794921875,-0.0669403076171875,0.012375008314847946,0.016796855255961418
1782771625963657700,6.37165771484375,-0.0932769775390625,0.01712176576256752,0.016780078411102295
1782771625973667600,6.38166748046875,-0.09806537628173828,0.005113296210765839,0.0072565022855997086
1782771625983646700,6.391646728515625,-0.07172775268554688,0.00023316219449043274,0.0024692071601748466
1782771625993656300,6.40165625,-0.07412242889404297,0.00026926398277282715,0.002544206567108631
1782771626003666200,6.411666259765625,-0.10045909881591797,-0.006868347525596619,0.009805882349610329
1782771626013645300,6.421645263671875,-0.0884866714477539,0.00024202466011047363,0.014673173427581787
1782771626023655200,6.4316552734375,-0.0669393539428711,0.012195948511362076,0.00984496995806694
1782771626033665000,6.4416650390625,-0.07891178131103516,0.00266222283244133,0.019435137510299683
1782771626043644200,6.45164404296875,-0.07890987396240234,0.017002299427986145,0.01705014333128929
1782771626053654000,6.461654052734375,-0.09806442260742188,-0.002110891044139862,0.014666303992271423
1782771626063663900,6.471663818359375,-0.10285186767578125,0.004987608641386032,0.01238978374749422
1782771626073673700,6.481673828125,-0.08130359649658203,0.007297936826944351,0.010000813752412796
1782771626083652900,6.49165283203125,-0.0884866714477539,-0.0022335126996040344,0.009900813922286034
1782771626093662500,6.501662353515625,-0.07890987396240234,0.012044239789247513,0.02192382887005806
1782771626103672300,6.51167236328125,-0.07172679901123047,-0.0022823289036750793,0.019519221037626266
1782771626113651500,6.5216513671875,-0.062150001525878906,0.009666945785284042,0.007552614435553551
1782771626123661300,6.531661376953125,-0.07412147521972656,0.012036420404911041,0.012230186723172665
1782771626133671200,6.541671142578125,-0.07890987396240234,-0.0022894851863384247,0.021867431700229645
1782771626143650300,6.551650390625,-0.09566879272460938,-0.014326129108667374,-0.006775965914130211
1782771626153660200,6.56166015625,-0.09566879272460938,-0.004752539098262787,0.019580164924263954
1782771626163670000,6.571669921875,-0.07651519775390625,-0.0023597702383995056,0.012420848943293095
1782771626173649200,6.581649169921875,-0.0908803939819336,0.000032667070627212524,0.02439890429377556
1782771626183659000,6.591658935546875,-0.09806346893310547,0.0048165880143642426,0.014888469129800797
1782771626193668600,6.601668701171875,-0.09566783905029297,-0.002428922802209854,0.017342722043395042
1782771626203648000,6.61164794921875,-0.08130264282226562,-0.014452315866947174,0.022181618958711624
1782771626213598200,6.62159814453125,-0.09806251525878906,0.011881668120622635,0.017380373552441597
1782771626223669000,6.6316689453125,-0.08369731903076172,0.009539004415273666,0.002959023229777813
1782771626234876700,6.642876708984375,-0.07890892028808594,0.01676056906580925,0.012532929889857769
1782771626253666300,6.661666259765625,-0.06693744659423828,0.0024039074778556824,0.005361180752515793
1782771626263586000,6.6715859375,-0.0884857177734375,0.0023824311792850494,0.0269025731831789
1782771626274395100,6.68239501953125,-0.0884866714477539,0.004810437560081482,0.024421896785497665
1782771626293644300,6.701644287109375,-0.08609199523925781,0.004845958203077316,0.02202530950307846
1782771626303654100,6.711654052734375,-0.08130359649658203,-0.004681020975112915,0.017140716314315796
1782771626313663700,6.721663818359375,-0.07412147521972656,0.014450114220380783,0.021941576153039932
1782771626323673600,6.731673583984375,-0.08130359649658203,-0.009501710534095764,0.01717289350926876
1782771626333593300,6.74159326171875,-0.08130359649658203,0.0024594254791736603,0.00996459275484085
1782771626343723500,6.7517236328125,-0.07890987396240234,0.004839420318603516,0.026676077395677567
1782771626353672400,6.76167236328125,-0.0884866714477539,0.000039663165807724,0.009945770725607872
1782771626363651600,6.771651611328125,-0.06693840026855469,0.0023634620010852814,0.014767348766326904
1782771626373661400,6.781661376953125,-0.06693744659423828,-0.00009992718696594238,0.02197697013616562
1782771626383671300,6.79167138671875,-0.0884857177734375,-0.00010817497968673706,0.02199685573577881
1782771626393650400,6.801650390625,-0.0884857177734375,-0.0073515139520168304,0.012453391216695309
1782771626403660000,6.811659912109375,-0.0884857177734375,-0.00244300439953804,0.022105541080236435
1782771626413670000,6.821669921875,-0.06693744659423828,0.01675914227962494,0.002942983992397785
1782771626423649000,6.83164892578125,-0.0884857177734375,0.01201525330543518,0.010191118344664574
1782771626433659000,6.841658935546875,-0.08369731903076172,0.012048870325088501,0.01736144721508026
1782771626443668700,6.851668701171875,-0.08130264282226562,-0.0023334920406341553,0.005396213382482529
1782771626453648000,6.86164794921875,-0.06933212280273438,-0.004799682646989822,0.022093649953603745
1782771626463657700,6.87165771484375,-0.09327507019042969,0.011939235031604767,0.019685329869389534
1782771626473667600,6.88166748046875,-0.07651519775390625,0.007245868444442749,0.024387415498495102
1782771626483646700,6.891646728515625,-0.08130359649658203,-0.009527642279863358,0.02196059376001358
1782771626493656300,6.90165625,-0.09566879272460938,0.004760995507240295,0.019467653706669807
1782771626503666200,6.911666259765625,-0.0908803939819336,-0.007217001169919968,0.012142461724579334
1782771626513645300,6.921645263671875,-0.08609199523925781,0.00001920759677886963,0.012123123742640018
1782771626523655200,6.9316552734375,-0.0884866714477539,0.0023456811904907227,0.024000966921448708
1782771626533665000,6.9416650390625,-0.08609199523925781,-0.00483931228518486,0.014344548806548119
1782771626543644200,6.95164404296875,-0.06933307647705078,0.0023388229310512543,0.02628202550113201
1782771626553654000,6.961654052734375,-0.08369827270507812,-0.0072361379861831665,0.007055271416902542
1782771626563664000,6.971663818359375,-0.08369827270507812,0.007065657526254654,0.016678428277373314
1782771626573673700,6.981673828125,-0.07172679901123047,-0.00018031150102615356,0.023773983120918274
1782771626583652900,6.99165283203125,-0.08609199523925781,0.009386509656906128,0.023684846237301826
1782771626593662500,7.001662353515625,-0.08130359649658203,0.00698118656873703,-0.005041547119617462
1782771626603672300,7.01167236328125,-0.08130264282226562,0.006848566234111786,0.016510602086782455
1782771626613651500,7.0216513671875,-0.0860910415649414,0.011676959693431854,0.00687771663069725
1782771626623661300,7.031661376953125,-0.08369827270507812,0.004477422684431076,0.006834277883172035
1782771626633671200,7.041671142578125,-0.0860910415649414,0.009179458022117615,0.03536886349320412
1782771626643650300,7.051650390625,-0.08609199523925781,0.006878647953271866,0.0018488327041268349
1782771626653660200,7.06166015625,-0.07412147521972656,0.006793715059757233,0.016215400770306587
1782771626663670000,7.071669921875,-0.07890892028808594,0.006708648055791855,0.01382315345108509
1782771626673649200,7.081649169921875,-0.0860910415649414,-0.014852449297904968,0.025779124349355698
1782771626683659000,7.091658935546875,-0.08369731903076172,-0.0076758116483688354,0.01385059580206871
1782771626693668600,7.101668701171875,-0.08609199523925781,-0.014733128249645233,0.013843921944499016
1782771626703648000,7.11164794921875,-0.08609199523925781,-0.00514911487698555,-0.0005143508315086365
1782771626713657600,7.12165771484375,-0.08130359649658203,-0.00029510632157325745,0.011407005600631237
1782771626723667500,7.13166748046875,-0.08609199523925781,0.01167280599474907,0.021043572574853897
1782771626733646600,7.141646484375,-0.08130359649658203,-0.002693232148885727,0.004297791048884392
1782771626743656400,7.151656494140625,-0.0884866714477539,-0.0075377002358436584,0.013768019154667854
1782771626753666300,7.161666259765625,-0.08369827270507812,0.004433449357748032,0.011446922086179256
1782771626763645400,7.1716455078125,-0.08130359649658203,0.011608090251684189,0.023475227877497673
1782771626773655300,7.1816552734375,-0.09327507019042969,-0.005155179649591446,0.028183521702885628
1782771626783665200,7.1916650390625,-0.07890987396240234,0.004474770277738571,0.009020071476697922
1782771626793644300,7.201644287109375,-0.06933403015136719,-0.0001996755599975586,0.013738848268985748
1782771626803654100,7.211654052734375,-0.08609294891357422,-0.014559656381607056,0.013731922954320908
1782771626813663700,7.221663818359375,-0.07891082763671875,-0.002581421285867691,0.03039800375699997
1782771626823673600,7.231673583984375,-0.08609294891357422,-0.0001229308545589447,0.016019294038414955
1782771626835058000,7.243057861328125,-0.07412242889404297,0.004665296524763107,0.004040062427520752
1782771626853672400,7.26167236328125,-0.08130455017089844,-0.012140152975916862,0.02558555081486702
1782771626863651600,7.271651611328125,-0.07890987396240234,0.0021688416600227356,-0.0007405765354633331
1782771626873661400,7.281661376953125,-0.08609294891357422,0.006956163793802261,0.008912758901715279
1782771626883671300,7.29167138671875,-0.08369922637939453,0.0022250302135944366,0.008869534358382225
1782771626893650400,7.301650390625,-0.09327507019042969,0.0021616145968437195,0.013614973053336143
1782771626903660300,7.311660400390625,-0.0908803939819336,-0.005080770701169968,0.025645138695836067
1782771626913670000,7.321669921875,-0.0884866714477539,0.006886757910251617,-0.0007874835282564163
1782771626923649000,7.33164892578125,-0.0908803939819336,0.009333107620477676,0.003968825563788414
1782771626933659000,7.341658935546875,-0.08369922637939453,0.002202603965997696,0.003940083086490631
1782771626943668700,7.351668701171875,-0.07412242889404297,0.002195402979850769,0.013548031449317932
1782771626953647900,7.36164794921875,-0.08609294891357422,0.0070320554077625275,0.020809128880500793
1782771626963657700,7.37165771484375,0.37838172912597656,-0.02408662997186184,0.03994537144899368
1782771626973667600,7.38166748046875,-0.6870260238647461,0.019840888679027557,-0.04814956337213516
1782771626983646700,7.391646728515625,-0.0214080810546875,-0.002839013934135437,0.0037216655910015106
1782771626993656600,7.401656494140625,-0.06929302215576172,0.002071630209684372,0.010824981145560741
1782771627003666200,7.411666259765625,-0.1243581771850586,-0.00038003548979759216,0.018282495439052582
1782771627013645300,7.421645263671875,-0.10759830474853516,0.00440872460603714,0.001626923680305481
1782771627023655200,7.4316552734375,-0.10520648956298828,-0.02646985650062561,0.0013699047267436981
1782771627033665000,7.4416650390625,-0.19379520416259766,0.026623260229825974,0.01028564851731062
1782771627043644200,7.45164404296875,-0.040574073791503906,0.005971170961856842,0.020934095606207848
1782771627053654000,7.461654052734375,0.050391197204589844,-0.011384937912225723,0.020332952961325645
1782771627063663900,7.471663818359375,-0.10524272918701172,-0.0027662627398967743,0.005729615688323975
