time,seconds_elapsed,z,y,x
1782771604642506200,0.22450634765625,-0.06213855743408203,-0.0010135620832443237,0.00070140790194273
1782771604652515800,0.234515869140625,-0.057351112365722656,0.003838200122117996,0.007693936582654715
1782771604662525700,0.244525634765625,-0.06213951110839844,0.013474877923727036,0.005120148882269859
1782771604672505000,0.254505126953125,-0.040592193603515625,0.025505948811769485,0.009728355333209038
1782771604682514700,0.2645146484375,-0.04298591613769531,0.01832316815853119,-0.004637387581169605
1782771604692524300,0.274524169921875,-0.03819751739501953,0.01592889055609703,0.007333348039537668
1782771604702503700,0.284503662109375,-0.07885456085205078,0.010625507682561874,0.008378177881240845
1782771604712513500,0.294513427734375,-0.059700965881347656,-0.008468151092529297,-0.005986703559756279
1782771604722523100,0.304523193359375,-0.074066162109375,-0.013256490230560303,0.0035904324613511562
1782771604732502500,0.31450244140625,-0.074066162109375,-0.008407991379499435,0.015561440959572792
1782771604742512000,0.32451220703125,-0.0716714859008789,-0.008467569947242737,-0.008320599794387817
1782771604752522000,0.33452197265625,-0.050124168395996094,-0.008527662605047226,0.010712826624512672
1782771604762501400,0.34450146484375,-0.062094688415527344,0.01062588021159172,0.003649554681032896
1782771604772511000,0.354510986328125,-0.074066162109375,-0.0012852773070335388,0.003589311148971319
1782771604782520800,0.364520751953125,-0.08364295959472656,-0.0012852102518081665,-0.003592963330447674
1782771604792500200,0.374500244140625,-0.05730628967285156,0.003563355654478073,-0.005986835807561874
1782771604802509800,0.384509765625,-0.074066162109375,0.013140164315700531,0.003649619873613119
1782771604812519700,0.394519775390625,-0.07645988464355469,0.01062583178281784,-0.008381153456866741
1782771604822498800,0.404498779296875,-0.08603668212890625,0.01547413319349289,0.008378587663173676
1782771604832508400,0.41450830078125,-0.05730628967285156,0.010685659945011139,-0.003652656450867653
1782771604842518300,0.424518310546875,-0.08843135833740234,0.0011687539517879486,-0.006046531721949577
1782771604852497700,0.43449755859375,-0.06688404083251953,0.006017196923494339,0.015561050735414028
1782771604862507300,0.44450732421875,-0.07167243957519531,0.006076909601688385,0.013226823881268501
1782771604872517000,0.45451708984375,-0.08843231201171875,0.006076972931623459,-0.001077963039278984
1782771604882496500,0.46449658203125,-0.07167243957519531,-0.022653378546237946,0.0013763969764113426
1782771604892506000,0.474506103515625,-0.06449031829833984,0.0036229267716407776,-0.0034120064228773117
1782771604902516000,0.484515869140625,-0.047730445861816406,0.013199664652347565,-0.0058065373450517654
1782771604912525600,0.494525634765625,-0.05251884460449219,0.00607709214091301,-0.005866962485015392
1782771604922445300,0.5044453125,-0.06927871704101562,0.00607716292142868,0.013227149844169617
1782771604932575700,0.51457568359375,-0.07167243957519531,-0.008288048207759857,-0.010774591937661171
1782771604942524400,0.5245244140625,-0.05730724334716797,-0.00343921035528183,-0.008380057290196419
1782771604952503800,0.53450390625,-0.07885551452636719,-0.010681461542844772,-0.0035913297906517982
1782771604962513400,0.544513427734375,-0.06927871704101562,-0.0058333612978458405,-0.0036506475880742073
1782771604972523300,0.554523193359375,-0.08603763580322266,0.00853198766708374,0.0035927114076912403
1782771604982502700,0.564502685546875,-0.07167339324951172,0.008531924337148666,0.005866922438144684
1782771604992512300,0.57451220703125,-0.08364486694335938,-0.003379177302122116,0.012929700314998627
1782771605002522000,0.584522216796875,-0.0764627456665039,0.0014691203832626343,-0.01340619195252657
1782771605012501200,0.594501220703125,-0.06927967071533203,-0.0034394077956676483,-0.0038290563970804214
1782771605022510800,0.6045107421875,-0.07167339324951172,0.0038027800619602203,-0.00388902984559536
1782771605032520700,0.614520751953125,-0.06928062438964844,0.0014687366783618927,0.0008997013792395592
1782771605042500000,0.6245,-0.062096595764160156,-0.0033793821930885315,0.0009003579616546631
1782771605052509700,0.634509765625,-0.062096595764160156,0.013380032032728195,-0.006282247602939606
1782771605062519600,0.64451953125,-0.07406902313232422,0.008711356669664383,0.0032350574620068073
1782771605072499000,0.6544990234375,-0.06209754943847656,0.003862854093313217,0.010417659766972065
1782771605082508500,0.664508544921875,-0.06449222564697266,0.0038629211485385895,0.017600592225790024
1782771605092518400,0.674518310546875,-0.078857421875,0.008711419999599457,0.01520639006048441
1782771605102497500,0.68449755859375,-0.07167434692382812,0.013499826192855835,0.0008411798626184464
1782771605112507400,0.69450732421875,-0.07167434692382812,-0.01762472838163376,-0.006341098807752132
1782771605122457600,0.70445751953125,-0.08125114440917969,0.011045858263969421,0.005570080131292343
1782771605132587800,0.714587890625,-0.0764627456665039,0.006317421793937683,-0.0039464933797717094
1782771605142506000,0.724506103515625,-0.06928062438964844,0.0015290863811969757,-0.004066932015120983
1782771605152515800,0.734515869140625,-0.06688594818115234,-0.003259316086769104,0.010238731279969215
1782771605162525700,0.744525634765625,-0.07167530059814453,0.003983113914728165,0.0029962933622300625
1782771605172505000,0.754505126953125,-0.07167530059814453,0.001588914543390274,0.010238995775580406
1782771605182455300,0.764455322265625,-0.0788583755493164,-0.0031994320452213287,0.0006625140085816383
1782771605192495900,0.774495849609375,-0.09322261810302734,-0.0008651949465274811,0.005450588651001453
1782771605202534100,0.7845341796875,-0.06209850311279297,0.006377380341291428,0.005451243370771408
1782771605212513500,0.794513427734375,-0.06449317932128906,0.015954244881868362,0.0030573694966733456
1782771605222523100,0.804523193359375,-0.08125114440917969,0.00392359122633934,-0.008853993378579617
1782771605232443000,0.81444287109375,-0.07167530059814453,0.011166352778673172,-0.004125354811549187
1782771605242573300,0.8245732421875,-0.09082889556884766,-0.005593057721853256,0.010239855386316776
1782771605252522000,0.83452197265625,-0.06688690185546875,-0.012715272605419159,0.0053910547867417336
1782771605262501400,0.84450146484375,-0.08843517303466797,0.008892260491847992,0.0077849277295172215
1782771605272511000,0.854510986328125,-0.07406997680664062,-0.005472961813211441,0.010179132223129272
1782771605282520800,0.864520751953125,-0.07406997680664062,0.0017095915973186493,0.005390401929616928
1782771605292500200,0.874500244140625,-0.08364677429199219,0.0041037313640117645,-0.00418673362582922
1782771605302450200,0.8844501953125,-0.0812520980834961,0.006497986614704132,0.00048270076513290405
1782771605312580600,0.89458056640625,-0.07646465301513672,0.018588867038488388,-0.009033874608576298
1782771605322498800,0.904498779296875,-0.07167625427246094,0.0018293969333171844,0.0005426052957773209
1782771605332449000,0.914448974609375,-0.09082889556884766,-0.012595240026712418,0.002937453333288431
1782771605342579200,0.9245791015625,-0.08364677429199219,0.006498906761407852,-0.0042445044964551926
1782771605353628700,0.935628662109375,-0.10040569305419922,0.011226974427700043,-0.004183387383818626
1782771605372517000,0.95451708984375,-0.07167530059814453,0.013621125370264053,0.005433464422821999
1782771605382496500,0.96449658203125,-0.08843517303466797,-0.0006243586540222168,-0.008991250768303871
1782771605392506400,0.97450634765625,-0.09082889556884766,-0.005532413721084595,0.014891834929585457
1782771605402516000,0.984515869140625,-0.08364677429199219,0.0016502514481544495,-0.0018672524020075798
1782771605412525600,0.994525634765625,-0.0788583755493164,-0.017503362149000168,0.019680563360452652
1782771605422505000,1.0045048828125,-0.0812520980834961,0.013621389865875244,0.0029218033887445927
1782771605432514600,1.0145146484375,-0.08843517303466797,0.0017102919518947601,0.007710206788033247
1782771605442524400,1.0245244140625,-0.07646369934082031,0.0017102919518947601,-0.0019264305010437965
1782771605452503800,1.03450390625,-0.0812520980834961,0.0017102286219596863,0.009984154254198074
1782771605462513400,1.044513427734375,-0.09801197052001953,0.006498575210571289,0.009983828291296959
1782771605472523300,1.054523193359375,-0.08604049682617188,0.0017101690173149109,0.000467115081846714
1782771605482502700,1.064502685546875,-0.0812520980834961,-0.005412541329860687,-0.00432096142321825
1782771605492512300,1.07451220703125,-0.07407093048095703,0.004224181175231934,-0.004261051304638386
1782771605502522000,1.084522216796875,-0.07646465301513672,0.006618384271860123,0.0005273520946502686
1782771605512501200,1.094501220703125,-0.09082984924316406,-0.017263416200876236,0.007650512736290693
1782771605522510800,1.1045107421875,-0.07167720794677734,-0.0004442967474460602,-0.009168223477900028
1782771605532520700,1.114520751953125,-0.0812540054321289,0.013981010764837265,0.005196986719965935
1782771605542500000,1.1245,-0.07646656036376953,0.004464153200387955,-0.0020448006689548492
1782771605552509700,1.134509765625,-0.09322643280029297,0.006858415901660919,-0.006832881830632687
1782771605562519600,1.14451953125,-0.09322643280029297,0.009252674877643585,-0.0020441552624106407
1782771605572499000,1.1544990234375,-0.07167816162109375,-0.005112417042255402,-0.004437708295881748
1782771605582508500,1.164508544921875,-0.07646560668945312,-0.007566142827272415,0.0075339446775615215
1782771605592518400,1.174518310546875,-0.06449508666992188,0.009133171290159225,0.005139742977917194
1782771605602497500,1.18449755859375,-0.0812540054321289,0.006679199635982513,-0.001982705667614937
1782771605612507400,1.19450732421875,-0.08843708038330078,-0.0005033425986766815,-0.00916498713195324
1782771605622517000,1.20451708984375,-0.06688880920410156,-0.012414518743753433,0.00986896175891161
1782771605632496400,1.214496337890625,-0.07407188415527344,-0.0028376542031764984,-0.016466932371258736
1782771605642506200,1.22450634765625,-0.07886028289794922,-0.0003837980329990387,-0.0044959234073758125
1782771605652515800,1.234515869140625,-0.08604240417480469,0.002010449767112732,0.00035290326923131943
1782771605662525700,1.244525634765625,-0.0812540054321289,0.0139814093708992,0.014777617529034615
1782771605672505000,1.254505126953125,-0.06688880920410156,0.016495786607265472,0.005260908044874668
1782771605682514700,1.2645146484375,-0.07167816162109375,-0.009840372949838638,0.005201580002903938
1782771605692524300,1.274524169921875,-0.09083271026611328,0.006979137659072876,0.0028073773719370365
1782771605702503700,1.284503662109375,-0.07167911529541016,-0.007386121898889542,0.019506633281707764
1782771605712513500,1.294513427734375,-0.07646751403808594,0.009493548423051834,-0.009223784320056438
1782771605722523100,1.304523193359375,-0.09801578521728516,0.011887691915035248,0.01477752160280943
1782771605732502500,1.31450244140625,-0.0860443115234375,0.004645083099603653,-0.006830031983554363
1782771605742512000,1.32451220703125,-0.0860443115234375,0.009373806416988373,0.007535174954682589
1782771605752522000,1.33452197265625,-0.0836496353149414,-0.01229412853717804,0.0028068353421986103
1782771605762501400,1.34450146484375,-0.09562015533447266,0.011647883802652359,0.0052010370418429375
1782771605772511000,1.354510986328125,-0.07407188415527344,-0.007445730268955231,0.007655770983546972
1782771605782520800,1.364520751953125,-0.09801387786865234,-0.005051471292972565,0.0005333507433533669
1782771605792500200,1.374500244140625,-0.0812540054321289,0.002071194350719452,0.007776666898280382
1782771605802509800,1.384509765625,-0.0812540054321289,0.006859663873910904,0.01256539300084114
1782771605812519700,1.394519775390625,-0.083648681640625,-0.0003229491412639618,0.012685583904385567
1782771605822498800,1.404498779296875,-0.083648681640625,0.013982433825731277,0.0007744049653410912
1782771605832508400,1.41450830078125,-0.0812530517578125,-0.00044248998165130615,0.00562368705868721
1782771605842518300,1.424518310546875,-0.0812530517578125,-0.0005023330450057983,0.0033491537906229496
1782771605852497700,1.43449755859375,-0.08843708038330078,0.00919472798705101,0.003349479753524065
1782771605862507300,1.44450732421875,-0.06928348541259766,0.006800461560487747,0.008256858214735985
1782771605872517000,1.45451708984375,-0.0788583755493164,0.0018918737769126892,0.005982846952974796
1782771605882496500,1.46449658203125,-0.07646369934082031,0.016316909343004227,0.0036484762094914913
1782771605892506000,1.474506103515625,-0.08364677429199219,-0.00044243037700653076,-0.0058680931106209755
1782771605902516000,1.484515869140625,-0.06688880920410156,0.009254105389118195,0.020588111132383347
1782771605912525600,1.494525634765625,-0.07407188415527344,-0.005111105740070343,0.008677195757627487
1782771605922504700,1.504504638671875,-0.07167530059814453,0.00440593808889389,0.0016145771369338036
1782771605932514600,1.5145146484375,-0.0812520980834961,0.0020117349922657013,0.01603970117866993
1782771605942524400,1.5245244140625,-0.07167625427246094,0.0020714998245239258,0.0016741668805480003
1782771605952503600,1.534503662109375,-0.0812540054321289,-0.007445137947797775,-0.0005995184183120728
1782771605962513400,1.544513427734375,-0.07407188415527344,0.0045257993042469025,0.0042482116259634495
1782771605972523300,1.554523193359375,-0.05970573425292969,0.006920073181390762,-0.0004196772351861
1782771605982502700,1.564502685546875,-0.08604145050048828,0.002131599932909012,0.004428234416991472
1782771605992512300,1.57451220703125,-0.09561824798583984,0.004525803029537201,-0.005148572847247124
1782771606002522000,1.584522216796875,-0.0836477279663086,-0.0026567354798316956,0.002094184048473835
1782771606012501200,1.594501220703125,-0.07885932922363281,-0.005050938576459885,-0.016939237713813782
1782771606022510800,1.6045107421875,-0.10040664672851562,0.0069797225296497345,0.0070027802139520645
1782771606032520700,1.614520751953125,-0.07406997680664062,-0.00032307207584381104,0.0022143758833408356
1782771606042500000,1.6245,-0.08125114440917969,0.0019515343010425568,0.014305369928479195
1782771606052509700,1.634509765625,-0.08843517303466797,-0.0026570558547973633,-0.007122296839952469
1782771606062519600,1.64451953125,-0.0788583755493164,0.0021313466131687164,0.009637115523219109
1782771606072499000,1.6544990234375,-0.0812520980834961,-0.007505554705858231,0.0049088080413639545
1782771606082508500,1.664508544921875,-0.0788583755493164,0.009253930300474167,0.007362979464232922
1782771606092518400,1.674518310546875,-0.07646369934082031,0.0020713992416858673,-0.0021534087136387825
1782771606102497500,1.68449755859375,-0.0788583755493164,-0.0026571787893772125,0.00030062533915042877
1782771606112507100,1.694507080078125,-0.0812520980834961,-0.0003228820860385895,-0.0020336639136075974
1782771606122517000,1.70451708984375,-0.08843421936035156,0.01152830570936203,0.014784932136535645
1782771606132496400,1.714496337890625,-0.08364582061767578,-0.005171008408069611,0.012390729039907455
1782771606142506000,1.724506103515625,-0.08843421936035156,0.006800010800361633,-0.006643586792051792
1782771606152515800,1.734515869140625,-0.09322261810302734,-0.0003225058317184448,0.007841811515390873
1782771606162525700,1.744525634765625,-0.08604049682617188,0.006979767233133316,0.010355677455663681
1782771606172504800,1.7545048828125,-0.08603954315185547,-0.002596963196992874,0.0008993810042738914
1782771606182514700,1.7645146484375,-0.10040473937988281,0.006920117884874344,0.012989366427063942
1782771606192524500,1.774524658203125,-0.0812520980834961,-0.009779289364814758,0.017777446657419205
1782771606202503700,1.784503662109375,-0.10040569305419922,0.00470559298992157,0.013108714483678341
1782771606212513500,1.794513427734375,-0.0764627456665039,-0.007325164973735809,0.0035924604162573814
1782771606222523100,1.804523193359375,-0.08843517303466797,-0.019236337393522263,0.008500533178448677
1782771606232502500,1.81450244140625,-0.08364677429199219,-0.007265247404575348,-0.0010759513825178146
1782771606242512100,1.82451220703125,-0.08843517303466797,-0.000022992491722106934,0.003831748850643635
1782771606252522000,1.83452197265625,-0.09322357177734375,-0.004811327904462814,0.00862047914415598
1782771606262501400,1.84450146484375,-0.08364582061767578,0.009494069963693619,-0.012807682156562805
1782771606272511000,1.854510986328125,-0.07406902313232422,-0.009659543633460999,0.003951730206608772
1782771606282520800,1.864520751953125,-0.08604049682617188,0.007219608873128891,0.020711466670036316
1782771606292500200,1.874500244140625,-0.08364582061767578,0.00709933415055275,0.004132014699280262
1782771606302509800,1.884509765625,-0.07406902313232422,0.002311091870069504,-0.005444152280688286
1782771606312519700,1.894519775390625,-0.08125114440917969,0.004705384373664856,0.0017988737672567368
1782771606322498800,1.904498779296875,-0.10040473937988281,0.00237109512090683,0.01622423343360424
1782771606332508400,1.91450830078125,-0.07406902313232422,0.00003680586814880371,0.011555654928088188
1782771606342518300,1.924518310546875,-0.07406902313232422,0.0023712478578090668,0.011615810915827751
1782771606352497700,1.93449755859375,-0.08604049682617188,0.002491455525159836,-0.0028094984591007233
1782771606362507500,1.944507568359375,-0.07406997680664062,0.007339503616094589,-0.00035564694553613663
1782771606372517000,1.95451708984375,-0.07406997680664062,0.007339581847190857,0.014130079187452793
1782771606382496500,1.96449658203125,-0.07406997680664062,0.0025513507425785065,0.0093423156067729
1782771606392506400,1.97450634765625,-0.09082794189453125,0.004885639995336533,0.011736519634723663
1782771606402516000,1.984515869140625,-0.09561634063720703,-0.009479481726884842,-0.005022573284804821
1782771606412525600,1.994525634765625,-0.08843421936035156,0.00721992552280426,0.007008853834122419
1782771606422505000,2.0045048828125,-0.08364582061767578,-0.0023568756878376007,0.011857081204652786
1782771606432514600,2.0145146484375,-0.09561634063720703,0.00003722682595252991,0.002339872531592846
1782771606442524400,2.0245244140625,-0.09082794189453125,0.00482572615146637,-0.004782585427165031
1782771606452503800,2.03450390625,-0.08125114440917969,0.004885811358690262,0.007188424933701754
1782771606462513400,2.044513427734375,-0.09561634063720703,0.02170497551560402,0.014430996030569077
1782771606472523300,2.054523193359375,-0.08603954315185547,-0.0022368691861629486,0.007429309654980898
1782771606482502700,2.064502685546875,-0.08125114440917969,-0.011813674122095108,-0.002147497609257698
1782771606492512300,2.07451220703125,-0.0764627456665039,-0.004571165889501572,0.009943337179720402
1782771606502522000,2.084522216796875,-0.08843421936035156,0.0026713646948337555,0.0028807157650589943
1782771606512501200,2.094501220703125,-0.08364582061767578,-0.0021772272884845734,0.022094104439020157
1782771606522510800,2.1045107421875,-0.07406902313232422,0.005065027624368668,0.007788544055074453
1782771606532520700,2.114520751953125,-0.08364582061767578,-0.009300369769334793,0.019856683909893036
1782771606542500000,2.1245,-0.09322261810302734,0.0026693195104599,0.01749611459672451
1782771606552509700,2.134509765625,-0.08603954315185547,0.0002735331654548645,0.012735096737742424
1782771606562519600,2.14451953125,-0.09561634063720703,-0.0021812021732330322,0.03183288872241974
1782771606572499000,2.1544990234375,-0.07167434692382812,0.0074498094618320465,0.017525773495435715
1782771606582508500,2.164508544921875,-0.09322261810302734,0.005108807235956192,0.0008467277511954308
1782771606592518400,2.174518310546875,-0.09082794189453125,-0.014043852686882019,0.01511570904403925
1782771606602497500,2.18449755859375,-0.0812520980834961,0.007561326026916504,-0.0016698269173502922
1782771606612507400,2.19450732421875,-0.09561634063720703,0.002709638327360153,0.01278616487979889
1782771606622517000,2.20451708984375,-0.08603954315185547,-0.0020805299282073975,0.010428855195641518
1782771606632496400,2.214496337890625,-0.08364582061767578,0.009884655475616455,0.015188324265182018
1782771606642506200,2.22450634765625,-0.08603954315185547,0.005096349865198135,-0.011147577315568924
1782771606652515800,2.234515869140625,-0.08843517303466797,0.00036814063787460327,-0.006298755295574665
1782771606662525700,2.244525634765625,-0.078857421875,-0.002025965601205826,0.0057324012741446495
1782771606672505000,2.254505126953125,-0.078857421875,-0.0020258724689483643,0.00579281710088253
1782771606682514700,2.2645146484375,-0.08364582061767578,-0.011662233620882034,0.01064118929207325
1782771606692524300,2.274524169921875,-0.078857421875,0.005096524953842163,0.03216290846467018
1782771606702503700,2.284503662109375,-0.08603954315185547,-0.011657562106847763,0.015364661812782288
1782771606712513500,2.294513427734375,-0.09322261810302734,0.01467876136302948,-0.008517127484083176
1782771606722523100,2.304523193359375,-0.06928062438964844,-0.006869055330753326,-0.0012746881693601608
1782771606732502500,2.31450244140625,-0.09322261810302734,0.009950529783964157,0.005908239632844925
1782771606742512000,2.32451220703125,-0.09561729431152344,0.002887330949306488,0.0011797994375228882
1782771606752522000,2.33452197265625,-0.09801101684570312,0.002947412431240082,0.013210901990532875
1782771606762501400,2.34450146484375,-0.09322357177734375,0.0005533099174499512,0.01566525734961033
1782771606772511000,2.354510986328125,-0.07167530059814453,0.005401618778705597,0.01327105425298214
1782771606782520800,2.364520751953125,-0.08364677429199219,0.015086151659488678,0.010973338969051838
1782771606792500200,2.374500244140625,-0.10280036926269531,-0.0016731619834899902,0.0013968506827950478
1782771606802509800,2.384509765625,-0.07406997680664062,0.003104429692029953,0.018128955736756325
1782771606812519700,2.394519775390625,-0.08364677429199219,0.012546796351671219,0.008466038852930069
1782771606822498800,2.404498779296875,-0.0764627456665039,0.007682051509618759,0.01089154276996851
1782771606832508400,2.41450830078125,-0.06209754943847656,0.012511979788541794,0.0036258744075894356
1782771606842518300,2.424518310546875,-0.08843517303466797,0.0005849301815032959,0.003605043515563011
1782771606852497700,2.43449755859375,-0.08843421936035156,-0.0090518519282341,-0.001183043234050274
1782771606862507300,2.44450732421875,-0.08364582061767578,0.005313459783792496,0.013182485476136208
1782771606872517000,2.45451708984375,-0.08604049682617188,-0.004203110933303833,0.006060585379600525
1782771606882496500,2.46449658203125,-0.0812520980834961,-0.006537534296512604,0.008514324203133583
1782771606892506000,2.474506103515625,-0.0812520980834961,0.002979360520839691,0.010848614387214184
1782771606902516000,2.484515869140625,-0.08604049682617188,-0.001809045672416687,0.003725839778780937
1782771606912525600,2.494525634765625,-0.08364582061767578,0.0005250647664070129,0.01096853893250227
1782771606922504700,2.504504638671875,-0.10040473937988281,0.010042037814855576,-0.008125241845846176
1782771606932514600,2.5145146484375,-0.08843421936035156,-0.004263352602720261,0.0014512473717331886
1782771606942524400,2.5245244140625,-0.08843421936035156,0.002919144928455353,0.006299164146184921
1782771606952503600,2.534503662109375,-0.08364677429199219,0.007767844945192337,0.022999119013547897
1782771606962513400,2.544513427734375,-0.10040569305419922,-0.0018090605735778809,0.0014509866014122963
1782771606972523300,2.554523193359375,-0.09322357177734375,0.007827941328287125,0.013422314077615738
1782771606982502700,2.564502685546875,-0.08604049682617188,0.0030307620763778687,0.018126077950000763
1782771606992512300,2.57451220703125,-0.0812520980834961,0.005424965173006058,0.006155069917440414
1782771607002522000,2.584522216796875,-0.06928157806396484,0.000636562705039978,0.010943473316729069
1782771607012501200,2.594501220703125,-0.08843517303466797,-0.01133444532752037,0.0037608686834573746
1782771607022511000,2.604510986328125,-0.08604049682617188,0.003027111291885376,0.02055368572473526
1782771607032520700,2.614520751953125,-0.08364677429199219,-0.001701202243566513,0.0012798840180039406
1782771607042500000,2.6245,-0.08364677429199219,0.005416329950094223,0.02285490557551384
1782771607052510000,2.634510009765625,-0.08604049682617188,-0.006556261330842972,0.01802707649767399
1782771607062519600,2.64451953125,-0.09082889556884766,-0.00416155532002449,0.0012345537543296814
1782771607072499000,2.6544990234375,-0.09561729431152344,0.00302104651927948,0.003688851371407509
1782771607082508500,2.664508544921875,-0.0788583755493164,-0.006494123488664627,0.018137289211153984
1782771607092518400,2.674518310546875,-0.08604049682617188,-0.0040964968502521515,0.010862261988222599
1782771607102497500,2.68449755859375,-0.0836477279663086,-0.008877549320459366,0.010766539722681046
1782771607112507100,2.694507080078125,-0.10040664672851562,-0.006483346223831177,-0.00605278555303812
1782771607122517000,2.70451708984375,-0.08843612670898438,-0.004029233008623123,0.005858712829649448
1782771607132496400,2.714496337890625,-0.09322547912597656,-0.01115172728896141,0.01555570773780346
1782771607142506000,2.724506103515625,-0.09561824798583984,0.00566723570227623,0.008432436734437943
1782771607152515800,2.734515869140625,-0.08604240417480469,0.0057273320853710175,-0.001084277406334877
1782771607162525700,2.744525634765625,-0.10040760040283203,0.0009389296174049377,0.008492529392242432
1782771607172504800,2.7545048828125,-0.0812540054321289,0.015304140746593475,0.018009239807724953
1782771607182514700,2.7645146484375,-0.083648681640625,0.0033245980739593506,0.017910823225975037
1782771607192524500,2.774524658203125,-0.09801387786865234,0.01049400120973587,0.010690837167203426
1782771607202503700,2.784503662109375,-0.09322547912597656,-0.0014262311160564423,0.025017593055963516
1782771607212513500,2.794513427734375,-0.09561920166015625,0.003352440893650055,0.010613995604217052
1782771607222523100,2.804523193359375,-0.08843708038330078,0.01046813279390335,-0.00855417549610138
1782771607232502500,2.81450244140625,-0.08604240417480469,0.008013933897018433,0.0033570555970072746
1782771607242512100,2.82451220703125,-0.07886028289794922,0.0032852664589881897,-0.0014310330152511597
1782771607252522000,2.83452197265625,-0.08843803405761719,0.005739662796258926,0.005691793747246265
1782771607262501400,2.84450146484375,-0.10040760040283203,0.022481609135866165,0.010464695282280445
1782771607272511000,2.854510986328125,-0.09322547912597656,-0.0015202239155769348,-0.006294398568570614
1782771607282520800,2.864520751953125,-0.09322547912597656,-0.008642811328172684,0.00807144120335579
1782771607292500200,2.874500244140625,-0.09322643280029297,0.01775340735912323,0.015313826501369476
1782771607302509800,2.884509765625,-0.08843803405761719,-0.0014001093804836273,0.0009489282965660095
1782771607312519700,2.894519775390625,-0.10040760040283203,0.00817669928073883,0.005857521668076515
1782771607322498800,2.904498779296875,-0.10040760040283203,0.00817669928073883,-0.0037192851305007935
1782771607332508400,2.91450830078125,-0.09322643280029297,0.0010540075600147247,0.003463318571448326
1782771607342518300,2.924518310546875,-0.08843803405761719,0.0035081207752227783,0.025011450052261353
1782771607352497700,2.93449755859375,-0.0836496353149414,0.008333690464496613,0.013008199632167816
1782771607362507500,2.944507568359375,-0.0860443115234375,-0.005979869514703751,0.01538422703742981
1782771607372517000,2.95451708984375,-0.0884389877319336,0.006051216274499893,0.0034132227301597595
1782771607382496500,2.96449658203125,-0.08125591278076172,0.013331476598978043,0.01307629607617855
1782771607392506400,2.97450634765625,-0.09083271026611328,-0.00822513923048973,0.010660962201654911
1782771607402516000,2.984515869140625,-0.08365058898925781,0.0036748163402080536,0.01781267300248146
1782771607412525600,2.994525634765625,-0.08125591278076172,0.018027495592832565,-0.008598757907748222
1782771607422505000,3.0045048828125,-0.10040950775146484,-0.01309702917933464,0.0010381927713751793
1782771607432514600,3.0145146484375,-0.09322738647460938,0.0037223845720291138,0.017857830971479416
1782771607442524400,3.0245244140625,-0.07407379150390625,0.008510693907737732,0.008280713111162186
1782771607452503800,3.03450390625,-0.08365058898925781,0.006116587668657303,0.0011585205793380737
1782771607462513400,3.044513427734375,-0.0884389877319336,0.010904990136623383,0.003552722744643688
1782771607472523300,3.054523193359375,-0.0884389877319336,0.0013148263096809387,0.02028912678360939
1782771607482502700,3.064502685546875,-0.0860443115234375,0.006103236228227615,0.0035895472392439842
1782771607492512300,3.07451220703125,-0.06928539276123047,0.008542012423276901,0.010810223408043385
1782771607502522000,3.084522216796875,-0.08125591278076172,-0.0057633668184280396,0.008475854992866516
1782771607512501200,3.094501220703125,-0.10519886016845703,0.003921683877706528,0.018085043877363205
1782771607522510800,3.1045107421875,-0.08125591278076172,0.0038508474826812744,0.01326918788254261
1782771607532520700,3.114520751953125,-0.08125591278076172,-0.005735576152801514,0.025254972279071808
1782771607542500000,3.1245,-0.07646846771240234,0.0014399513602256775,0.006069177761673927
1782771607552509700,3.134509765625,-0.09322834014892578,-0.0009603090584278107,0.00843093916773796
1782771607562519600,3.14451953125,-0.07407474517822266,0.008607346564531326,0.010793368332087994
1782771607572499000,3.1544990234375,-0.08125686645507812,0.003927979618310928,0.010638278909027576
1782771607582508500,3.164508544921875,-0.08365249633789062,-0.0031433776021003723,0.008211653679609299
1782771607592518400,3.174518310546875,-0.0932302474975586,0.013668131083250046,0.010587157681584358
1782771607602497500,3.18449755859375,-0.08125877380371094,0.008867848664522171,0.010563693940639496
1782771607612507400,3.19450732421875,-0.10520076751708984,-0.0005892179906368256,-0.006255945190787315
1782771607622517000,3.20451708984375,-0.08844280242919922,0.018671080470085144,0.010488302446901798
1782771607632496400,3.214496337890625,-0.05731773376464844,0.011467207223176956,0.015251433476805687
1782771607642506200,3.22450634765625,-0.08604812622070312,0.0018756315112113953,0.003322322852909565
1782771607652515800,3.234515869140625,-0.07886505126953125,0.00897834450006485,0.01760086789727211
1782771607662525700,3.244525634765625,-0.07647132873535156,0.01857784017920494,0.02228199690580368
1782771607672505000,3.254505126953125,-0.09562492370605469,-0.007786288857460022,0.027009936049580574
1782771607682514700,3.2645146484375,-0.0908355712890625,0.0017683319747447968,0.005413919687271118
1782771607692524300,3.274524169921875,-0.08604812622070312,-0.0005821846425533295,0.007768677081912756
1782771607702503700,3.284503662109375,-0.09562397003173828,0.006524734199047089,0.005341570824384689
1782771607712513500,3.294513427734375,-0.08604717254638672,0.011296585202217102,0.002922006882727146
1782771607722523100,3.304523193359375,-0.08365345001220703,-0.0006303451955318451,0.019648592919111252
1782771607732502500,3.31450244140625,-0.093231201171875,-0.005429215729236603,0.010040286928415298
1782771607742512000,3.32451220703125,-0.08125877380371094,0.0040751174092292786,0.017181843519210815
1782771607752522000,3.33452197265625,-0.08844184875488281,0.013641215860843658,-0.009171257726848125
1782771607762501400,3.34450146484375,-0.07886600494384766,0.01128951832652092,0.012411601841449738
1782771607772511000,3.354510986328125,-0.09801864624023438,0.013592835515737534,0.02433597296476364
1782771607782520800,3.364520751953125,-0.08844184875488281,0.025463774800300598,0.00508231483399868
1782771607792500200,3.374500244140625,-0.07647037506103516,-0.012864150106906891,0.00744635472074151
1782771607802509800,3.384509765625,-0.08604717254638672,0.01111612468957901,0.0049672918394207954
1782771607812519700,3.394519775390625,-0.06928825378417969,0.001572873443365097,0.026468634605407715
1782771607822498800,3.404498779296875,-0.0932302474975586,-0.0008403845131397247,0.00967035535722971
1782771607832508400,3.41450830078125,-0.0908355712890625,0.0015939101576805115,0.019197940826416016
1782771607842518300,3.424518310546875,-0.093231201171875,0.006433580070734024,-0.009666074067354202
1782771607852497700,3.43449755859375,-0.093231201171875,0.00881483405828476,0.00946824811398983
1782771607862507300,3.44450732421875,-0.08125972747802734,0.015920795500278473,-0.0026372186839580536
1782771607872517000,3.45451708984375,-0.08125972747802734,0.01350228488445282,0.002133975736796856
1782771607882496500,3.46449658203125,-0.06928825378417969,0.02544121816754341,-0.01224038191139698
1782771607892506000,3.474506103515625,-0.08365345001220703,0.008653268218040466,0.004570448771119118
1782771607902516000,3.484515869140625,-0.08844184875488281,0.003833390772342682,0.01891709864139557
1782771607912525600,3.494525634765625,-0.08125877380371094,-0.0033667758107185364,0.011659763753414154
1782771607922504700,3.504504638671875,-0.06928825378417969,0.0014217197895050049,-0.005159197375178337
1782771607932514600,3.5145146484375,-0.06210517883300781,0.013431191444396973,0.011644529178738594
1782771607942524400,3.5245244140625,-0.09801864624023438,0.01812976971268654,0.011623911559581757
1782771607952444200,3.534444091796875,-0.09562301635742188,0.008461222052574158,0.009146447293460369
1782771607962574600,3.54457470703125,-0.07407569885253906,0.013209108263254166,0.018687991425395012
1782771607972523300,3.554523193359375,-0.09801864624023438,0.005995623767375946,0.0019033849239349365
1782771607982502700,3.564502685546875,-0.08604621887207031,-0.003658212721347809,-0.0005057454109191895
1782771607992452600,3.57445263671875,-0.08125782012939453,0.010736856609582901,0.01861683651804924
1782771608002583000,3.5845830078125,-0.08365345001220703,0.00599038228392601,-0.000492556020617485
1782771608012501200,3.594501220703125,-0.0884408950805664,-0.0011314526200294495,-0.005219939164817333
1782771608022510800,3.6045107421875,-0.08844184875488281,0.008564010262489319,0.0020815441384911537
1782771608032520700,3.614520751953125,-0.07407665252685547,0.015787359327077866,0.011645600199699402
1782771608042500000,3.6245,-0.08125877380371094,-0.01054869219660759,0.0020694201812148094
1782771608052509700,3.634509765625,-0.09562397003173828,0.01584744080901146,0.009252023883163929
1782771608062519600,3.64451953125,-0.07886505126953125,0.015847355127334595,-0.00750769954174757
1782771608072499000,3.6544990234375,-0.07647132873535156,-0.012822970747947693,0.013980019837617874
1782771608082508500,3.664508544921875,-0.0908365249633789,-0.0031863413751125336,-0.00032492075115442276
1782771608092518400,3.674518310546875,-0.09562492370605469,0.003936257213354111,0.002129688858985901
1782771608102497500,3.68449755859375,-0.093231201171875,0.02320953458547592,0.01170649565756321
1782771608112507400,3.69450732421875,-0.08365440368652344,-0.010309290140867233,0.01888910122215748
1782771608122517000,3.70451708984375,-0.07647132873535156,0.01362268254160881,0.01169351115822792
1782771608132496400,3.714496337890625,-0.07168292999267578,-0.0008026249706745148,-0.005125992000102997
1782771608142506200,3.72450634765625,-0.0908365249633789,0.006380148231983185,0.01396859623491764
1782771608152515800,3.734515869140625,-0.08604812622070312,-0.0031965747475624084,-0.005184704437851906
1782771608162525700,3.744525634765625,-0.07407760620117188,-0.00313664972782135,0.006786614190787077
1782771608172505000,3.754505126953125,-0.07647132873535156,0.025593683123588562,0.011574706062674522
1782771608182455300,3.764455322265625,-0.08604812622070312,0.004045862704515457,-0.00033665262162685394
1782771608192256500,3.774256591796875,-0.0908365249633789,0.020745370537042618,-0.005125056020915508
1782771608202534100,3.7845341796875,-0.08365440368652344,0.025504466146230698,0.004384053871035576
1782771608212513500,3.794513427734375,-0.08125972747802734,0.008713867515325546,0.006705208215862513
1782771608222463700,3.804463623046875,-0.07647132873535156,0.008681517094373703,0.013871054165065289
1782771608232186400,3.814186279296875,-0.08844280242919922,-0.0057096704840660095,0.009004018269479275
1782771608242512100,3.82451220703125,-0.0908365249633789,-0.0008631609380245209,0.008946680463850498
1782771608252522000,3.83452197265625,-0.08365440368652344,-0.000739268958568573,0.013734759762883186
1782771608262501400,3.84450146484375,-0.10520267486572266,0.0065030790865421295,-0.0173901729285717
1782771608272511000,3.854510986328125,-0.06450080871582031,0.0064431652426719666,0.008946046233177185
1782771608282520800,3.864520751953125,-0.09083747863769531,-0.003014061599969864,0.0017631305381655693
1782771608292500200,3.874500244140625,-0.08126068115234375,0.006562910974025726,0.0065521555952727795
1782771608302509800,3.884509765625,-0.08604907989501953,0.008957207202911377,0.020858028903603554
1782771608312519700,3.894519775390625,-0.08126068115234375,0.006502974778413773,-0.003083673305809498
1782771608322498800,3.904498779296875,-0.08365535736083984,-0.010196506977081299,0.008947473019361496
1782771608332508400,3.91450830078125,-0.07168388366699219,0.00895717367529869,0.01140190102159977
1782771608342518300,3.924518310546875,-0.08365535736083984,0.011351373046636581,0.006613498087972403
1782771608352497700,3.93449755859375,-0.08365535736083984,0.0017666257917881012,0.023358210921287537
1782771608362507500,3.944507568359375,-0.08126163482666016,0.0305267833173275,0.011356290429830551
1782771608372517000,3.95451708984375,-0.0716848373413086,-0.005342699587345123,0.004153397865593433
1782771608382496500,3.96449658203125,-0.07407951354980469,0.0042739734053611755,0.018428392708301544
1782771608392506400,3.97450634765625,-0.08126163482666016,0.0018601790070533752,0.013545055873692036
1782771608402516000,3.984515869140625,-0.0956268310546875,-0.005337890237569809,0.020683016628026962
1782771608412525600,3.994525634765625,-0.08605003356933594,-0.012525491416454315,0.011009607464075089
1782771608422505000,4.0045048828125,-0.08126163482666016,0.004227109253406525,0.006125911604613066
1782771608432514600,4.0145146484375,-0.07886791229248047,-0.010138757526874542,0.018057016655802727
1782771608442524400,4.0245244140625,-0.08126163482666016,0.013795319944620132,0.013229187577962875
1782771608452503800,4.03450390625,-0.08605003356933594,0.01366446167230606,-0.003554731607437134
1782771608462513400,4.044513427734375,-0.07647323608398438,0.0016214847564697266,0.015624139457941055
1782771608472523300,4.054523193359375,-0.08365631103515625,0.006457917392253876,0.006020038854330778
1782771608482502700,4.064502685546875,-0.09083843231201172,-0.017486728727817535,0.013173030689358711
1782771608492512300,4.07451220703125,-0.08365631103515625,0.0017819926142692566,0.0155841875821352
1782771608502522000,4.084522216796875,-0.08126163482666016,-0.014914534986019135,0.008315125480294228
1782771608512501200,4.094501220703125,-0.08605098724365234,0.001965068280696869,-0.006110178306698799
1782771608522451500,4.104451416015625,-0.08844566345214844,-0.0076712965965271,0.005861134734004736
1782771608532581600,4.11458154296875,-0.07647418975830078,-0.002822842448949814,0.008255958557128906
1782771608542440400,4.1244404296875,-0.08126354217529297,-0.00994497537612915,-0.003775123506784439
1782771608552297700,4.134297607421875,-0.10281085968017578,-0.0028217360377311707,-0.006109965965151787
1782771608562580700,4.144580810546875,-0.07886981964111328,0.006696470081806183,0.010532382875680923
1782771608572499000,4.1544990234375,-0.09083938598632812,-0.012518782168626785,0.015321429818868637
1782771608582508500,4.164508544921875,-0.10041618347167969,0.011423315852880478,-0.01586216874420643
1782771608592518400,4.174518310546875,-0.08365726470947266,0.01136321946978569,0.012868250720202923
1782771608602438100,4.184438232421875,-0.10281085968017578,0.006574895232915878,0.015322593972086906
1782771608612568300,4.194568359375,-0.08844566345214844,0.004180695861577988,0.0034113088622689247
1782771608622517000,4.20451708984375,-0.07407951354980469,0.004241243004798889,0.008321109227836132
1782771608632496400,4.214496337890625,-0.07886791229248047,0.01621241122484207,0.015444600954651833
1782771608642506000,4.224506103515625,-0.0692911148071289,-0.0005470030009746552,-0.010891617275774479
1782771608652515800,4.234515869140625,-0.09323310852050781,0.006575506180524826,-0.006103214807808399
1782771608662525700,4.244525634765625,-0.07886791229248047,0.016212232410907745,-0.008497104980051517
1782771608672504800,4.2545048828125,-0.09083938598632812,0.009089797735214233,0.008262616582214832
1782771608682514700,4.2645146484375,-0.0716848373413086,-0.005335062742233276,0.0010800128802657127
1782771608692524500,4.274524658203125,-0.07886791229248047,0.0018476247787475586,0.008262928575277328
1782771608702503700,4.284503662109375,-0.08365631103515625,0.00418207049369812,0.008263238705694675
1782771608712513500,4.294513427734375,-0.09083843231201172,0.0017280243337154388,-0.008555769920349121
1782771608722523100,4.304523193359375,-0.0740804672241211,0.006576351821422577,0.012992351315915585
1782771608732502500,4.31450244140625,-0.09323406219482422,0.013819035142660141,0.005749656353145838
1782771608742512000,4.32451220703125,-0.08365726470947266,-0.0006058104336261749,0.005809304770082235
1782771608752522000,4.33452197265625,-0.07886886596679688,0.023377660661935806,0.01764628104865551
1782771608762501400,4.34450146484375,-0.06689739227294922,0.011434495449066162,0.034307412803173065
1782771608772511000,4.354510986328125,-0.07886886596679688,0.018581755459308624,0.0007583042606711388
1782771608782520800,4.364520751953125,-0.08605098724365234,0.006579253822565079,0.0007940186187624931
1782771608792500200,4.374500244140625,-0.06929206848144531,-0.005353696644306183,0.012740442529320717
1782771608802509800,4.384509765625,-0.08126354217529297,0.004282757639884949,-0.008747723884880543
1782771608812519700,4.394519775390625,-0.062109947204589844,0.0018886402249336243,0.01040620170533657
1782771608822439200,4.404439208984375,-0.08126354217529297,-0.002839934080839157,0.01040620170533657
1782771608832174300,4.41417431640625,-0.06450462341308594,-0.0028399303555488586,-0.004018550738692284
1782771608842579200,4.4245791015625,-0.08126354217529297,0.009189210832118988,0.012740861624479294
1782771608852497700,4.43449755859375,-0.1004180908203125,0.006857533007860184,0.007889935746788979
1782771608862507300,4.44450732421875,-0.07647514343261719,0.0020097680389881134,0.015012949705123901
1782771608872517000,4.45451708984375,-0.0740823745727539,0.016413863748311996,0.010138649493455887
1782771608882496500,4.46449658203125,-0.08605194091796875,0.011611096560955048,0.0028826631605625153
1782771608892506000,4.474506103515625,-0.06929397583007812,0.0020342953503131866,0.0028227511793375015
1782771608902516000,4.484515869140625,-0.08605289459228516,-0.005148310214281082,0.007611154578626156
1782771608912525600,4.494525634765625,-0.09084129333496094,0.00920332595705986,0.014775009825825691
1782771608922504700,4.504504638671875,-0.06929302215576172,-0.0028873346745967865,0.0003499649465084076
1782771608932514600,4.5145146484375,-0.07647418975830078,0.004175353795289993,0.01238058041781187
1782771608942524400,4.5245244140625,-0.0980234146118164,0.00411561131477356,0.00513845169916749
1782771608952503600,4.534503662109375,-0.08844566345214844,0.016086701303720474,0.005198941100388765
1782771608962513400,4.544513427734375,-0.06689739227294922,0.0017213374376296997,-0.011501522734761238
1782771608972523300,4.554523193359375,-0.08126163482666016,0.027972165495157242,0.014879316091537476
1782771608982502700,4.564502685546875,-0.07407951354980469,0.0015162229537963867,0.00530250882729888
1782771608992512300,4.57451220703125,-0.08365631103515625,-0.0056064315140247345,-0.004333863966166973
1782771609002522000,4.584522216796875,-0.0956268310546875,0.013607122004032135,0.0029089124873280525
1782771609012501200,4.594501220703125,-0.07647418975830078,0.013667188584804535,0.010151581838726997
1782771609022510800,4.6045107421875,-0.08605003356933594,0.008819188922643661,0.0029692864045500755
1782771609032520700,4.614520751953125,-0.08126163482666016,0.008732844144105911,0.005468792747706175
1782771609042500000,4.6245,-0.08365631103515625,0.006370972841978073,0.010298112407326698
1782771609052509700,4.634509765625,-0.0956268310546875,-0.0007517151534557343,-0.0016728946939110756
1782771609062519600,4.64451953125,-0.08605003356933594,0.01840197667479515,-0.00640115886926651
1782771609072499000,4.6544990234375,-0.08365631103515625,-0.0007516369223594666,0.007964051328599453
1782771609082508500,4.664508544921875,-0.07886791229248047,0.004096336662769318,0.022388599812984467
1782771609092518400,4.674518310546875,-0.08844470977783203,-0.0006319768726825714,0.0009008832275867462
1782771609102497500,4.68449755859375,-0.08605003356933594,0.016115445643663406,0.015254903584718704
1782771609112507400,4.69450732421875,-0.07886886596679688,0.018543217331171036,0.008111558854579926
1782771609122517000,4.70451708984375,-0.08844566345214844,-0.003018997609615326,0.005823424551635981
1782771609132496400,4.714496337890625,-0.08365631103515625,0.011383850127458572,0.01783064752817154
1782771609142506000,4.724506103515625,-0.08844470977783203,0.006574802100658417,0.005957044195383787
1782771609152515800,4.734515869140625,-0.08126163482666016,0.001711726188659668,0.01072712242603302
1782771609162525700,4.744525634765625,-0.07886791229248047,0.004020411521196365,0.015536872670054436
1782771609172504800,4.7545048828125,-0.06450176239013672,-0.0007789619266986847,-0.0012385444715619087
1782771609182514700,4.7645146484375,-0.0956268310546875,0.013689927756786346,0.005867296364158392
1782771609192524500,4.774524658203125,-0.08126163482666016,0.0017087198793888092,0.008309056051075459
1782771609202503700,4.784503662109375,-0.08126163482666016,-0.0006854832172393799,-0.0036619529128074646
1782771609212513500,4.794513427734375,-0.09323310852050781,0.016178298741579056,0.017928937450051308
1782771609222523400,4.8045234375,-0.07647323608398438,0.0017280392348766327,0.013164849951863289
1782771609232502500,4.81450244140625,-0.08844470977783203,0.0017688721418380737,0.0036208806559443474
1782771609242512100,4.82451220703125,-0.08605003356933594,0.0064224787056446075,0.017900967970490456
1782771609252522000,4.83452197265625,-0.08365631103515625,-0.010349158197641373,0.013194166123867035
1782771609262501400,4.84450146484375,-0.06450271606445312,-0.007958941161632538,0.015558920800685883
1782771609272511000,4.854510986328125,-0.08605003356933594,-0.0007198303937911987,0.010920299217104912
1782771609282520800,4.864520751953125,-0.08126068115234375,0.011242292821407318,0.001374177634716034
1782771609292500200,4.874500244140625,-0.07886695861816406,0.008848022669553757,-0.005748647265136242
1782771609302509800,4.884509765625,-0.0692901611328125,-0.007970962673425674,-0.007963592186570168
1782771609312519700,4.894519775390625,-0.0908365249633789,0.01603115350008011,0.0016733082011342049
1782771609322498800,4.904498779296875,-0.10280799865722656,0.02315399795770645,0.008916058577597141
1782771609332508400,4.91450830078125,-0.08125972747802734,-0.012758847326040268,0.008916680701076984
1782771609342518300,4.924518310546875,-0.08125972747802734,-0.012818694114685059,-0.0006002923473715782
1782771609352497700,4.93449755859375,-0.07647132873535156,0.00633501261472702,0.013765230774879456
1782771609362507500,4.944507568359375,-0.08604812622070312,-0.0031821541488170624,0.006701922509819269
1782771609372517000,4.95451708984375,-0.0908365249633789,0.008788947016000748,0.004308034665882587
1782771609382496500,4.96449658203125,-0.09083747863769531,0.01363726332783699,0.013885153457522392
1782771609392506400,4.97450634765625,-0.09801959991455078,0.0040604546666145325,-0.00987713411450386
1782771609402516000,4.984515869140625,-0.0692892074584961,0.006514575332403183,0.01179065927863121
1782771609412525600,4.994525634765625,-0.07886600494384766,-0.0005478449165821075,0.002334039658308029
1782771609422505000,5.0045048828125,-0.08365440368652344,-0.007790278643369675,-0.0024543646723031998
1782771609432514600,5.0145146484375,-0.08604812622070312,-0.017367083579301834,0.01915336400270462
1782771609442524400,5.0245244140625,-0.0908365249633789,-0.0101843923330307,-0.007122714072465897
1782771609452503800,5.03450390625,-0.07886600494384766,-0.029337922111153603,0.007302904035896063
1782771609462513400,5.044513427734375,-0.0956258773803711,-0.007730457931756973,-0.0022739050909876823
1782771609472523300,5.054523193359375,-0.0692901611328125,0.018605846911668777,0.02412271872162819
1782771609482502700,5.064502685546875,-0.08604812622070312,-0.0006075985729694366,0.007363308686763048
1782771609492512300,5.07451220703125,-0.08604812622070312,0.018486108630895615,0.012271532788872719
1782771609502522000,5.084522216796875,-0.06689453125,-0.019821032881736755,0.0027548661455512047
1782771609512501200,5.094501220703125,-0.08604717254638672,0.023154500871896744,0.005269572138786316
1782771609522510800,5.1045107421875,-0.07886409759521484,0.020700640976428986,-0.00664178840816021
1782771609532461300,5.11446142578125,-0.07886505126953125,0.015972428023815155,0.0006012246012687683
1782771609542591500,5.124591552734375,-0.0908346176147461,-0.012817680835723877,0.007783517707139254
1782771609552450300,5.1344501953125,-0.08365154266357422,-0.01772746443748474,0.019815221428871155
1782771609562475500,5.1444755859375,-0.08843994140625,0.018126506358385086,0.0007206536829471588
1782771609572590300,5.15459033203125,-0.07646846771240234,0.027703408151865005,-0.0016732318326830864
1782771609582508500,5.164508544921875,-0.08365154266357422,-0.0010270066559314728,0.01041818130761385
1782771609592518400,5.174518310546875,-0.08365154266357422,0.010884452611207962,-0.008675886318087578
1782771609602497500,5.18449755859375,-0.08843994140625,0.006096143275499344,0.0033552655950188637
1782771609612507400,5.19450732421875,-0.06928539276123047,0.006096143275499344,0.0153861865401268
1782771609622517000,5.20451708984375,-0.07646751403808594,0.017993569374084473,0.005920427851378918
1782771609632496400,5.214496337890625,-0.0860433578491211,0.005932662636041641,0.015530980192124844
1782771609642506200,5.22450634765625,-0.07646656036376953,-0.006038345396518707,-0.008411035872995853
1782771609652515800,5.234515869140625,-0.07646656036376953,0.017820395529270172,0.015571891330182552
1782771609662525700,5.244525634765625,-0.07646656036376953,0.017849203199148178,0.003581642173230648
1782771609673668000,5.255668212890625,-0.0836496353149414,-0.006119765341281891,0.029938137158751488
1782771609692524500,5.274524658203125,-0.0812540054321289,-0.00135117769241333,-0.0010587163269519806
1782771609702503700,5.284503662109375,-0.08843708038330078,-0.013441655784845352,0.0013959472998976707
1782771609712513500,5.294513427734375,-0.07646560668945312,-0.01582993194460869,0.018185876309871674
1782771609722523400,5.3045234375,-0.08843612670898438,0.005660533905029297,0.010973506607115269
1782771609732502500,5.31450244140625,-0.07886028289794922,0.00817359983921051,0.008562987670302391
1782771609742512000,5.32451220703125,-0.09561920166015625,0.005719758570194244,-0.003348376601934433
1782771609752522000,5.33452197265625,-0.07167720794677734,0.005719859153032303,0.006288841366767883
1782771609762501400,5.34450146484375,-0.0788583755493164,-0.01828198879957199,0.006348669528961182
1782771609772511000,5.354510986328125,-0.09801197052001953,-0.023130206391215324,0.013651417568325996
1782771609782520800,5.364520751953125,-0.08604049682617188,0.0008237287402153015,0.013740377500653267
1782771609792500200,5.374500244140625,-0.08604145050048828,0.0008926019072532654,0.011373807676136494
1782771609802509800,5.384509765625,-0.0788583755493164,0.0008386708796024323,0.009013090282678604
1782771609812519700,5.394519775390625,-0.07646369934082031,0.010355379432439804,0.006678981706500053
1782771609822498800,5.404498779296875,-0.07406997680664062,-0.006403829902410507,0.002010873518884182
1782771609832508400,5.41450830078125,-0.08843421936035156,-0.02799900248646736,0.009293466806411743
1782771609842518300,5.424518310546875,-0.09322261810302734,-0.0016625821590423584,0.0021114954724907875
1782771609852497700,5.43449755859375,-0.0764627456665039,0.012704528868198395,0.023709867149591446
1782771609862507500,5.444507568359375,-0.09322261810302734,-0.008843183517456055,-0.002566389739513397
1782771609872517000,5.45451708984375,-0.0764627456665039,-0.006499897688627243,0.016622144728899002
1782771609882496500,5.46449658203125,-0.08843421936035156,-0.011277258396148682,0.004690645262598991
1782771609892506400,5.47450634765625,-0.09801101684570312,-0.02076610177755356,0.01913418062031269
1782771609902516000,5.484515869140625,-0.07406902313232422,-0.013554897159337997,-0.004775764420628548
1782771609912525600,5.494525634765625,-0.078857421875,-0.02547648549079895,0.026299037039279938
1782771609922505000,5.5045048828125,-0.08604049682617188,-0.0014451667666435242,0.012016993947327137
1782771609932514600,5.5145146484375,-0.0812520980834961,0.012937180697917938,0.014434751123189926
1782771609942524400,5.5245244140625,-0.09801197052001953,0.015397269278764725,0.014458324760198593
1782771609952503800,5.53450390625,-0.08604049682617188,0.010608792304992676,0.002521081827580929
1782771609962513400,5.544513427734375,-0.06928157806396484,-0.003695562481880188,0.0169757641851902
1782771609972463900,5.5544638671875,-0.09082889556884766,0.005879312753677368,0.014665206894278526
1782771609982594000,5.564593994140625,-0.0812520980834961,0.0059357620775699615,-0.0019947700202465057
1782771609992512300,5.57451220703125,-0.08364677429199219,0.012987565249204636,0.009948603808879852
1782771610002522000,5.584522216796875,-0.07646369934082031,0.0010673105716705322,0.01961223967373371
1782771610012501200,5.594501220703125,-0.08843517303466797,-0.003729589283466339,0.02434518374502659
1782771610022510800,5.6045107421875,-0.08603954315185547,0.005836017429828644,0.019676512107253075
1782771610032520700,5.614520751953125,-0.0812520980834961,0.020235970616340637,0.014762701466679573
1782771610042500000,5.6245,-0.0812520980834961,0.003510143607854843,0.021869871765375137
1782771610052509700,5.634509765625,-0.09801292419433594,-0.005964629352092743,0.016947448253631592
1782771610062519600,5.64451953125,-0.07646465301513672,0.0012025870382785797,0.012031258083879948
1782771610072499000,5.6544990234375,-0.08843708038330078,-0.005927540361881256,-0.007224775850772858
1782771610082508500,5.664508544921875,-0.07167720794677734,-0.017894651740789413,0.00949460081756115
1782771610092518400,5.674518310546875,-0.07407188415527344,-0.0010752789676189423,0.0023116813972592354
1782771610102497500,5.68449755859375,-0.07407283782958984,-0.005684100091457367,-0.00008251704275608063
1782771610112507400,5.69450732421875,-0.10519790649414062,-0.007958441972732544,0.009434720501303673
1782771610122517000,5.70451708984375,-0.09322738647460938,-0.005444411188364029,0.014223434031009674
1782771610132496400,5.714496337890625,-0.07407474517822266,0.011375099420547485,-0.007384477183222771
1782771610142506200,5.72450634765625,-0.09083366394042969,0.011375200003385544,0.00698104128241539
1782771610152515800,5.734515869140625,-0.0860452651977539,-0.00520382821559906,-0.002595452591776848
1782771610162525700,5.744525634765625,-0.07886314392089844,-0.0028096288442611694,0.0093755554407835
1782771610172505000,5.754505126953125,-0.08365249633789062,0.004493270069360733,0.006981663405895233
1782771610182514700,5.7645146484375,-0.09562397003173828,0.02616027742624283,0.01661781221628189
1782771610192524500,5.774524658203125,-0.059711456298828125,0.009321432560682297,0.011742752976715565
1782771610202503700,5.784503662109375,-0.08125877380371094,-0.009772345423698425,0.01180258858948946
1782771610212513500,5.794513427734375,-0.08604812622070312,-0.01922934502363205,0.004560073837637901
1782771610222463700,5.804463623046875,-0.0908365249633789,0.002378307282924652,0.016471251845359802
1782771610232305700,5.8143056640625,-0.06450080871582031,0.0048294588923454285,0.013994632288813591
1782771610242512100,5.82451220703125,-0.08365631103515625,0.01696813851594925,0.004399461671710014
1782771610252462600,5.834462646484375,-0.09323406219482422,0.01713571324944496,0.013951446861028671
1782771610262592800,5.8445927734375,-0.09323406219482422,-0.009150978177785873,0.0091389250010252
1782771610272511000,5.854510986328125,-0.09084033966064453,0.010046452283859253,0.016346601769328117
1782771610282520800,5.864520751953125,-0.08126354217529297,0.012476686388254166,0.006674118340015411
1782771610292500200,5.874500244140625,-0.07886981964111328,0.01018267497420311,0.016160394996404648
1782771610302450200,5.8844501953125,-0.0980234146118164,0.007760927081108093,0.0233544260263443
1782771610312338000,5.894337890625,-0.0980234146118164,0.010243643075227737,0.01851181872189045
1782771610322590500,5.904590576171875,-0.07887077331542969,0.000693589448928833,0.023169759660959244
1782771610332508400,5.91450830078125,-0.08126449584960938,-0.006389543414115906,0.01106863934546709
1782771610342518300,5.924518310546875,-0.08366012573242188,-0.0015556477010250092,0.01102073397487402
1782771610352497700,5.93449755859375,-0.08366012573242188,-0.006353601813316345,0.015693148598074913
1782771610362507300,5.94450732421875,-0.08366012573242188,0.029531870037317276,0.008516976609826088
1782771610372517000,5.95451708984375,-0.0764780044555664,0.015316169708967209,0.00601878110319376
1782771610382496500,5.96449658203125,-0.08126640319824219,-0.010977838188409805,0.006042588502168655
1782771610392506000,5.974506103515625,-0.07169055938720703,-0.013252127915620804,-0.005988027900457382
1782771610402516000,5.984515869140625,-0.08366203308105469,0.015465572476387024,0.010748169384896755
1782771610412525600,5.994525634765625,-0.0788736343383789,-0.008424829691648483,0.017899060621857643
1782771610422504700,6.004504638671875,-0.08845043182373047,0.005993876606225967,0.008303903043270111
1782771610432514600,6.0145146484375,-0.10281658172607422,0.0013763904571533203,0.015457739122211933
1782771610442524400,6.0245244140625,-0.0812692642211914,0.001424841582775116,0.015415755100548267
1782771610452503600,6.034503662109375,-0.10521125793457031,0.011168818920850754,0.00820225290954113
1782771610462513400,6.044513427734375,-0.09324169158935547,0.01851421594619751,0.0009391596540808678
1782771610472523300,6.054523193359375,-0.08127117156982422,-0.005379725247621536,0.005647794343531132
1782771610482502700,6.064502685546875,-0.0860605239868164,0.016334373503923416,0.005633185617625713
1782771610492512300,6.07451220703125,-0.0860605239868164,-0.009941846132278442,0.007967773824930191
1782771610502522000,6.084522216796875,-0.07887840270996094,-0.005033679306507111,0.007968062534928322
1782771610512501200,6.094501220703125,-0.08366870880126953,0.01657421886920929,0.0007253643125295639
1782771610522451500,6.104451416015625,-0.090850830078125,0.004663050174713135,0.005514354445040226
1782771610532581600,6.11458154296875,-0.08366775512695312,-0.009762067347764969,0.015151066705584526
1782771610542500000,6.1245,-0.0932455062866211,0.011906612664461136,-0.004062635824084282
1782771610552509700,6.134509765625,-0.09803390502929688,-0.019158372655510902,-0.004121894016861916
1782771610562519600,6.14451953125,-0.07648658752441406,-0.009521637111902237,-0.0016675721853971481
1782771610572499000,6.1544990234375,-0.07648658752441406,0.014540661126375198,0.007909528911113739
1782771610582508500,6.164508544921875,-0.07888221740722656,0.012265857309103012,-0.004001539200544357
1782771610592518400,6.174518310546875,-0.08127593994140625,0.0050833262503147125,0.007909668609499931
1782771610602497500,6.18449755859375,-0.08606433868408203,-0.023587260395288467,0.015092273242771626
1782771610612448000,6.194447998046875,-0.08367156982421875,-0.004313729703426361,-0.0016069421544671059
1782771610622578200,6.204578125,-0.07888317108154297,0.01729368045926094,0.01760626956820488
1782771610632436700,6.214436767578125,-0.07888317108154297,0.005383368581533432,0.0032410603016614914
1782771610642597600,6.22459765625,-0.0717010498046875,-0.02568220905959606,0.007970418781042099
1782771610652515800,6.234515869140625,-0.06451892852783203,-0.006467707455158234,0.024668946862220764
1782771610662525700,6.244525634765625,-0.08846092224121094,-0.0041276998817920685,0.012619012966752052
1782771610672504800,6.2545048828125,-0.07888317108154297,0.029383208602666855,0.014981192536652088
1782771610682514700,6.2645146484375,-0.08367252349853516,0.005491368472576141,0.00531618669629097
1782771610692524500,6.274524658203125,-0.0740957260131836,0.022232893854379654,0.0028381096199154854
1782771610702503700,6.284503662109375,-0.07888412475585938,0.010240085422992706,0.014779710210859776
1782771610712513500,6.294513427734375,-0.0956430435180664,-0.0064156316220760345,0.02186594344675541
1782771610722523100,6.304523193359375,-0.0764913558959961,-0.01108943298459053,0.00029933545738458633
1782771610732502500,6.31450244140625,-0.09803962707519531,0.0032158605754375458,0.007422418799251318
1782771610742512000,6.32451220703125,-0.08846282958984375,0.0008742101490497589,0.016910595819354057
1782771610752522000,6.33452197265625,-0.07888603210449219,0.036821044981479645,0.004909149371087551
1782771610762501400,6.34450146484375,-0.0764913558959961,0.02492155134677887,0.009596796706318855
1782771610772511000,6.354510986328125,-0.08128070831298828,0.001056186854839325,0.009435278363525867
1782771610782520800,6.364520751953125,-0.0788869857788086,0.0010841265320777893,0.007007115986198187
1782771610792500200,6.374500244140625,-0.07170295715332031,0.01775583252310753,0.00692331837490201
1782771610802509800,6.384509765625,-0.10043525695800781,0.005824703723192215,-0.007513747550547123
1782771610812519700,6.394519775390625,-0.07409954071044922,0.010588213801383972,0.009229524061083794
1782771610822498800,6.404498779296875,-0.078887939453125,0.013075541704893112,-0.0003604181110858917
1782771610832508400,6.41450830078125,-0.078887939453125,-0.0012895874679088593,-0.002754335291683674
1782771610842518300,6.424518310546875,-0.07170486450195312,-0.003623872995376587,0.02118796668946743
1782771610852497700,6.43449755859375,-0.09325313568115234,0.0060564689338207245,0.018652359023690224
1782771610862507300,6.44450732421875,-0.0788888931274414,0.020390205085277557,0.008986263535916805
1782771610872517000,6.45451708984375,-0.09564781188964844,-0.003458060324192047,0.01374039240181446
1782771610882496500,6.46449658203125,-0.08607101440429688,0.006093215197324753,0.004192523658275604
1782771610892506400,6.47450634765625,-0.11001300811767578,-0.010606195777654648,0.0018585165962576866
1782771610902516000,6.484515869140625,-0.0788888931274414,-0.012940481305122375,0.00676686828956008
1782771610912525600,6.494525634765625,-0.07649421691894531,0.008607335388660431,-0.0028700334951281548
1782771610922505000,6.5045048828125,-0.07410049438476562,0.0038788355886936188,0.0210722703486681
1782771610932514600,6.5145146484375,-0.07649421691894531,0.006273038685321808,-0.005263948813080788
1782771610942524400,6.5245244140625,-0.10043716430664062,-0.008032254874706268,0.016343979164958
1782771610952503800,6.53450390625,-0.07649612426757812,-0.012640371918678284,0.004372970201075077
1782771610962513400,6.544513427734375,-0.09564971923828125,0.0017845742404460907,0.0067078047432005405
1782771610972523300,6.554523193359375,-0.07170772552490234,-0.0076720379292964935,0.013890409842133522
1782771610982502700,6.564502685546875,-0.08367919921875,-0.019643045961856842,0.0067078047432005405
1782771610992512300,6.57451220703125,-0.08846855163574219,-0.021977335214614868,0.0018594879657030106
1782771611002522000,6.584522216796875,-0.08846855163574219,-0.012324601411819458,0.013753840699791908
1782771611012501200,6.594501220703125,-0.07889270782470703,0.026042789220809937,0.001723024994134903
1782771611022510800,6.6045107421875,-0.07649803161621094,0.006948910653591156,0.006571357604116201
1782771611032520700,6.614520751953125,-0.0860757827758789,-0.004901904612779617,0.011419855058193207
1782771611042500000,6.6245,-0.06931686401367188,-0.012024682015180588,0.006631451193243265
1782771611052509700,6.634509765625,-0.0860757827758789,-0.009630396962165833,0.0065718176774680614
1782771611062519600,6.64451953125,-0.0860757827758789,-0.007176194339990616,0.011360777541995049
1782771611072499000,6.6544990234375,-0.07889461517333984,0.0001266859471797943,0.00896685104817152
1782771611082508500,6.664508544921875,-0.0645294189453125,-0.00938357412815094,0.01613449864089489
1782771611092518400,6.674518310546875,-0.0884714126586914,-0.006929438561201096,-0.0029595764353871346
1782771611102497500,6.68449755859375,-0.08128833770751953,0.0027071870863437653,0.006497571710497141
1782771611112507400,6.69450732421875,-0.10044193267822266,0.0002530887722969055,0.01374044455587864
1782771611122517000,6.70451708984375,-0.09325981140136719,-0.011658180505037308,0.008952043019235134
1782771611132496400,6.714496337890625,-0.09804821014404297,-0.016435300931334496,0.011330217123031616
1782771611142506200,6.72450634765625,-0.07171249389648438,-0.009176474064588547,0.01375892385840416
1782771611152515800,6.734515869140625,-0.05734729766845703,0.0051470063626766205,0.004267023876309395
1782771611162525700,6.744525634765625,-0.08368396759033203,0.012449342757463455,0.009235021658241749
1782771611172505000,6.754505126953125,-0.10044288635253906,-0.02100924402475357,-0.00028117094188928604
1782771611182514700,6.7645146484375,-0.07171249389648438,0.0005386620759963989,-0.002675100229680538
1782771611192524500,6.774524658203125,-0.08847236633300781,-0.009038064628839493,0.01893305592238903
1782771611202503700,6.784503662109375,-0.08368396759033203,-0.0018448010087013245,0.016574669629335403
1782771611212513500,6.794513427734375,-0.08607769012451172,0.0005580000579357147,0.009486502967774868
1782771611222523400,6.8045234375,-0.0932607650756836,-0.004230402410030365,-0.000030472874641418457
1782771611232502500,6.81450244140625,-0.08368396759033203,-0.02097117155790329,0.01436738483607769
1782771611242512100,6.82451220703125,-0.066925048828125,-0.011252027004957199,0.004821485839784145
1782771611252522000,6.83452197265625,-0.08368492126464844,0.0031131766736507416,0.004881579428911209
1782771611262501400,6.84450146484375,-0.09326171875,-0.011251941323280334,0.0024876510724425316
1782771611272511000,6.854510986328125,-0.07889652252197266,0.008034806698560715,0.028786402195692062
1782771611282520800,6.864520751953125,-0.08368492126464844,0.015217415988445282,0.0025698496028780937
1782771611292500200,6.874500244140625,-0.08129024505615234,0.022400200366973877,-0.0020978208631277084
1782771611302509800,6.884509765625,-0.08847332000732422,0.00803498923778534,0.009873188100755215
1782771611312519700,6.894519775390625,-0.08129024505615234,0.005700882524251938,0.012327484786510468
1782771611322439200,6.904439208984375,-0.07410812377929688,-0.006270032376050949,-0.006825856864452362
1782771611332510000,6.914510009765625,-0.07650184631347656,0.008095178753137589,0.007539352867752314
1782771611342579200,6.9245791015625,-0.07889652252197266,0.008095178753137589,-0.004371508955955505
1782771611352497700,6.93449755859375,-0.0908670425415039,0.01054970920085907,0.00041689444333314896
1782771611362507500,6.944507568359375,-0.08847427368164062,0.0034264735877513885,0.010112535208463669
1782771611372517000,6.95451708984375,-0.0932626724243164,0.0010324642062187195,0.024478290230035782
1782771611382496500,6.96449658203125,-0.08847427368164062,-0.0013017281889915466,-0.004311420023441315
1782771611392506400,6.97450634765625,-0.0932626724243164,-0.015666840597987175,0.007719775196164846
1782771611402516000,6.984515869140625,-0.08847522735595703,-0.006030205637216568,0.010113975964486599
1782771611412525600,6.994525634765625,-0.07889652252197266,0.01785171777009964,-0.0065252454951405525
1782771611422505000,7.0045048828125,-0.09326171875,0.0010924004018306732,0.000717461109161377
1782771611432514600,7.0145146484375,-0.07410812377929688,-0.013332724571228027,-0.004070944152772427
1782771611442524400,7.0245244140625,-0.0956563949584961,-0.0036360733211040497,-0.0016163699328899384
1782771611452503800,7.03450390625,-0.08129119873046875,0.0012125186622142792,-0.0016161007806658745
1782771611462513400,7.044513427734375,-0.07411003112792969,0.02042577788233757,0.0008377525955438614
1782771611472523300,7.054523193359375,-0.07171440124511719,0.006000477820634842,0.0007776562124490738
1782771611482502700,7.064502685546875,-0.0932626724243164,-0.0011820383369922638,0.005626157857477665
1782771611492512300,7.07451220703125,-0.08368492126464844,0.006000664085149765,0.01286894828081131
1782771611502522000,7.084522216796875,-0.08368587493896484,0.0037263035774230957,0.005686885677278042
1782771611512501200,7.094501220703125,-0.11002159118652344,-0.015487218275666237,-0.0014951778575778008
1782771611522510800,7.1045107421875,-0.08368587493896484,0.006120242178440094,0.010475830174982548
1782771611532520700,7.114520751953125,-0.07650279998779297,-0.005910959094762802,0.0032929573208093643
1782771611542440400,7.1244404296875,-0.07410907745361328,0.001331482082605362,0.012929592281579971
1782771611552571000,7.13457080078125,-0.0956563949584961,0.010908383876085281,-0.011012155562639236
1782771611562519600,7.14451953125,-0.10044479370117188,0.0012711845338344574,0.005807642824947834
1782771611572499000,7.1544990234375,-0.07410907745361328,0.018030598759651184,-0.006043904460966587
1782771611582508500,7.164508544921875,-0.09086799621582031,0.0013309307396411896,0.013050325214862823
1782771611592518400,7.174518310546875,-0.08129119873046875,0.0013912171125411987,0.020353663712739944
1782771611602497500,7.18449755859375,-0.08847427368164062,0.010955799371004105,0.01800006814301014
1782771611612507400,7.19450732421875,-0.08847332000732422,0.010895986109972,-0.005821852013468742
1782771611622517000,7.20451708984375,-0.08607864379882812,-0.008257634937763214,-0.005702191963791847
1782771611632496400,7.214496337890625,-0.09326171875,-0.003469228744506836,0.0039347093552351
1782771611642506000,7.224506103515625,-0.05016613006591797,0.013230625540018082,0.008842676877975464
1782771611652515800,7.234515869140625,0.4119148254394531,-0.01543949730694294,0.02554253675043583
1782771611662525700,7.244525634765625,0.08635616302490234,-0.012071195989847183,0.01466473750770092
1782771611672504800,7.2545048828125,-0.22728252410888672,0.009365160018205643,-0.0019495487213134766
1782771611682514700,7.2645146484375,-0.11953926086425781,0.009010706096887589,0.00353301502764225
1782771611692524500,7.274524658203125,-0.08362579345703125,0.008890867233276367,0.03234776481986046
1782771611702503700,7.284503662109375,-0.09320449829101562,-0.00768643245100975,0.020395781844854355
1782771611712513500,7.294513427734375,-0.1554555892944336,0.004644535481929779,0.010724149644374847
1782771611722523100,7.304523193359375,-0.11715221405029297,0.0027856118977069855,0.0005868226289749146
1782771611732502500,7.31450244140625,-0.24644851684570312,0.01577838882803917,-0.02737165428698063
1782771611742512000,7.32451220703125,0.20603656768798828,-0.02050066739320755,0.03836232051253319
1782771611752522000,7.33452197265625,-0.07889842987060547,-0.010133020579814911,0.030259091407060623
