time,seconds_elapsed,z,y,x
1782772228072489500,0.209489501953125,0,0.015882495790719986,0.00733038317412138
1782772228083065900,0.22006591796875,0,0.015882495790719986,0.00733038317412138
1782772228093058800,0.230058837890625,0,0.015882495790719986,0.00733038317412138
1782772228103085300,0.240085205078125,0,0.015882495790719986,0.00733038317412138
1782772228113048000,0.250048095703125,0,0.0012217304902151227,-0.00427605677396059
1782772228123074300,0.26007421875,-0.001832595793530345,0.0012217304902151227,-0.0006108652451075613
1782772228133067500,0.270067626953125,-0.0006108652451075613,0.0012217304902151227,0
1782772228143063600,0.2800634765625,-0.0006108652451075613,0.0006108652451075613,0
1782772228153056500,0.290056396484375,0.0006108652451075613,0,-0.0006108652451075613
1782772228163088100,0.300088134765625,-0.0012217304902151227,0.0006108652451075613,0
1782772228173045500,0.31004541015625,0,0.0006108652451075613,0.0006108652451075613
1782772228183077000,0.3200771484375,-0.0006108652451075613,0.0006108652451075613,0.0006108652451075613
1782772228193065200,0.330065185546875,-0.0006108652451075613,0.0006108652451075613,-0.0006108652451075613
1782772228203066400,0.34006640625,0,0,0.0006108652451075613
1782772228213054000,0.350053955078125,-0.0006108652451075613,0,0
1782772228223085800,0.3600859375,-0.0006108652451075613,0.0006108652451075613,-0.0006108652451075613
1782772228233043200,0.370043212890625,-0.0006108652451075613,0,0
1782772228243074000,0.380073974609375,-0.0012217304902151227,0,0.0006108652451075613
1782772228253062700,0.390062744140625,-0.0006108652451075613,-0.0006108652451075613,0
1782772228263063800,0.400063720703125,-0.001832595793530345,0,-0.0006108652451075613
1782772228273051600,0.4100517578125,0,0.0006108652451075613,0.0006108652451075613
1782772228283083300,0.420083251953125,0,0,0
1782772228293040600,0.43004052734375,-0.0012217304902151227,-0.0006108652451075613,-0.0006108652451075613
1782772228303072300,0.440072265625,0,0.0006108652451075613,0
1782772228313060000,0.45006005859375,-0.0006108652451075613,0,-0.0006108652451075613
1782772228323061500,0.4600615234375,-0.0006108652451075613,0.0006108652451075613,-0.0012217304902151227
1782772228333049000,0.470049072265625,-0.0006108652451075613,0,-0.0006108652451075613
1782772228343080700,0.480080810546875,0,0.0006108652451075613,0.0006108652451075613
1782772228353068800,0.49006884765625,-0.0006108652451075613,0,-0.0006108652451075613
1782772228363069700,0.500069580078125,-0.0012217304902151227,0,0
1782772228373057800,0.510057861328125,-0.0012217304902151227,-0.0006108652451075613,0
1782772228383089400,0.52008935546875,-0.0006108652451075613,0.0006108652451075613,0
1782772228393046800,0.530046875,0,0,-0.0006108652451075613
1782772228403078400,0.540078369140625,-0.0006108652451075613,0,0.0006108652451075613
1782772228413066200,0.550066162109375,-0.0012217304902151227,0.0006108652451075613,0
1782772228423067400,0.5600673828125,-0.0006108652451075613,0,0.0006108652451075613
1782772228433055200,0.57005517578125,0,0.0012217304902151227,-0.0006108652451075613
1782772228443086800,0.5800869140625,-0.0006108652451075613,0.0006108652451075613,0.0006108652451075613
1782772228453044200,0.590044189453125,-0.0006108652451075613,-0.0006108652451075613,0
1782772228463099000,0.600098876953125,0,-0.0006108652451075613,-0.0006108652451075613
1782772228473064000,0.61006396484375,-0.0006108652451075613,0,0.0012217304902151227
1782772228483065000,0.620065185546875,-0.0006108652451075613,0.0006108652451075613,0
1782772228493053000,0.630052978515625,0.0006108652451075613,-0.0006108652451075613,-0.001832595793530345
1782772228503084000,0.640083984375,0,-0.0006108652451075613,-0.0006108652451075613
1782772228513041700,0.650041748046875,0,-0.0006108652451075613,0
1782772228523073500,0.660073486328125,-0.0012217304902151227,0,0
1782772228533061400,0.670061279296875,-0.0012217304902151227,0.0006108652451075613,-0.0006108652451075613
1782772228543062500,0.6800625,-0.0012217304902151227,0.0006108652451075613,-0.0006108652451075613
1782772228553050400,0.69005029296875,-0.0012217304902151227,0.0006108652451075613,0
1782772228563082000,0.70008203125,-0.0012217304902151227,0,-0.0012217304902151227
1782772228573039600,0.71003955078125,-0.0006108652451075613,0.0006108652451075613,-0.0012217304902151227
1782772228583071200,0.7200712890625,-0.0006108652451075613,0,0
1782772228593059000,0.73005908203125,-0.0006108652451075613,0,0
1782772228603090700,0.740090576171875,-0.001832595793530345,0,-0.0006108652451075613
1782772228613047800,0.7500478515625,-0.0012217304902151227,0.0012217304902151227,0
1782772228623079400,0.760079345703125,-0.0006108652451075613,0.0006108652451075613,0
1782772228633067500,0.770067626953125,-0.0006108652451075613,0.0006108652451075613,0
1782772228643068700,0.780068603515625,-0.0006108652451075613,0,0
1782772228653056500,0.790056396484375,-0.0006108652451075613,0,0.0012217304902151227
1782772228663088000,0.800088134765625,0,0,0.0006108652451075613
1782772228673045800,0.810045654296875,-0.0006108652451075613,0.0006108652451075613,0.0006108652451075613
1782772228683077400,0.820077392578125,-0.0012217304902151227,-0.0006108652451075613,0.0006108652451075613
1782772228693065000,0.83006494140625,-0.0006108652451075613,0,0
1782772228703065600,0.840065673828125,-0.0006108652451075613,0,0
1782772228713054000,0.850053955078125,0,0.0006108652451075613,-0.0006108652451075613
1782772228723085800,0.8600859375,-0.0006108652451075613,0,0
1782772228733043200,0.870043212890625,-0.0006108652451075613,0,-0.0006108652451075613
1782772228743074300,0.88007421875,-0.0006108652451075613,0.0006108652451075613,0
1782772228753062700,0.890062744140625,-0.0006108652451075613,0,0.0006108652451075613
1782772228763063800,0.900063720703125,0,0,0
1782772228773051600,0.9100517578125,-0.0012217304902151227,0,0
1782772228783083300,0.920083251953125,0,0,-0.0006108652451075613
1782772228793040600,0.93004052734375,-0.0006108652451075613,0.0006108652451075613,0
1782772228803072300,0.940072265625,-0.0006108652451075613,-0.0006108652451075613,-0.0012217304902151227
1782772228813060000,0.95006005859375,-0.0006108652451075613,0,0
1782772228823060200,0.960060302734375,-0.0006108652451075613,0,0.0006108652451075613
1782772228833048800,0.970048828125,0,0,0
1782772228843080400,0.98008056640625,-0.0006108652451075613,0.0006108652451075613,-0.0006108652451075613
1782772228853068300,0.990068359375,-0.0006108652451075613,0.0006108652451075613,0
1782772228863069400,1.0000693359375,-0.0006108652451075613,0,0
1782772228873057000,1.01005712890625,-0.0006108652451075613,0,-0.0006108652451075613
1782772228883089200,1.020089111328125,-0.0012217304902151227,-0.0006108652451075613,-0.0006108652451075613
1782772228893046300,1.03004638671875,-0.0012217304902151227,-0.0006108652451075613,0
1782772228903078000,1.040077880859375,-0.0012217304902151227,0.0006108652451075613,0
1782772228913065700,1.050065673828125,-0.0006108652451075613,0,-0.0006108652451075613
1782772228923067400,1.0600673828125,-0.0012217304902151227,0,0
1782772228933055200,1.07005517578125,-0.0006108652451075613,0.0006108652451075613,0.0006108652451075613
1782772228943086800,1.0800869140625,-0.0006108652451075613,0,0.0006108652451075613
1782772228953044500,1.09004443359375,-0.0012217304902151227,0.0006108652451075613,0
1782772228963075300,1.100075439453125,-0.0006108652451075613,0.0006108652451075613,-0.0012217304902151227
1782772228973064000,1.11006396484375,0,0.0006108652451075613,0
1782772228983064300,1.120064208984375,0.0006108652451075613,0,0
1782772228993053000,1.130052978515625,-0.0012217304902151227,0.0012217304902151227,0.0006108652451075613
1782772229003084300,1.140084228515625,-0.0006108652451075613,0,-0.0006108652451075613
1782772229013041700,1.150041748046875,-0.0006108652451075613,-0.0006108652451075613,0
1782772229023073500,1.160073486328125,-0.0012217304902151227,0,0
1782772229033061400,1.170061279296875,-0.0006108652451075613,0,0
1782772229043062000,1.18006201171875,-0.0006108652451075613,0,-0.0006108652451075613
1782772229053050400,1.19005029296875,0,0.0006108652451075613,0
1782772229063081500,1.20008154296875,-0.0012217304902151227,-0.0006108652451075613,0.0006108652451075613
1782772229073039400,1.210039306640625,-0.0012217304902151227,0.0006108652451075613,0.0006108652451075613
1782772229083071000,1.220071044921875,-0.0006108652451075613,0.0012217304902151227,0
1782772229093058800,1.230058837890625,-0.0006108652451075613,0.0006108652451075613,0
1782772229103090700,1.240090576171875,-0.0006108652451075613,0,0.0006108652451075613
1782772229113047800,1.2500478515625,-0.0012217304902151227,0,0
1782772229123080000,1.260079833984375,-0.0006108652451075613,0,-0.0012217304902151227
1782772229133067500,1.270067626953125,-0.0006108652451075613,0,0
1782772229143082200,1.280082275390625,-0.0006108652451075613,0.0006108652451075613,-0.0006108652451075613
1782772229153056500,1.290056396484375,-0.0006108652451075613,0.0006108652451075613,0.0006108652451075613
1782772229163082800,1.300082763671875,-0.0006108652451075613,0,0
1782772229173045500,1.31004541015625,-0.0012217304902151227,0.0006108652451075613,0
1782772229183072000,1.320072021484375,-0.0012217304902151227,0.0006108652451075613,0.0006108652451075613
1782772229193065000,1.33006494140625,0,0,0
1782772229203061000,1.34006103515625,-0.0006108652451075613,0,-0.0006108652451075613
1782772229213054000,1.350053955078125,0,0,0
1782772229223080400,1.36008056640625,-0.0006108652451075613,0,0.0012217304902151227
1782772229233043000,1.37004296875,-0.0012217304902151227,0.0006108652451075613,0.0006108652451075613
1782772229243074600,1.380074462890625,-0.0006108652451075613,0,0
1782772229253062700,1.390062744140625,-0.0006108652451075613,0.0012217304902151227,-0.0006108652451075613
1782772229263063600,1.4000634765625,0.0006108652451075613,0,0
1782772229273051600,1.4100517578125,-0.0006108652451075613,0.0006108652451075613,-0.0006108652451075613
1782772229283082800,1.420082763671875,-0.0012217304902151227,-0.0006108652451075613,-0.0006108652451075613
1782772229293040600,1.43004052734375,-0.0006108652451075613,0.0012217304902151227,-0.0006108652451075613
1782772229303072300,1.440072265625,-0.0006108652451075613,-0.0006108652451075613,-0.0006108652451075613
1782772229313060000,1.45006005859375,-0.0006108652451075613,0,0
1782772229323061200,1.460061279296875,-0.0012217304902151227,0,0
1782772229333049000,1.470049072265625,0,0.0006108652451075613,0.0006108652451075613
1782772229343080700,1.480080810546875,-0.0006108652451075613,0.0006108652451075613,-0.0012217304902151227
1782772229353068800,1.49006884765625,-0.0006108652451075613,0,0.0006108652451075613
1782772229363069700,1.500069580078125,0,0.0006108652451075613,-0.0006108652451075613
1782772229373057800,1.510057861328125,-0.0006108652451075613,0,0
1782772229383089400,1.52008935546875,-0.001832595793530345,-0.0006108652451075613,-0.0006108652451075613
1782772229393046800,1.530046875,0,0.0006108652451075613,0.0006108652451075613
1782772229403078400,1.540078369140625,0,0,0
1782772229413066200,1.550066162109375,0,0.0006108652451075613,0.0006108652451075613
1782772229423067100,1.560067138671875,-0.0012217304902151227,0,-0.0006108652451075613
1782772229433055200,1.57005517578125,-0.0006108652451075613,0.0006108652451075613,-0.0006108652451075613
1782772229443087000,1.580087158203125,-0.0012217304902151227,0.0006108652451075613,0.0006108652451075613
1782772229453044200,1.590044189453125,-0.0006108652451075613,-0.0006108652451075613,0.0006108652451075613
1782772229463075800,1.600075927734375,-0.0012217304902151227,0,0
1782772229473064000,1.61006396484375,-0.0012217304902151227,0.0006108652451075613,-0.0006108652451075613
1782772229483065000,1.620065185546875,-0.0006108652451075613,0,-0.0006108652451075613
1782772229493053000,1.630052978515625,-0.0006108652451075613,0,0
1782772229503084500,1.64008447265625,0,0.0006108652451075613,0.0006108652451075613
1782772229513042000,1.6500419921875,-0.0006108652451075613,-0.0006108652451075613,0
1782772229523073800,1.66007373046875,-0.0006108652451075613,0.0006108652451075613,0.0006108652451075613
1782772229533061400,1.670061279296875,-0.0006108652451075613,-0.0006108652451075613,0
1782772229543062500,1.6800625,0,0,0.0006108652451075613
1782772229553050400,1.69005029296875,0,0,0
1782772229563082200,1.700082275390625,-0.0006108652451075613,0,-0.0012217304902151227
1782772229573039600,1.71003955078125,-0.0012217304902151227,-0.0006108652451075613,0
1782772229583071200,1.7200712890625,0,0.0006108652451075613,0
1782772229593058800,1.730058837890625,-0.0006108652451075613,0,-0.0006108652451075613
1782772229603090700,1.740090576171875,-0.0006108652451075613,0.0006108652451075613,-0.0012217304902151227
1782772229613047800,1.7500478515625,0,0,0
1782772229623080000,1.760079833984375,-0.0006108652451075613,0.0006108652451075613,-0.0006108652451075613
1782772229633067500,1.770067626953125,-0.0006108652451075613,0,0
1782772229643068700,1.780068603515625,-0.0006108652451075613,0.0006108652451075613,-0.0006108652451075613
1782772229653056500,1.790056396484375,-0.0012217304902151227,0,0
1782772229663087600,1.800087646484375,-0.0012217304902151227,0,0
1782772229673045500,1.81004541015625,-0.0012217304902151227,-0.0006108652451075613,0
1782772229683076900,1.820076904296875,0,-0.0006108652451075613,0
1782772229693065200,1.830065185546875,-0.0006108652451075613,0,0
1782772229703066400,1.84006640625,-0.0012217304902151227,0,-0.0006108652451075613
1782772229713054000,1.850053955078125,-0.0006108652451075613,0.0006108652451075613,0
1782772229723085800,1.8600859375,-0.0012217304902151227,0.0006108652451075613,0
1782772229733043200,1.870043212890625,-0.0006108652451075613,0,0.0006108652451075613
1782772229743074600,1.880074462890625,-0.0006108652451075613,0.0006108652451075613,0
1782772229753062700,1.890062744140625,-0.0006108652451075613,0,0
1782772229763063800,1.900063720703125,-0.0006108652451075613,0.0006108652451075613,0
1782772229773051400,1.910051513671875,0,0.0012217304902151227,-0.0006108652451075613
1782772229783083300,1.920083251953125,0.0006108652451075613,0,0.0006108652451075613
1782772229793040600,1.93004052734375,-0.0012217304902151227,0,-0.0006108652451075613
1782772229803072500,1.940072509765625,0,0,0
1782772229813060400,1.950060302734375,-0.0012217304902151227,0,-0.0006108652451075613
1782772229823060200,1.960060302734375,-0.0006108652451075613,0,0
1782772229833048600,1.970048583984375,-0.0012217304902151227,0.0006108652451075613,0.0006108652451075613
1782772229843080200,1.980080078125,0,0,-0.0012217304902151227
1782772229853068300,1.990068359375,-0.0006108652451075613,-0.0006108652451075613,0
1782772229863069400,2.0000693359375,0,0.0006108652451075613,-0.0006108652451075613
1782772229873057300,2.010057373046875,0,0,-0.0006108652451075613
1782772229883089200,2.020089111328125,-0.0012217304902151227,0,0
1782772229893046300,2.03004638671875,0,0.0012217304902151227,0
1782772229903078000,2.040077880859375,0,0,0
1782772229913065700,2.050065673828125,-0.0012217304902151227,0.0006108652451075613,-0.0006108652451075613
1782772229923067400,2.0600673828125,-0.0006108652451075613,0,0
1782772229933055200,2.07005517578125,-0.0012217304902151227,0,0
1782772229943087000,2.080087158203125,-0.0006108652451075613,0,0
1782772229953044200,2.090044189453125,-0.0006108652451075613,-0.0006108652451075613,-0.0006108652451075613
1782772229963076000,2.100076171875,-0.0012217304902151227,0.0006108652451075613,0
1782772229973064000,2.11006396484375,-0.0012217304902151227,0.0006108652451075613,0.0006108652451075613
1782772229983064800,2.12006494140625,-0.0012217304902151227,0,0.0012217304902151227
1782772229993053000,2.130052978515625,-0.0006108652451075613,0,-0.0006108652451075613
1782772230003084500,2.14008447265625,0,0,-0.0006108652451075613
1782772230013041700,2.150041748046875,-0.0006108652451075613,0,-0.0006108652451075613
1782772230023073500,2.160073486328125,-0.0012217304902151227,0,0
1782772230033061400,2.170061279296875,0,0.0006108652451075613,0
1782772230043062500,2.1800625,-0.0012217304902151227,-0.0006108652451075613,-0.0006108652451075613
1782772230053050400,2.19005029296875,-0.0006108652451075613,-0.0006108652451075613,0
1782772230063082000,2.20008203125,-0.0012217304902151227,-0.0006108652451075613,0.0006108652451075613
1782772230073039600,2.21003955078125,-0.0006108652451075613,0.0012217304902151227,-0.0006108652451075613
1782772230083071000,2.220071044921875,-0.0012217304902151227,-0.0006108652451075613,0
1782772230093058800,2.230058837890625,-0.0006108652451075613,0,-0.0012217304902151227
1782772230103090700,2.240090576171875,-0.0006108652451075613,0,-0.0012217304902151227
1782772230113047800,2.2500478515625,0.0006108652451075613,0,0
1782772230123079200,2.2600791015625,-0.0006108652451075613,-0.0012217304902151227,-0.0006108652451075613
1782772230133067500,2.270067626953125,-0.0006108652451075613,0.0006108652451075613,-0.0006108652451075613
1782772230143068400,2.280068359375,-0.0012217304902151227,0.0006108652451075613,-0.0012217304902151227
1782772230153056500,2.290056396484375,-0.0006108652451075613,0.0006108652451075613,0
1782772230163088100,2.300088134765625,-0.0006108652451075613,0,0
1782772230173045800,2.310045654296875,0,0,0
1782772230183077000,2.3200771484375,0,0.0006108652451075613,0.0006108652451075613
1782772230193065000,2.33006494140625,-0.001832595793530345,-0.0006108652451075613,0
1782772230203066400,2.34006640625,0,0,-0.0006108652451075613
1782772230213054000,2.350053955078125,-0.0012217304902151227,0.0006108652451075613,-0.0006108652451075613
1782772230223099400,2.360099365234375,0,0.0006108652451075613,0
1782772230233043200,2.370043212890625,-0.0006108652451075613,-0.0006108652451075613,0.0012217304902151227
1782772230243069400,2.3800693359375,0,0.0006108652451075613,-0.0006108652451075613
1782772230253062700,2.390062744140625,0,-0.0006108652451075613,-0.0012217304902151227
1782772230263058700,2.40005859375,0,0.0006108652451075613,0
1782772230273051600,2.4100517578125,-0.0006108652451075613,0,0.0006108652451075613
1782772230283078000,2.420077880859375,0.0006108652451075613,0,-0.0006108652451075613
1782772230293040600,2.43004052734375,0,0.0006108652451075613,-0.0006108652451075613
1782772230303067000,2.44006689453125,-0.0006108652451075613,0.0006108652451075613,0
1782772230313060000,2.45006005859375,0.0006108652451075613,0,0
1782772230323061200,2.460061279296875,-0.0006108652451075613,0.0006108652451075613,0
1782772230333049000,2.470049072265625,0,0,-0.0006108652451075613
1782772230343080700,2.480080810546875,0,0.0006108652451075613,0
1782772230353068800,2.49006884765625,0.0006108652451075613,-0.0006108652451075613,0
1782772230363070000,2.500070068359375,-0.0006108652451075613,0.0006108652451075613,0
1782772230373057800,2.510057861328125,-0.0006108652451075613,0.0006108652451075613,0
1782772230383089400,2.52008935546875,0,0.0006108652451075613,-0.0006108652451075613
1782772230393046800,2.530046875,0.0012217304902151227,0.0012217304902151227,0
1782772230403078100,2.540078125,0.0006108652451075613,-0.0006108652451075613,-0.001832595793530345
1782772230413066200,2.550066162109375,0,0.0006108652451075613,0
1782772230423067400,2.5600673828125,0,0.0006108652451075613,-0.0012217304902151227
1782772230433055200,2.57005517578125,0,0.0006108652451075613,0
1782772230443087000,2.580087158203125,0,0,-0.0012217304902151227
1782772230453044200,2.590044189453125,-0.0006108652451075613,0.0006108652451075613,0
1782772230463098600,2.6000986328125,-0.0006108652451075613,0.0006108652451075613,0.0006108652451075613
1782772230473064000,2.61006396484375,0,0.0006108652451075613,0
1782772230483065000,2.620065185546875,0,0,-0.0006108652451075613
1782772230493053000,2.630052978515625,0,0.0006108652451075613,-0.0006108652451075613
1782772230503084500,2.64008447265625,0,0.0006108652451075613,0
1782772230513041700,2.650041748046875,0,0,-0.0006108652451075613
1782772230523073800,2.66007373046875,0,0.0006108652451075613,0
1782772230533061400,2.670061279296875,0,-0.0012217304902151227,0.0006108652451075613
1782772230543062300,2.680062255859375,0,0.0006108652451075613,0.0006108652451075613
1782772230553050400,2.69005029296875,0.0006108652451075613,0.0012217304902151227,-0.0012217304902151227
1782772230563082000,2.70008203125,-0.0012217304902151227,0,-0.0006108652451075613
1782772230573039400,2.710039306640625,0,-0.0006108652451075613,0
1782772230583071200,2.7200712890625,0,0.0006108652451075613,0
1782772230593059000,2.73005908203125,-0.0012217304902151227,0,0.0006108652451075613
1782772230603090400,2.74009033203125,0,0,0
1782772230613047800,2.7500478515625,0,0.0006108652451075613,0.0006108652451075613
1782772230623079400,2.760079345703125,0,-0.0006108652451075613,-0.0006108652451075613
1782772230633067500,2.770067626953125,0,-0.0006108652451075613,0.0006108652451075613
1782772230643068400,2.780068359375,0,0.0006108652451075613,0.0012217304902151227
1782772230653056500,2.790056396484375,0,0.0006108652451075613,0
1782772230663088000,2.800088134765625,0.0012217304902151227,-0.0006108652451075613,-0.0006108652451075613
1782772230673045500,2.81004541015625,0,0.0006108652451075613,0
1782772230683077400,2.820077392578125,-0.0006108652451075613,0,-0.0006108652451075613
1782772230693065000,2.83006494140625,0,0.0012217304902151227,0.0006108652451075613
1782772230703065900,2.84006591796875,0,0.0006108652451075613,-0.0006108652451075613
1782772230713054000,2.850053955078125,0.0006108652451075613,0,0.0012217304902151227
1782772230723086000,2.860086181640625,0.0006108652451075613,0.0006108652451075613,0
1782772230733043200,2.870043212890625,0,0.0012217304902151227,0
1782772230743074600,2.880074462890625,-0.0006108652451075613,0,-0.0006108652451075613
1782772230753062700,2.890062744140625,-0.0006108652451075613,-0.0006108652451075613,0
1782772230763063800,2.900063720703125,0,0,-0.0006108652451075613
1782772230773051600,2.9100517578125,-0.0006108652451075613,0,-0.0006108652451075613
1782772230783083300,2.920083251953125,-0.0012217304902151227,0.0006108652451075613,-0.0006108652451075613
1782772230793040600,2.93004052734375,-0.0006108652451075613,-0.0006108652451075613,0
1782772230803072300,2.940072265625,0,0,-0.0006108652451075613
1782772230813060000,2.95006005859375,0,0.0006108652451075613,0
1782772230823060200,2.960060302734375,-0.0012217304902151227,0.0006108652451075613,-0.0006108652451075613
1782772230833048800,2.970048828125,-0.0006108652451075613,0.0006108652451075613,0.0006108652451075613
1782772230843080200,2.980080078125,-0.0006108652451075613,-0.0006108652451075613,0
1782772230853068000,2.990068115234375,0.0006108652451075613,0,0
1782772230863069400,3.0000693359375,0,0,-0.0012217304902151227
1782772230873057000,3.01005712890625,0,-0.0006108652451075613,0
1782772230883089000,3.0200888671875,0,-0.0006108652451075613,-0.0006108652451075613
1782772230893046300,3.03004638671875,0,-0.0006108652451075613,-0.0006108652451075613
1782772230903078000,3.040077880859375,-0.0012217304902151227,0,0.0006108652451075613
1782772230913065700,3.050065673828125,-0.0006108652451075613,-0.0006108652451075613,0
1782772230923067600,3.060067626953125,0.0006108652451075613,0,0
1782772230933055200,3.07005517578125,-0.0006108652451075613,0,-0.0006108652451075613
1782772230943086800,3.0800869140625,-0.0006108652451075613,0,0
1782772230953044200,3.090044189453125,-0.0006108652451075613,0,0.0006108652451075613
1782772230963075800,3.100075927734375,0.0006108652451075613,-0.0006108652451075613,0
1782772230973064000,3.11006396484375,0.0006108652451075613,0,0.0012217304902151227
1782772230983064800,3.12006494140625,0,0,0
1782772230993053000,3.130052978515625,0,0,0
1782772231003084500,3.14008447265625,0,-0.0006108652451075613,0.0006108652451075613
1782772231013041700,3.150041748046875,0,0.0006108652451075613,0
1782772231023073500,3.160073486328125,0,0.0006108652451075613,-0.0006108652451075613
1782772231033061400,3.170061279296875,0,-0.0006108652451075613,-0.0012217304902151227
1782772231043062500,3.1800625,0,0.0012217304902151227,-0.0006108652451075613
1782772231053050400,3.19005029296875,0,0.0006108652451075613,-0.0006108652451075613
1782772231063082000,3.20008203125,0,0.0006108652451075613,-0.0012217304902151227
1782772231073039600,3.21003955078125,0,0.0006108652451075613,0
1782772231083071200,3.2200712890625,0,0,0.0006108652451075613
1782772231093058800,3.230058837890625,0,0.0006108652451075613,0
1782772231103090700,3.240090576171875,-0.0006108652451075613,0,-0.0006108652451075613
1782772231113048000,3.250048095703125,0,0,0.0006108652451075613
1782772231123079700,3.26007958984375,0,0,0
1782772231133067500,3.270067626953125,0.0006108652451075613,0.0006108652451075613,0
1782772231143068400,3.280068359375,0.0006108652451075613,0,0
1782772231153056500,3.290056396484375,-0.0006108652451075613,-0.0006108652451075613,-0.0006108652451075613
1782772231163088100,3.300088134765625,0,0,0
1782772231173045500,3.31004541015625,-0.0006108652451075613,0.0006108652451075613,0
1782772231183077000,3.3200771484375,0.0006108652451075613,0,0
1782772231193065200,3.330065185546875,0,0,0.0006108652451075613
1782772231203066000,3.340066162109375,0,0,-0.0006108652451075613
1782772231213054000,3.350053955078125,0,0,-0.0006108652451075613
1782772231223085600,3.36008544921875,0.0006108652451075613,0,0
1782772231233043000,3.37004296875,0,0.0006108652451075613,0
1782772231243074600,3.380074462890625,0,0,0
1782772231253062700,3.390062744140625,0.0006108652451075613,0,0
1782772231263063800,3.400063720703125,0.0006108652451075613,0,-0.0006108652451075613
1782772231273051600,3.4100517578125,0,0,-0.0006108652451075613
1782772231283083300,3.420083251953125,0,0,0
1782772231293000400,3.43000048828125,0,0,-0.0006108652451075613
1782772231303147000,3.44014697265625,0.0006108652451075613,0.0006108652451075613,0
1782772231313060000,3.45006005859375,0,0.0012217304902151227,0
1782772231323056000,3.46005615234375,0,0,-0.0006108652451075613
1782772231333049000,3.470049072265625,0,0,0.0006108652451075613
1782772231343075600,3.48007568359375,0,0,-0.0006108652451075613
1782772231353068800,3.49006884765625,0,0.0006108652451075613,-0.0006108652451075613
1782772231363064000,3.50006396484375,0.0006108652451075613,0.0006108652451075613,-0.0006108652451075613
1782772231373057800,3.510057861328125,0,0,0
1782772231383084300,3.520084228515625,0.0006108652451075613,-0.0006108652451075613,0.0006108652451075613
1782772231393046800,3.530046875,-0.0006108652451075613,-0.0006108652451075613,0.0006108652451075613
1782772231403078400,3.540078369140625,0.0006108652451075613,0.0012217304902151227,0
1782772231413066200,3.550066162109375,0,0,0
1782772231423067400,3.5600673828125,-0.0006108652451075613,0.0006108652451075613,-0.0006108652451075613
1782772231433055200,3.57005517578125,0.0006108652451075613,0,-0.0006108652451075613
1782772231443086800,3.5800869140625,0,-0.0006108652451075613,0
1782772231453044200,3.590044189453125,-0.0006108652451075613,-0.0006108652451075613,0
1782772231463075300,3.600075439453125,0,0,0
1782772231473064000,3.61006396484375,-0.0006108652451075613,0,0
1782772231483064300,3.620064208984375,0,0,0
1782772231493053000,3.630052978515625,0.0006108652451075613,0,-0.0006108652451075613
1782772231503084500,3.64008447265625,-0.0006108652451075613,0,-0.0006108652451075613
1782772231513041700,3.650041748046875,0.0006108652451075613,0,0
1782772231523073500,3.660073486328125,0.0006108652451075613,0,-0.0006108652451075613
1782772231533061400,3.670061279296875,0,0,-0.0006108652451075613
1782772231543062500,3.6800625,0,-0.0006108652451075613,-0.0006108652451075613
1782772231553050400,3.69005029296875,0.0006108652451075613,-0.0006108652451075613,0
1782772231563082000,3.70008203125,0.0012217304902151227,0,0.0006108652451075613
1782772231573039400,3.710039306640625,0.0006108652451075613,0,-0.0006108652451075613
1782772231583071200,3.7200712890625,0,0.0006108652451075613,-0.0012217304902151227
1782772231593058800,3.730058837890625,0.0012217304902151227,0.0012217304902151227,0.0012217304902151227
1782772231603090700,3.740090576171875,-0.0006108652451075613,0,-0.0006108652451075613
1782772231613048000,3.750048095703125,0.0006108652451075613,0.0006108652451075613,-0.0006108652451075613
1782772231623079700,3.76007958984375,-0.0006108652451075613,-0.0006108652451075613,-0.0006108652451075613
1782772231633067500,3.770067626953125,0.0012217304902151227,-0.0006108652451075613,0
1782772231643068700,3.780068603515625,0,0.0006108652451075613,-0.0012217304902151227
1782772231653056500,3.790056396484375,0.0012217304902151227,-0.0006108652451075613,0.0006108652451075613
1782772231663087900,3.800087890625,0,0.0006108652451075613,0
1782772231673045800,3.810045654296875,0.0006108652451075613,0.0006108652451075613,-0.0006108652451075613
1782772231683077000,3.8200771484375,0,0,-0.0006108652451075613
1782772231693065000,3.83006494140625,0,0,0.0006108652451075613
1782772231703066000,3.840066162109375,0,-0.0006108652451075613,0.0006108652451075613
1782772231713054000,3.850053955078125,0.0006108652451075613,0,-0.0006108652451075613
1782772231723085800,3.8600859375,0.0006108652451075613,0.0012217304902151227,0
1782772231733043200,3.870043212890625,0.0006108652451075613,-0.0006108652451075613,0.0006108652451075613
1782772231743074600,3.880074462890625,0,0,0
1782772231753062700,3.890062744140625,0.0006108652451075613,0,-0.0006108652451075613
1782772231763063800,3.900063720703125,0.0006108652451075613,0,-0.0006108652451075613
1782772231773051600,3.9100517578125,-0.0006108652451075613,0,-0.0006108652451075613
1782772231783083300,3.920083251953125,0.0006108652451075613,0,-0.0006108652451075613
1782772231793040600,3.93004052734375,0.0006108652451075613,0,0.0006108652451075613
1782772231803071700,3.94007177734375,0.0006108652451075613,-0.0006108652451075613,0
1782772231813060000,3.95006005859375,0.0006108652451075613,0,-0.0012217304902151227
1782772231823060200,3.960060302734375,0,0,0
1782772231833048600,3.970048583984375,0.0006108652451075613,0.0006108652451075613,-0.0006108652451075613
1782772231843079700,3.98007958984375,0,0.0006108652451075613,-0.0012217304902151227
1782772231853068300,3.990068359375,0.0006108652451075613,0.0006108652451075613,0
1782772231863069400,4.0000693359375,0,0,0
1782772231873057000,4.01005712890625,0,0.0006108652451075613,0
1782772231883089000,4.0200888671875,0,0.0006108652451075613,0
1782772231893046300,4.03004638671875,0,0,0
1782772231903077600,4.04007763671875,0,0.0006108652451075613,-0.0012217304902151227
1782772231913065700,4.050065673828125,0,-0.0006108652451075613,0
1782772231923067400,4.0600673828125,0.0006108652451075613,0,0
1782772231933055200,4.07005517578125,0.0006108652451075613,0,0
1782772231943086800,4.0800869140625,0,0,-0.0006108652451075613
1782772231953044200,4.090044189453125,0.0006108652451075613,0,0
1782772231963076000,4.100076171875,0.0006108652451075613,0,-0.0006108652451075613
1782772231973064000,4.11006396484375,0.0012217304902151227,0.0006108652451075613,0
1782772231983065000,4.120065185546875,0,-0.0006108652451075613,0.0006108652451075613
1782772231993053000,4.130052978515625,0.0006108652451075613,0.0006108652451075613,-0.0012217304902151227
1782772232003084500,4.14008447265625,0,0.0006108652451075613,0
1782772232013041700,4.150041748046875,-0.0006108652451075613,0,-0.0006108652451075613
1782772232023073500,4.160073486328125,0,0,-0.0006108652451075613
1782772232033061400,4.170061279296875,0,0,-0.0006108652451075613
1782772232043062000,4.18006201171875,0.0006108652451075613,0.0006108652451075613,0.0006108652451075613
1782772232053050400,4.19005029296875,0,0,0
1782772232063082000,4.20008203125,-0.0006108652451075613,0,0
1782772232073039600,4.21003955078125,-0.0006108652451075613,0,0
1782772232083071000,4.220071044921875,0,0,-0.0012217304902151227
1782772232093059000,4.23005908203125,0,0.0006108652451075613,-0.0006108652451075613
1782772232103090700,4.240090576171875,0.0006108652451075613,0,-0.0006108652451075613
1782772232113047800,4.2500478515625,0.0006108652451075613,0,0
1782772232123079700,4.26007958984375,0,0,0.0006108652451075613
1782772232133067500,4.270067626953125,0.0012217304902151227,0.0006108652451075613,0
1782772232143068400,4.280068359375,0.0006108652451075613,0.0012217304902151227,-0.0006108652451075613
1782772232153056500,4.290056396484375,-0.0006108652451075613,0,-0.0006108652451075613
1782772232163088100,4.300088134765625,0,-0.0006108652451075613,-0.0006108652451075613
1782772232173045500,4.31004541015625,0.0006108652451075613,0,-0.0006108652451075613
1782772232183076600,4.32007666015625,0.0006108652451075613,0.0006108652451075613,-0.0006108652451075613
1782772232193065000,4.33006494140625,0.0006108652451075613,0,-0.0006108652451075613
1782772232203066400,4.34006640625,0,0.001832595793530345,0.0006108652451075613
1782772232213054000,4.350053955078125,0,0.0006108652451075613,0
1782772232223085800,4.3600859375,0,0.0012217304902151227,-0.0006108652451075613
1782772232233043000,4.37004296875,-0.0006108652451075613,0,0.0006108652451075613
1782772232243074600,4.380074462890625,0,0,0
1782772232253062700,4.390062744140625,0.0006108652451075613,0,-0.0006108652451075613
1782772232263032300,4.4000322265625,0.0006108652451075613,0,0.0006108652451075613
1782772232273112800,4.41011279296875,0,0.0006108652451075613,0
1782772232283051800,4.4200517578125,0,0.0006108652451075613,-0.0006108652451075613
1782772232293132300,4.43013232421875,-0.0006108652451075613,0.0006108652451075613,0.0012217304902151227
1782772232303072300,4.440072265625,-0.0006108652451075613,0.0006108652451075613,0
1782772232313060000,4.45006005859375,0,0,-0.0006108652451075613
1782772232323061200,4.460061279296875,0.0006108652451075613,-0.0006108652451075613,-0.0006108652451075613
1782772232333049000,4.470049072265625,-0.0006108652451075613,0,0.0006108652451075613
1782772232343080700,4.480080810546875,0.0012217304902151227,0,-0.0006108652451075613
1782772232353068800,4.49006884765625,0.0012217304902151227,0,0
1782772232363070000,4.500070068359375,0,0,0.0006108652451075613
1782772232373057800,4.510057861328125,0.0012217304902151227,0,0
1782772232383103200,4.520103271484375,-0.0006108652451075613,0.0006108652451075613,0.0006108652451075613
1782772232393046800,4.530046875,-0.0006108652451075613,-0.0006108652451075613,0.0006108652451075613
1782772232403073000,4.540072998046875,0,0,0.0006108652451075613
1782772232413066200,4.550066162109375,0,0.0006108652451075613,0
1782772232423061800,4.560061767578125,-0.0012217304902151227,0.0006108652451075613,-0.0006108652451075613
1782772232433015300,4.570015380859375,0,0.0006108652451075613,0.0006108652451075613
1782772232443662300,4.580662353515625,0.0006108652451075613,0.0006108652451075613,-0.0006108652451075613
1782772232463091700,4.600091796875,0,0.0006108652451075613,0.0012217304902151227
1782772232473064000,4.61006396484375,-0.0006108652451075613,0,-0.0012217304902151227
1782772232483033600,4.62003369140625,0.0006108652451075613,0,0
1782772232493114000,4.630114013671875,-0.0006108652451075613,0.0006108652451075613,0
1782772232503084000,4.640083984375,-0.0012217304902151227,0,0
1782772232513042000,4.6500419921875,0,-0.0006108652451075613,0
1782772232523073500,4.660073486328125,-0.0006108652451075613,0.0012217304902151227,-0.0006108652451075613
1782772232533021400,4.670021484375,0,0.0006108652451075613,0
1782772232543154200,4.680154296875,-0.001832595793530345,0.0006108652451075613,0.0012217304902151227
1782772232553050400,4.69005029296875,-0.0012217304902151227,0.0006108652451075613,0.0006108652451075613
1782772232563082000,4.70008203125,0,0.0006108652451075613,-0.0012217304902151227
1782772232573039600,4.71003955078125,-0.0006108652451075613,0.0006108652451075613,0
1782772232583071200,4.7200712890625,-0.0006108652451075613,0,0
1782772232593058800,4.730058837890625,0,0,0.0006108652451075613
1782772232603090700,4.740090576171875,-0.0006108652451075613,0,0
1782772232613047800,4.7500478515625,-0.0012217304902151227,0,0
1782772232623079700,4.76007958984375,-0.0006108652451075613,0,-0.0006108652451075613
1782772232633067500,4.770067626953125,-0.0012217304902151227,0.0006108652451075613,0
1782772232644445700,4.78144580078125,0.0006108652451075613,0.0006108652451075613,-0.0006108652451075613
1782772232663088000,4.800088134765625,-0.0006108652451075613,0.0006108652451075613,0.0006108652451075613
1782772232673045500,4.81004541015625,-0.0006108652451075613,0,0.0006108652451075613
1782772232683077000,4.8200771484375,0,0.0006108652451075613,-0.0006108652451075613
1782772232693065200,4.830065185546875,-0.0006108652451075613,0,-0.0006108652451075613
1782772232703065600,4.840065673828125,-0.0012217304902151227,0,0
1782772232713054000,4.850053955078125,0,0.0006108652451075613,0
1782772232723085800,4.8600859375,0,0,-0.0006108652451075613
1782772232733043200,4.870043212890625,-0.0012217304902151227,0.0012217304902151227,0
1782772232743074000,4.880073974609375,-0.0006108652451075613,0,0
1782772232753062700,4.890062744140625,0,0.0006108652451075613,-0.0006108652451075613
1782772232763063800,4.900063720703125,-0.0006108652451075613,0.0006108652451075613,0.0006108652451075613
1782772232773051600,4.9100517578125,0,0.0006108652451075613,0
1782772232783083300,4.920083251953125,-0.0012217304902151227,0,0
1782772232793040600,4.93004052734375,0,0,-0.0006108652451075613
1782772232803072500,4.940072509765625,-0.0006108652451075613,0.0012217304902151227,-0.0012217304902151227
1782772232813060000,4.95006005859375,-0.0012217304902151227,0,-0.0006108652451075613
1782772232823060500,4.960060546875,-0.0006108652451075613,0.0006108652451075613,0.0006108652451075613
1782772232833048800,4.970048828125,-0.0006108652451075613,0.0006108652451075613,-0.0006108652451075613
1782772232843080400,4.98008056640625,-0.0012217304902151227,-0.0006108652451075613,-0.0006108652451075613
1782772232853068000,4.990068115234375,-0.0012217304902151227,0,0.0006108652451075613
1782772232863069200,5.000069091796875,-0.0012217304902151227,0.0006108652451075613,0.0006108652451075613
1782772232873057300,5.010057373046875,0,0.0006108652451075613,0
1782772232883058000,5.020057861328125,-0.0006108652451075613,0,0
1782772232893137700,5.0301376953125,0,-0.0006108652451075613,0.0006108652451075613
1782772232903077600,5.04007763671875,-0.0006108652451075613,0,-0.0012217304902151227
1782772232913065700,5.050065673828125,-0.0012217304902151227,0,-0.0006108652451075613
1782772232923067600,5.060067626953125,-0.0012217304902151227,0,0
1782772232933055200,5.07005517578125,-0.0006108652451075613,0.0006108652451075613,0
1782772232943087000,5.080087158203125,-0.0012217304902151227,0,0
1782772232953044200,5.090044189453125,0,0,0
1782772232963075800,5.100075927734375,0.0006108652451075613,0,0.0006108652451075613
1782772232973064000,5.11006396484375,-0.0012217304902151227,0.0006108652451075613,-0.0012217304902151227
1782772232983065000,5.120065185546875,-0.0006108652451075613,0,-0.0006108652451075613
1782772232993053000,5.130052978515625,0,0.0012217304902151227,0.0006108652451075613
1782772233003084300,5.140084228515625,0.0006108652451075613,0.0006108652451075613,-0.0006108652451075613
1782772233013042000,5.1500419921875,0,0.0006108652451075613,0.0006108652451075613
1782772233023073300,5.1600732421875,0,0.0012217304902151227,-0.0006108652451075613
1782772233033061400,5.170061279296875,0.0006108652451075613,0,0
1782772233043062500,5.1800625,0,0.0006108652451075613,0.0006108652451075613
1782772233053050400,5.19005029296875,0,0.0012217304902151227,0.0006108652451075613
1782772233063081200,5.200081298828125,0,0,0.0006108652451075613
1782772233073039400,5.210039306640625,0.0006108652451075613,0.0006108652451075613,0.0006108652451075613
1782772233083071000,5.220071044921875,-0.0006108652451075613,0.0006108652451075613,-0.0006108652451075613
1782772233093058800,5.230058837890625,-0.0006108652451075613,0,-0.0006108652451075613
1782772233103090200,5.240090087890625,-0.0006108652451075613,0.0006108652451075613,0.0006108652451075613
1782772233113048000,5.250048095703125,-0.0006108652451075613,0,0
1782772233123079700,5.26007958984375,0,0,-0.001832595793530345
1782772233133067500,5.270067626953125,-0.0006108652451075613,0.0006108652451075613,0.0006108652451075613
1782772233143068000,5.28006787109375,0,0.0006108652451075613,0
1782772233153056500,5.290056396484375,-0.0006108652451075613,0.0006108652451075613,0.0006108652451075613
1782772233163088100,5.300088134765625,-0.0012217304902151227,0.0006108652451075613,0
1782772233173045500,5.31004541015625,-0.0006108652451075613,0,0
1782772233183077400,5.320077392578125,-0.0006108652451075613,0.0006108652451075613,-0.0006108652451075613
1782772233193065200,5.330065185546875,-0.0012217304902151227,0.0012217304902151227,-0.0006108652451075613
1782772233203066000,5.340066162109375,-0.0012217304902151227,0,-0.0006108652451075613
1782772233213054000,5.350053955078125,-0.0006108652451075613,0,0
1782772233223085800,5.3600859375,-0.0006108652451075613,0.0012217304902151227,0
1782772233233043200,5.370043212890625,-0.0012217304902151227,0.0006108652451075613,0
1782772233243074000,5.380073974609375,0,0,0
1782772233253062700,5.390062744140625,-0.0006108652451075613,0,0.0006108652451075613
1782772233263063600,5.4000634765625,-0.0006108652451075613,0,-0.0006108652451075613
1782772233273051600,5.4100517578125,0,0,0.0006108652451075613
1782772233283083300,5.420083251953125,0,0.0012217304902151227,0.0006108652451075613
1782772233293040600,5.43004052734375,-0.0006108652451075613,0,0.0006108652451075613
1782772233303072300,5.440072265625,-0.0006108652451075613,0.0012217304902151227,0
1782772233313060000,5.45006005859375,0,0,0
1782772233323060700,5.460060791015625,-0.0006108652451075613,0,-0.0006108652451075613
1782772233333049000,5.470049072265625,-0.0006108652451075613,0,0
1782772233343080700,5.480080810546875,0,0.0006108652451075613,-0.0006108652451075613
1782772233353028900,5.49002880859375,-0.0012217304902151227,0,-0.0006108652451075613
1782772233363581400,5.50058154296875,0,0,0.0006108652451075613
1782772233383089400,5.52008935546875,-0.0006108652451075613,0.0006108652451075613,0
1782772233393046800,5.530046875,-0.0006108652451075613,0,-0.0006108652451075613
1782772233403078700,5.54007861328125,-0.0012217304902151227,0.001832595793530345,0
1782772233413066200,5.550066162109375,0,0.0012217304902151227,0
1782772233423067100,5.560067138671875,0,0.0006108652451075613,0.0006108652451075613
1782772233433055200,5.57005517578125,0.0012217304902151227,0,0.0006108652451075613
1782772233443086600,5.580086669921875,-0.0006108652451075613,0,-0.0006108652451075613
1782772233453044200,5.590044189453125,0,0.0012217304902151227,0
1782772233463089700,5.600089599609375,0,0,-0.0006108652451075613
1782772233473064000,5.61006396484375,-0.0006108652451075613,0.0006108652451075613,-0.0012217304902151227
1782772233483060000,5.62006005859375,0,0,-0.0006108652451075613
1782772233493053000,5.630052978515625,0,-0.0006108652451075613,-0.0006108652451075613
1782772233503079400,5.640079345703125,0,0,0
1782772233513041700,5.650041748046875,-0.0006108652451075613,0.0006108652451075613,0
1782772233523068200,5.660068115234375,0.0006108652451075613,0.0006108652451075613,0
1782772233533021400,5.670021484375,0,0,-0.0006108652451075613
1782772233543148800,5.680148681640625,-0.0006108652451075613,0.0006108652451075613,-0.0006108652451075613
1782772233553050400,5.69005029296875,0,0,-0.0006108652451075613
1782772233563082000,5.70008203125,-0.0006108652451075613,0,-0.0012217304902151227
1782772233573039400,5.710039306640625,-0.0006108652451075613,0,-0.0006108652451075613
1782772233583071200,5.7200712890625,0,0,-0.0012217304902151227
1782772233593059000,5.73005908203125,-0.0012217304902151227,0,-0.001832595793530345
1782772233603090200,5.740090087890625,-0.0006108652451075613,0,-0.0012217304902151227
1782772233613047800,5.7500478515625,-0.0012217304902151227,0,-0.0012217304902151227
1782772233623079700,5.76007958984375,-0.0006108652451075613,0,-0.0012217304902151227
1782772233633067500,5.770067626953125,-0.0006108652451075613,-0.0006108652451075613,-0.0006108652451075613
1782772233643068700,5.780068603515625,-0.001832595793530345,0,-0.0012217304902151227
1782772233653056500,5.790056396484375,-0.0006108652451075613,0,-0.001832595793530345
1782772233663088000,5.800088134765625,-0.0012217304902151227,-0.0006108652451075613,-0.0006108652451075613
1782772233673045500,5.81004541015625,-0.0006108652451075613,0.0006108652451075613,-0.0012217304902151227
1782772233683077000,5.8200771484375,-0.0012217304902151227,0.0012217304902151227,0
1782772233693065000,5.83006494140625,-0.0006108652451075613,0.0006108652451075613,-0.0006108652451075613
1782772233703066400,5.84006640625,0,-0.0006108652451075613,0
1782772233713054000,5.850053955078125,-0.0006108652451075613,0,-0.0012217304902151227
1782772233723085800,5.8600859375,0,0,-0.0006108652451075613
1782772233733043200,5.870043212890625,-0.0012217304902151227,0.0012217304902151227,-0.0006108652451075613
1782772233743074600,5.880074462890625,0,-0.0006108652451075613,-0.0012217304902151227
1782772233753062700,5.890062744140625,0,0.0012217304902151227,-0.0006108652451075613
1782772233763063600,5.9000634765625,0,0,-0.0006108652451075613
1782772233773051600,5.9100517578125,-0.0006108652451075613,0.0006108652451075613,-0.0012217304902151227
1782772233783083300,5.920083251953125,-0.0006108652451075613,0,-0.0012217304902151227
1782772233793040600,5.93004052734375,-0.0006108652451075613,0,-0.0012217304902151227
1782772233803072500,5.940072509765625,-0.0006108652451075613,0,-0.0006108652451075613
1782772233813020200,5.950020263671875,-0.0012217304902151227,0,0
1782772233823151900,5.96015185546875,0,0.0012217304902151227,-0.0012217304902151227
1782772233833009200,5.970009033203125,-0.0012217304902151227,0,-0.001832595793530345
1782772233843200800,5.98020068359375,-0.0006108652451075613,-0.0006108652451075613,-0.0012217304902151227
1782772233853068000,5.990068115234375,0,0,-0.0012217304902151227
1782772233863068700,6.000068603515625,-0.0012217304902151227,0,-0.0012217304902151227
1782772233873017600,6.010017578125,0,0,-0.001832595793530345
1782772233883244800,6.020244873046875,-0.0006108652451075613,0.0006108652451075613,-0.0012217304902151227
1782772233893076700,6.03007666015625,0,0,-0.0006108652451075613
1782772233903077600,6.04007763671875,-0.0006108652451075613,0,-0.0012217304902151227
1782772233913065700,6.050065673828125,-0.0006108652451075613,0,-0.001832595793530345
1782772233923067400,6.0600673828125,-0.0006108652451075613,0,-0.0006108652451075613
1782772233933055200,6.07005517578125,-0.0006108652451075613,0.0006108652451075613,-0.0012217304902151227
1782772233943086800,6.0800869140625,-0.001832595793530345,0,-0.0012217304902151227
1782772233953044200,6.090044189453125,0.0006108652451075613,0.0006108652451075613,-0.0012217304902151227
1782772233963076000,6.100076171875,-0.0006108652451075613,-0.0006108652451075613,-0.0006108652451075613
1782772233973064000,6.11006396484375,-0.0006108652451075613,-0.0006108652451075613,-0.0006108652451075613
1782772233983065000,6.120065185546875,-0.0006108652451075613,0.001832595793530345,-0.0006108652451075613
1782772233993053000,6.130052978515625,-0.0006108652451075613,0.0006108652451075613,-0.0006108652451075613
1782772234003084500,6.14008447265625,-0.0006108652451075613,0.0006108652451075613,-0.0006108652451075613
1782772234013042000,6.1500419921875,0,0.0006108652451075613,-0.0006108652451075613
1782772234023073800,6.16007373046875,0,0,0
1782772234033061400,6.170061279296875,0,-0.0006108652451075613,-0.0006108652451075613
1782772234043062500,6.1800625,-0.0006108652451075613,0.0006108652451075613,-0.0012217304902151227
1782772234053050400,6.19005029296875,-0.0012217304902151227,0,-0.001832595793530345
1782772234063082000,6.20008203125,-0.0012217304902151227,0.0006108652451075613,-0.0006108652451075613
1782772234072999400,6.20999951171875,-0.0012217304902151227,0,-0.0006108652451075613
1782772234083802600,6.220802734375,0,0.0006108652451075613,-0.0012217304902151227
1782772234103090200,6.240090087890625,-0.0012217304902151227,0,-0.0006108652451075613
1782772234113047800,6.2500478515625,-0.0006108652451075613,0.0006108652451075613,-0.0012217304902151227
1782772234123079700,6.26007958984375,0.0012217304902151227,0,-0.001832595793530345
1782772234133067500,6.270067626953125,-0.0006108652451075613,0.0006108652451075613,0
1782772234143068400,6.280068359375,-0.0012217304902151227,0.0006108652451075613,-0.0024434609804302454
1782772234153056500,6.290056396484375,0,0.0012217304902151227,-0.0006108652451075613
1782772234163026200,6.300026123046875,-0.0006108652451075613,0.0006108652451075613,-0.0006108652451075613
1782772234173137200,6.31013720703125,0,0,0
1782772234183077000,6.3200771484375,0,0,-0.0006108652451075613
1782772234193065200,6.330065185546875,0,0,-0.001832595793530345
1782772234203066400,6.34006640625,0,0,-0.0006108652451075613
1782772234213054000,6.350053955078125,0,0,-0.0006108652451075613
1782772234223085600,6.36008544921875,0,0.0006108652451075613,-0.001832595793530345
1782772234233043000,6.37004296875,0.0006108652451075613,0.0006108652451075613,-0.0006108652451075613
1782772234243074600,6.380074462890625,0.0006108652451075613,0.0012217304902151227,-0.0006108652451075613
1782772234253062700,6.390062744140625,-0.0006108652451075613,0,0
1782772234263063600,6.4000634765625,-0.0006108652451075613,0,0
1782772234273051600,6.4100517578125,-0.0006108652451075613,0.0012217304902151227,-0.0006108652451075613
1782772234283083300,6.420083251953125,-0.0006108652451075613,-0.0006108652451075613,-0.0012217304902151227
1782772234293040600,6.43004052734375,0,0.0006108652451075613,-0.0006108652451075613
1782772234303072300,6.440072265625,-0.0006108652451075613,0.0012217304902151227,-0.0006108652451075613
1782772234313060000,6.45006005859375,-0.0006108652451075613,0.0006108652451075613,-0.0006108652451075613
1782772234323060700,6.460060791015625,0,0.0006108652451075613,0
1782772234333049000,6.470049072265625,-0.0006108652451075613,0,-0.001832595793530345
1782772234343081000,6.4800810546875,-0.0006108652451075613,0.0006108652451075613,-0.0006108652451075613
1782772234353068800,6.49006884765625,-0.0006108652451075613,0.0006108652451075613,-0.0006108652451075613
1782772234363070000,6.500070068359375,-0.0006108652451075613,0.0006108652451075613,-0.0012217304902151227
1782772234373057800,6.510057861328125,0.0006108652451075613,0,-0.0006108652451075613
1782772234383089400,6.52008935546875,-0.0012217304902151227,0,-0.0006108652451075613
1782772234393046800,6.530046875,-0.0006108652451075613,0.0006108652451075613,-0.0006108652451075613
1782772234403078400,6.540078369140625,0.0006108652451075613,0,-0.0012217304902151227
1782772234413066200,6.550066162109375,-0.0006108652451075613,0.0006108652451075613,-0.0006108652451075613
1782772234423067600,6.560067626953125,-0.0006108652451075613,0.0006108652451075613,0
1782772234433055200,6.57005517578125,-0.0012217304902151227,0.0012217304902151227,-0.0006108652451075613
1782772234443055600,6.5800556640625,-0.0006108652451075613,0.0006108652451075613,-0.0006108652451075613
1782772234453136000,6.590135986328125,0,0,-0.0006108652451075613
1782772234463099000,6.600098876953125,0,0.0006108652451075613,-0.0006108652451075613
1782772234473064000,6.61006396484375,-0.0006108652451075613,0,-0.0012217304902151227
1782772234483064800,6.62006494140625,0,0.0012217304902151227,-0.0006108652451075613
1782772234493053000,6.630052978515625,-0.0006108652451075613,0.0006108652451075613,-0.001832595793530345
1782772234503084000,6.640083984375,-0.0012217304902151227,0.0006108652451075613,-0.0006108652451075613
1782772234513041700,6.650041748046875,-0.0012217304902151227,0.0006108652451075613,-0.0012217304902151227
1782772234523073800,6.66007373046875,-0.0012217304902151227,-0.0006108652451075613,-0.0012217304902151227
1782772234533061400,6.670061279296875,0,0.0012217304902151227,-0.0012217304902151227
1782772234543076000,6.680076171875,-0.0006108652451075613,0,-0.0006108652451075613
1782772234553050400,6.69005029296875,0,0.0006108652451075613,-0.0006108652451075613
1782772234563076000,6.700076171875,0,0.0012217304902151227,-0.0006108652451075613
1782772234573039400,6.710039306640625,-0.0012217304902151227,0,0
1782772234583009000,6.720009033203125,0,0,-0.0006108652451075613
1782772234593120000,6.7301201171875,-0.0012217304902151227,0.0006108652451075613,0
1782772234603085600,6.74008544921875,0,0.11667526513338089,0.06963863968849182
1782772234613047800,6.7500478515625,-0.006108652334660292,0.10812314599752426,0.059864792972803116
1782772234623074600,6.760074462890625,-0.0012217304902151227,-0.00855211354792118,-0.006719517521560192
1782772234633067500,6.770067626953125,0,-0.01160643994808197,-0.009162978269159794
1782772234643068200,6.780068115234375,0.0012217304902151227,-0.018936822190880775,-0.013439035043120384
1782772234653056500,6.790056396484375,0.0012217304902151227,-0.039095375686883926,-0.024434609338641167
1782772234663088000,6.800088134765625,-0.0024434609804302454,-0.09407325088977814,-0.051312681287527084
1782772234673045800,6.810045654296875,-0.0012217304902151227,-0.08368854224681854,-0.04581489413976669
1782772234683077000,6.8200771484375,-0.0006108652451075613,0.009162978269159794,0.00366519158706069
