time,seconds_elapsed,z,y,x
1782771729316041000,0.206041015625,-0.042987823486328125,-0.0009200088679790497,0.0006935559213161469
1782771729326050800,0.21605078125,-0.04538249969482422,0.0016010366380214691,0.017326517030596733
1782771729336060400,0.226060302734375,-0.03580665588378906,0.01848030462861061,0.03157225251197815
1782771729346039800,0.236039794921875,-0.05495738983154297,0.005129452794790268,0.008337900042533875
1782771729356049700,0.246049560546875,-0.04298591613769531,-0.0067819394171237946,0.010791508480906487
1782771729366059300,0.256059326171875,-0.052562713623046875,0.007583267986774445,0.010851566679775715
1782771729376038700,0.26603857421875,-0.05495738983154297,0.0051890648901462555,0.01324576884508133
1782771729386048500,0.276048583984375,-0.05016899108886719,0.0003408491611480713,0.0061233192682266235
1782771729396058000,0.28605810546875,-0.05495738983154297,-0.004447557032108307,0.008577382192015648
1782771729406037200,0.296037353515625,-0.05495738983154297,0.0075836144387722015,0.006243552081286907
1782771729416047000,0.306047119140625,-0.045380592346191406,0.014885518699884415,0.00630319956690073
1782771729426056700,0.316056640625,-0.045380592346191406,0.005248621106147766,0.006303201429545879
1782771729436036000,0.3260361328125,-0.05495738983154297,-0.004387944936752319,-0.00560770183801651
1782771729446046000,0.3360458984375,-0.06453418731689453,0.005248900502920151,0.004029566887766123
1782771729456055600,0.3460556640625,-0.05016899108886719,-0.01151057705283165,0.013546265661716461
1782771729466035000,0.356034912109375,-0.06453418731689453,0.00046055763959884644,0.008818510919809341
1782771729476044800,0.366044921875,-0.06932258605957031,-0.004268113523721695,0.018395589664578438
1782771729486054700,0.3760546875,-0.059746742248535156,0.010157175362110138,0.011212985962629318
1782771729496033800,0.38603369140625,-0.059746742248535156,0.007762987166643143,0.0016361763700842857
1782771729506043400,0.39604345703125,-0.057351112365722656,-0.008936453610658646,0.008878970518708229
1782771729516053200,0.40605322265625,-0.06933212280273438,-0.010591208934783936,0.012589521706104279
1782771729526032400,0.416032470703125,-0.04299640655517578,0.00862250104546547,-0.008958294056355953
1782771729536042200,0.426042236328125,-0.050179481506347656,0.0038341134786605835,0.0006784303113818169
1782771729546052000,0.436052001953125,-0.05496788024902344,-0.0032883919775485992,-0.0016556780319660902
1782771729556031200,0.44603125,-0.057361602783203125,0.0040138885378837585,0.0030731619335711002
1782771729566041000,0.456041015625,-0.064544677734375,0.006408117711544037,-0.006443469785153866
1782771729576051000,0.466051025390625,-0.059757232666015625,-0.0007146336138248444,0.010376044549047947
1782771729586060500,0.476060546875,-0.06933403015136719,0.016044795513153076,-0.011171502061188221
1782771729596040000,0.4860400390625,-0.047786712646484375,0.006647534668445587,0.008042478002607822
1782771729606049500,0.496049560546875,-0.05018138885498047,-0.010051965713500977,-0.008657023310661316
1782771729616059100,0.50605908203125,-0.062152862548828125,0.009221326559782028,0.0009200491476804018
1782771729626038500,0.51603857421875,-0.07891273498535156,0.0020387209951877594,0.01055695116519928
1782771729636048400,0.52604833984375,-0.062152862548828125,0.01173480972647667,0.0010395282879471779
1782771729646058000,0.53605810546875,-0.0693359375,-0.0026906393468379974,-0.006082841660827398
1782771729656037400,0.546037353515625,-0.062152862548828125,-0.0026906169950962067,-0.008476778864860535
1782771729666047200,0.556047119140625,-0.07651805877685547,0.00940023735165596,0.01540558971464634
1782771729676057000,0.56605712890625,-0.07651805877685547,-0.002570752054452896,0.0010406433138996363
1782771729686036200,0.5760361328125,-0.057364463806152344,0.01185455173254013,-0.0036876655649393797
1782771729696045800,0.5860458984375,-0.06454849243164062,0.014308448880910873,0.015466473065316677
1782771729706055700,0.5960556640625,-0.059760093688964844,0.011974368244409561,-0.006020981352776289
1782771729716035000,0.60603515625,-0.08370208740234375,0.00712614506483078,-0.0036265153903514147
1782771729726044700,0.616044677734375,-0.07891368865966797,0.007126152515411377,0.005950290244072676
1782771729736054500,0.626054443359375,-0.07412528991699219,-0.012027468532323837,0.0011618880089372396
1782771729746033700,0.63603369140625,-0.06694221496582031,-0.009573101997375488,-0.006019925698637962
1782771729756043500,0.64604345703125,-0.0693368911743164,0.011974692344665527,0.003556618932634592
1782771729766053000,0.65605322265625,-0.07412528991699219,-0.002390515059232712,0.015527626499533653
1782771729776032500,0.666032470703125,-0.08370304107666016,-0.009453456848859787,-0.01565682888031006
1782771729786042400,0.67604248046875,-0.06454944610595703,-0.0022109337151050568,0.0011624933686107397
1782771729796052200,0.68605224609375,-0.06454944610595703,-0.006939489394426346,-0.00117161450907588
1782771729806031400,0.69603125,-0.08130836486816406,0.017062630504369736,-0.0034456253051757812
1782771729816041000,0.706041015625,-0.0717315673828125,0.005091629922389984,0.008465996012091637
1782771729826050800,0.71605078125,-0.05976104736328125,0.005151741206645966,0.0013437403831630945
1782771729836060400,0.726060302734375,-0.0717315673828125,0.007545921951532364,0.008466250263154507
1782771729846039800,0.736039794921875,-0.07652091979980469,-0.009273562580347061,0.001163717359304428
1782771729856049700,0.746049560546875,-0.08849239349365234,0.012274269014596939,-0.005958979018032551
1782771729866059300,0.756059326171875,-0.06933784484863281,0.00036333873867988586,0.006071863695979118
1782771729876038700,0.76603857421875,-0.06215476989746094,0.007486134767532349,0.008466326631605625
1782771729886048500,0.776048583984375,-0.05976104736328125,0.00024361535906791687,-0.010687286965548992
1782771729896058000,0.78605810546875,-0.0717315673828125,-0.00442509725689888,0.006072386167943478
1782771729906037200,0.796037353515625,-0.06933784484863281,-0.0020308978855609894,0.01092088408768177
1782771729916047000,0.806047119140625,-0.0717325210571289,0.01239396259188652,0.003797929035499692
1782771729926056700,0.816056640625,-0.08130931854248047,0.007605578750371933,-0.0009902131278067827
1782771729936036000,0.8260361328125,-0.074127197265625,0.010059669613838196,-0.010506663471460342
1782771729946046000,0.8360458984375,-0.05976295471191406,-0.013822412118315697,-0.01290060579776764
1782771729956055600,0.8460556640625,-0.0717325210571289,0.005331199616193771,-0.010566236451268196
1782771729966035000,0.856034912109375,-0.07891654968261719,0.010179702192544937,0.0038590680342167616
1782771729976044800,0.866044921875,-0.05497455596923828,0.012633558362722397,0.003859326709061861
1782771729986054700,0.8760546875,-0.06933975219726562,-0.0065200068056583405,-0.02008216828107834
1782771729996033800,0.88603369140625,-0.08370494842529297,0.003056831657886505,-0.008051065728068352
1782771730006043400,0.89604345703125,-0.06933975219726562,0.010239437222480774,-0.005656864959746599
1782771730016053200,0.90605322265625,-0.0765218734741211,-0.008914180099964142,0.003979775123298168
1782771730026032400,0.916032470703125,-0.08370494842529297,0.0007828399538993835,0.013616932556033134
1782771730036042200,0.926042236328125,-0.06933975219726562,-0.011188168078660965,-0.0032021314837038517
1782771730046052000,0.936052001953125,-0.06933975219726562,0.0007828399538993835,0.008768877014517784
1782771730056031200,0.94603125,-0.08370494842529297,-0.004005547612905502,0.006434764247387648
1782771730066041000,0.956041015625,-0.07891654968261719,0.007905576378107071,0.001646619290113449
1782771730076051000,0.966051025390625,-0.06933975219726562,0.0007230155169963837,-0.003141266293823719
1782771730086060500,0.976060546875,-0.07891654968261719,0.015088260173797607,-0.007989504374563694
1782771730096040000,0.9860400390625,-0.08609867095947266,-0.004065316170454025,0.003982021007686853
1782771730106049500,0.996049560546875,-0.07891654968261719,0.0007830262184143066,-0.019959736615419388
1782771730116059100,1.00605908203125,-0.06934070587158203,0.0008428581058979034,0.003922445233911276
1782771730126038500,1.01603857421875,-0.062157630920410156,0.010419666767120361,-0.010442765429615974
1782771730136048400,1.02604833984375,-0.07173442840576172,-0.003885868936777115,0.006376556120812893
1782771730146058000,1.03605810546875,-0.07173442840576172,0.012933660298585892,0.0016485047526657581
1782771730156037400,1.046037353515625,-0.07173442840576172,0.008145306259393692,0.008891457691788673
1782771730166047200,1.056047119140625,-0.062157630920410156,-0.008614074438810349,0.004163223784416914
1782771730176057000,1.06605712890625,-0.07173442840576172,-0.01094844564795494,0.0017690225504338741
1782771730186036200,1.0760361328125,-0.0789175033569336,0.005810964852571487,0.004163224250078201
1782771730196045800,1.0860458984375,-0.07413005828857422,0.01784166321158409,-0.003018869087100029
1782771730206055700,1.0960556640625,-0.08370780944824219,0.008385047316551208,0.0017695343121886253
1782771730216035000,1.10603515625,-0.07652473449707031,-0.010648876428604126,-0.005472648423165083
1782771730226044700,1.116044677734375,-0.0789194107055664,0.006110534071922302,-0.0006842450238764286
1782771730236054500,1.126054443359375,-0.08370780944824219,-0.012983215972781181,0.008892817422747612
1782771730246033700,1.13603369140625,-0.09567832946777344,-0.0058005861937999725,-0.01504894345998764
1782771730256043500,1.14604345703125,-0.08849620819091797,-0.000952504575252533,-0.005412233993411064
1782771730266053000,1.15605322265625,-0.0789194107055664,0.008624322712421417,0.009013324975967407
1782771730276032500,1.166032470703125,-0.09089088439941406,-0.00562116876244545,0.009073665365576744
1782771730286042400,1.17604248046875,-0.0837087631225586,0.008803978562355042,-0.012413984164595604
1782771730296052200,1.18605224609375,-0.06934356689453125,0.0016811937093734741,0.021164672449231148
1782771730306031400,1.19603125,-0.0813140869140625,0.008863847702741623,0.00919417105615139
1782771730316041000,1.206041015625,-0.07892131805419922,0.0041351281106472015,-0.007505339104682207
1782771730326050800,1.21605078125,-0.07413196563720703,0.006529349833726883,0.009314418770372868
1782771730336060400,1.226060302734375,-0.06694889068603516,-0.007776021957397461,0.011708620935678482
1782771730346039800,1.236039794921875,-0.07652664184570312,0.006709374487400055,0.006980312056839466
1782771730356049700,1.246049560546875,-0.07652664184570312,0.016345858573913574,-0.00020204344764351845
1782771730366059300,1.256059326171875,-0.0597686767578125,0.006829146295785904,-0.004870254546403885
1782771730376038700,1.26603857421875,-0.08849906921386719,-0.000413261353969574,-0.016721349209547043
1782771730386048500,1.276048583984375,-0.07173824310302734,0.01155778020620346,-0.004810081794857979
1782771730396058000,1.28605810546875,-0.09089279174804688,0.004494648426771164,0.011949080042541027
1782771730406037200,1.296037353515625,-0.07413387298583984,0.02137422189116478,0.0048868535086512566
1782771730416047000,1.306047119140625,-0.07413387298583984,0.009403232485055923,-0.011931989341974258
1782771730426056700,1.316056640625,-0.06455707550048828,-0.012144537642598152,-0.009477474726736546
1782771730436036000,1.3260361328125,-0.08131694793701172,0.014311376959085464,0.002493285108357668
1782771730446046000,1.3360458984375,-0.08371257781982422,0.009642764925956726,0.014464542269706726
1782771730456055600,1.3460556640625,-0.06695270538330078,0.00724855437874794,0.014404680579900742
1782771730466035000,1.356034912109375,-0.08131790161132812,0.014551319181919098,-0.011931289918720722
1782771730476044800,1.366044921875,-0.07413578033447266,0.01225757971405983,0.009671526029706001
1782771730486054700,1.3760546875,-0.06934833526611328,0.012288592755794525,-0.006970239337533712
1782771730496033800,1.38603369140625,-0.057376861572265625,0.009931929409503937,0.007390843238681555
1782771730506043400,1.39604345703125,-0.0885019302368164,0.0075121186673641205,0.0003230706788599491
1782771730516053200,1.40605322265625,-0.08371353149414062,-0.006853051483631134,0.009959954768419266
1782771730526032400,1.416032470703125,-0.0885019302368164,0.0051179565489292145,-0.0020110532641410828
1782771730536042200,1.426042236328125,-0.08131885528564453,0.014673266559839249,0.02197638340294361
1782771730546052000,1.436052001953125,-0.07174110412597656,0.009859830141067505,0.02446557581424713
1782771730556031200,1.44603125,-0.08371257781982422,0.007499441504478455,0.012585422024130821
1782771730566041000,1.456041015625,-0.09568309783935547,0.00268414244055748,0.007765207905322313
1782771730576051000,1.466051025390625,-0.08371257781982422,0.0122329480946064,-0.006621701177209616
1782771730586060500,1.476060546875,-0.08371257781982422,0.014595862478017807,-0.0019106892868876457
1782771730596040000,1.4860400390625,-0.0861063003540039,0.007444966584444046,0.005256421864032745
1782771730606049500,1.496049560546875,-0.0861063003540039,0.005027215927839279,0.012362000532448292
1782771730616059100,1.50605908203125,-0.07652950286865234,-0.01652054488658905,0.012422330677509308
1782771730626038500,1.51603857421875,-0.06695270538330078,0.007481608539819717,-0.009065143764019012
1782771730636048400,1.52604833984375,-0.07174110412597656,0.0002394169569015503,0.0005121566355228424
1782771730646058000,1.53605810546875,-0.0861063003540039,0.000239446759223938,-0.011458605527877808
1782771730656037400,1.546037353515625,-0.08371257781982422,-0.002094920724630356,-0.011338939890265465
1782771730666047200,1.556047119140625,-0.0861063003540039,0.01233016699552536,0.015056943520903587
1782771730676057000,1.56605712890625,-0.07652950286865234,0.005147561430931091,-0.006550704129040241
1782771730686036200,1.5760361328125,-0.08371353149414062,-0.00676335021853447,-0.006550704129040241
1782771730696045800,1.5860458984375,-0.07174205780029297,0.002873137593269348,0.007814750075340271
1782771730706055700,1.5960556640625,-0.09568405151367188,0.014904242008924484,0.005420548841357231
1782771730716035000,1.60603515625,-0.06934833526611328,-0.006643570959568024,-0.008824998512864113
1782771730726044700,1.616044677734375,-0.0908956527709961,0.0029931776225566864,0.003146255388855934
1782771730736054500,1.626054443359375,-0.07892608642578125,0.007901251316070557,0.010448526591062546
1782771730746033700,1.63603369140625,-0.07892608642578125,0.010295454412698746,0.008054325357079506
1782771730756043500,1.64604345703125,-0.0669546127319336,0.012689657509326935,0.017631132155656815
1782771730766053000,1.65605322265625,-0.07174301147460938,0.010273970663547516,0.022454973310232162
1782771730776032500,1.666032470703125,-0.08131980895996094,0.01024957001209259,0.008123891428112984
1782771730786042400,1.67604248046875,-0.07174301147460938,0.0007713660597801208,0.005764960311353207
1782771730796052200,1.68605224609375,-0.062165260314941406,0.003165632486343384,-0.003691696096211672
1782771730806031400,1.69603125,-0.07892608642578125,0.007893949747085571,-0.0013575898483395576
1782771730816041000,1.706041015625,-0.09329032897949219,-0.001682862639427185,-0.0036324886605143547
1782771730826050800,1.71605078125,-0.07413673400878906,-0.011259658262133598,0.005944317206740379
1782771730836060400,1.726060302734375,-0.06695365905761719,-0.0016230344772338867,0.0012157494202256203
1782771730846039800,1.736039794921875,-0.08610820770263672,0.008074004203081131,-0.00357240904122591
1782771730856049700,1.746049560546875,-0.08371543884277344,0.005739495158195496,0.003670087084174156
1782771730866059300,1.756059326171875,-0.0669546127319336,-0.0015031695365905762,0.006124627310782671
1782771730876038700,1.76603857421875,-0.08131980895996094,0.0056196413934230804,0.006124869920313358
1782771730886048500,1.776048583984375,-0.06695556640625,0.0057993605732917786,-0.0033920295536518097
1782771730896058000,1.78605810546875,-0.07174396514892578,0.005799401551485062,0.006185018923133612
1782771730906037200,1.796037353515625,-0.08132076263427734,0.0034652911126613617,0.020550228655338287
1782771730916047000,1.806047119140625,-0.07892704010009766,-0.010840239003300667,0.010973664000630379
1782771730926056700,1.816056640625,-0.08371543884277344,-0.010900327935814857,-0.005845844745635986
1782771730936036000,1.8260361328125,-0.0693502426147461,0.0035247430205345154,0.006185238249599934
1782771730946046000,1.8360458984375,-0.05498504638671875,-0.008446186780929565,0.013368326239287853
1782771730956055600,1.8460556640625,-0.07892704010009766,0.01070743054151535,-0.0009370478801429272
1782771730966035000,1.856034912109375,-0.08850479125976562,0.0011907592415809631,-0.012847719714045525
1782771730976044800,1.866044921875,-0.07413959503173828,-0.00593215599656105,-0.0008764714002609253
1782771730986054700,1.8760546875,-0.09089851379394531,0.0037648379802703857,-0.010453278198838234
1782771730996033800,1.88603369140625,-0.08371639251708984,0.01094747707247734,-0.0032106004655361176
1782771731006043400,1.89604345703125,-0.08132171630859375,0.001310795545578003,0.006426358595490456
1782771731016053200,1.90605322265625,-0.07653331756591797,0.01088760420680046,-0.00799868255853653
1782771731026032400,1.916032470703125,-0.08611011505126953,-0.000963214784860611,-0.003210279159247875
1782771731036042200,1.926042236328125,-0.0693511962890625,0.006159741431474686,-0.0031506302766501904
1782771731046052000,1.936052001953125,-0.07413959503173828,-0.00335693359375,0.0016981083899736404
1782771731056031200,1.94603125,-0.07653427124023438,0.006279829889535904,0.013669836334884167
1782771731066041000,1.956041015625,-0.07653331756591797,0.006339773535728455,0.013729985803365707
1782771731076051000,1.966051025390625,-0.08132171630859375,0.0062201134860515594,0.008941582404077053
1782771731086060500,1.976060546875,-0.07174491882324219,0.013462893664836884,0.0017594578675925732
1782771731096040000,1.9860400390625,-0.08132171630859375,-0.0056308843195438385,-0.007817350327968597
1782771731106049500,1.996049560546875,-0.07174491882324219,0.00394599512219429,-0.019787879660725594
1782771731116059100,2.00605908203125,-0.09808158874511719,0.018311291933059692,-0.010210595093667507
1782771731126038500,2.01603857421875,-0.08132171630859375,0.013522919267416,0.013731664046645164
1782771731136048400,2.02604833984375,-0.08371639251708984,0.015917159616947174,0.00900314748287201
1782771731146058000,2.03605810546875,-0.07892894744873047,0.016011111438274384,-0.002909405156970024
1782771731156037400,2.046037353515625,-0.08371639251708984,0.006374478340148926,0.0066075692884624004
1782771731166047200,2.056047119140625,-0.08850574493408203,0.008828584104776382,-0.01254604384303093
1782771731176057000,2.06605712890625,-0.07653427124023438,0.011259719729423523,-0.0005134767852723598
1782771731186036200,2.0760361328125,-0.09329414367675781,-0.00783376395702362,-0.005241546779870987
1782771731196045800,2.0860458984375,-0.07653522491455078,-0.007714461535215378,0.006729461718350649
1782771731206055700,2.0960556640625,-0.08371829986572266,0.009165134280920029,-0.005181456450372934
1782771731216035000,2.10603515625,-0.08132457733154297,0.006890647113323212,0.0044554234482347965
1782771731226044700,2.116044677734375,-0.08611297607421875,0.00707041472196579,0.004395748022943735
1782771731236054500,2.126054443359375,-0.08132553100585938,0.028714977204799652,-0.0003338512033224106
1782771731246033700,2.13603369140625,-0.0741424560546875,-0.00007550045847892761,0.011637391522526741
1782771731256043500,2.14604345703125,-0.0765371322631836,-0.000015892088413238525,0.009302605874836445
1782771731266053400,2.156053466796875,-0.09569072723388672,0.002438493072986603,0.004574766382575035
1782771731276032500,2.166032470703125,-0.09090232849121094,0.007226891815662384,-0.009730610996484756
1782771731286042400,2.17604248046875,-0.08372020721435547,0.00004428252577781677,0.011937029659748077
1782771731296052200,2.18605224609375,-0.09329700469970703,0.012075170874595642,0.002420286647975445
1782771731306031400,2.19603125,-0.08611392974853516,0.00016421452164649963,0.01439105998724699
1782771731316041000,2.206041015625,-0.0765380859375,0.014589119702577591,0.004874133970588446
1782771731326050800,2.21605078125,-0.06696128845214844,-0.006898604333400726,0.004874133970588446
1782771731336060400,2.226060302734375,-0.0789327621459961,0.0026782527565956116,-0.0022484073415398598
1782771731346039800,2.236039794921875,-0.0789327621459961,0.01949780061841011,0.0000859326682984829
1782771731356049700,2.246049560546875,-0.06935596466064453,0.01953001692891121,0.0073166824877262115
1782771731366059300,2.256059326171875,-0.08132648468017578,0.010006923228502274,-0.004595969803631306
1782771731376038700,2.26603857421875,-0.06935596466064453,0.007660169154405594,0.007370811887085438
1782771731386048500,2.276048583984375,-0.08611488342285156,0.002871822565793991,-0.006874354090541601
1782771731396058000,2.28605810546875,-0.07174968719482422,0.000477571040391922,0.012398703023791313
1782771731406037200,2.296037353515625,-0.09090423583984375,0.017297077924013138,0.002821895759552717
1782771731416047000,2.306047119140625,-0.06935691833496094,0.007779970765113831,-0.016331486403942108
1782771731426056700,2.316056640625,-0.05978107452392578,0.005445946007966995,0.010005193762481213
1782771731436036000,2.3260361328125,-0.08372306823730469,0.005445994436740875,0.01245945692062378
1782771731446046000,2.3360458984375,-0.07414531707763672,0.012688558548688889,0.005396904423832893
1782771731456055600,2.3460556640625,-0.0765390396118164,0.015062913298606873,-0.018545610830187798
1782771731466035000,2.356034912109375,-0.08851051330566406,0.015090256929397583,0.005392909049987793
1782771731476044800,2.366044921875,-0.08132743835449219,0.010216537863016129,0.010175103321671486
1782771731486054700,2.3760546875,-0.09808635711669922,-0.0017797574400901794,0.01979668252170086
1782771731496033800,2.38603369140625,-0.0789346694946289,0.0007940419018268585,-0.004145332612097263
1782771731506043400,2.39604345703125,-0.08132743835449219,0.010310918092727661,-0.004145561717450619
1782771731516053200,2.40605322265625,-0.0525970458984375,0.0006742477416992188,-0.023359037935733795
1782771731526032400,2.416032470703125,-0.08132743835449219,0.01743370294570923,-0.00420519569888711
1782771731536042200,2.426042236328125,-0.08611488342285156,-0.0017795898020267487,-0.008874238468706608
1782771731546052000,2.436052001953125,-0.08851051330566406,0.014979876577854156,0.0031570633873343468
1782771731556031200,2.44603125,-0.08851051330566406,-0.0016597174108028412,0.007945926859974861
1782771731566041000,2.456041015625,-0.08611679077148438,0.00318865105509758,0.007946155965328217
1782771731576051000,2.466051025390625,-0.06696319580078125,0.02246193215250969,0.0008233855478465557
1782771731586060500,2.476060546875,-0.08611679077148438,0.010592196136713028,0.012849243357777596
1782771731596040000,2.4860400390625,-0.06935787200927734,0.01057397574186325,0.010566888377070427
1782771731606049500,2.496049560546875,-0.07653999328613281,0.017725836485624313,0.0057663987390697
1782771731616059100,2.50605908203125,-0.08611679077148438,0.022472862154245377,0.0009058048017323017
1782771731625979100,2.515979248046875,-0.0789346694946289,-0.0061659179627895355,-0.003829745575785637
1782771731637061400,2.527061279296875,-0.09569454193115234,-0.0013181045651435852,0.010594872757792473
1782771731656037400,2.546037353515625,-0.0837240219116211,0.02512780949473381,0.0010506506077945232
1782771731666047200,2.556047119140625,-0.07654094696044922,0.01557108759880066,0.003488612361252308
1782771731676056800,2.566056884765625,-0.0813283920288086,0.008351754397153854,0.0035334164276719093
1782771731685976800,2.575976806640625,-0.08372306823730469,0.008375592529773712,0.0036387136206030846
1782771731696107000,2.58610693359375,-0.06457042694091797,0.01079237088561058,0.006076345685869455
1782771731705996300,2.595996337890625,-0.07893562316894531,0.0060898661613464355,0.01802409626543522
1782771731716219600,2.6062197265625,-0.07175254821777344,0.005995225161314011,0.01799270510673523
1782771731726105600,2.616105712890625,-0.0813283920288086,0.017865478992462158,0.006053245160728693
1782771731736054500,2.626054443359375,-0.06935787200927734,0.008193716406822205,-0.0010938644409179688
1782771731746009000,2.636009033203125,-0.08372306823730469,0.01061311736702919,0.0013405564241111279
1782771731757111800,2.64711181640625,-0.06696319580078125,0.015356387943029404,0.008497917093336582
1782771731776032500,2.666032470703125,-0.08611679077148438,0.008121512830257416,0.0037347879260778427
1782771731786042400,2.67604248046875,-0.07414627075195312,0.012876354157924652,0.013350559398531914
1782771731796052200,2.68605224609375,-0.0789346694946289,0.02001313865184784,0.008655121549963951
1782771731805971700,2.6959716796875,-0.0765390396118164,0.02474547177553177,0.006293438840657473
1782771731816132600,2.706132568359375,-0.08372116088867188,0.010382596403360367,0.006324025336652994
1782771731826050800,2.71605078125,-0.06935596466064453,0.007940307259559631,-0.017629127949476242
1782771731836060400,2.726060302734375,-0.07174968719482422,-0.006450757384300232,-0.0008169114589691162
1782771731846039800,2.736039794921875,-0.07174968719482422,0.012733563780784607,-0.0007624272257089615
1782771731856049700,2.746049560546875,-0.08132648468017578,0.012760668992996216,0.004019305109977722
1782771731866059300,2.756059326171875,-0.08132648468017578,0.010390236973762512,0.018428325653076172
1782771731876038700,2.76603857421875,-0.08372116088867188,0.003123026341199875,-0.003069142811000347
1782771731885988900,2.77598876953125,-0.08850955963134766,0.015064757317304611,-0.007862604223191738
1782771731896119300,2.786119384765625,-0.0789327621459961,-0.008877260610461235,-0.003074199892580509
1782771731906037200,2.796037353515625,-0.08372116088867188,0.017458952963352203,0.008957506157457829
1782771731916047000,2.806047119140625,-0.09329795837402344,0.005606457591056824,0.01619916781783104
1782771731926056700,2.816056640625,-0.06696224212646484,0.010434143245220184,0.004217787645757198
1782771731936036000,2.8260361328125,-0.08611488342285156,0.003191709518432617,-0.0005107829347252846
1782771731946046000,2.8360458984375,-0.08611488342285156,0.007980111986398697,-0.0029049841687083244
1782771731956055600,2.8460556640625,-0.0789327621459961,0.022370431572198868,0.023351889103651047
1782771731966035000,2.856034912109375,-0.0765390396118164,0.00803207978606224,0.021050510928034782
1782771731976044800,2.866044921875,-0.08372116088867188,0.029523257166147232,0.006710273679345846
1782771731986054700,2.8760546875,-0.06935596466064453,0.010313861072063446,0.009128601290285587
1782771731996033800,2.88603369140625,-0.0789327621459961,-0.008870376273989677,0.004434731788933277
1782771732006043400,2.89604345703125,-0.08132553100585938,0.00780104473233223,0.006805767770856619
1782771732016053000,2.906052978515625,-0.08372116088867188,-0.004135362803936005,0.03555327281355858
1782771732026032400,2.916032470703125,-0.08372116088867188,0.0055373311042785645,0.01402273215353489
1782771732036042200,2.926042236328125,-0.0765380859375,0.012692321091890335,0.009311819449067116
1782771732046052000,2.936052001953125,-0.08372116088867188,0.007871787995100021,0.02128855139017105
1782771732056031200,2.94603125,-0.08372116088867188,0.00788891687989235,0.02132965251803398
1782771732066041000,2.956041015625,-0.08132648468017578,0.007852938026189804,-0.0001539476215839386
1782771732076051000,2.966051025390625,-0.0789327621459961,0.0031585656106472015,0.004595881327986717
1782771732086060500,2.976060546875,-0.08611488342285156,0.01031453162431717,0.004561896435916424
1782771732096040000,2.9860400390625,-0.08850955963134766,0.010350409895181656,-0.0026438171043992043
1782771732106049500,2.996049560546875,-0.08372116088867188,0.012719959020614624,0.009304989129304886
1782771732116059100,3.00605908203125,-0.06456756591796875,0.0032029859721660614,-0.012242825701832771
1782771732126038500,3.01603857421875,-0.08611488342285156,-0.0063738152384757996,-0.00494003389030695
1782771732136048400,3.02604833984375,-0.08372116088867188,0.008051089942455292,-0.00009175203740596771
1782771732146058000,3.03605810546875,-0.06935691833496094,0.0033828802406787872,-0.000031657516956329346
1782771732156037400,3.046037353515625,-0.06696224212646484,0.005777079612016678,0.01439338643103838
1782771732166047200,3.056047119140625,-0.0813283920288086,0.010745272040367126,0.011999409645795822
1782771732176057000,3.06605712890625,-0.08132743835449219,-0.006014138460159302,-0.0023059677332639694
1782771732186036200,3.0760361328125,-0.08372306823730469,0.003682982176542282,-0.0021853232756257057
1782771732196046000,3.086046142578125,-0.07653999328613281,-0.010622460395097733,0.01696874015033245
1782771732206055700,3.0960556640625,-0.09090518951416016,0.00613689050078392,0.00978590827435255
1782771732216035000,3.10603515625,-0.08611679077148438,0.0013484284281730652,0.012239716947078705
1782771732226044700,3.116044677734375,-0.09090518951416016,0.015773549675941467,0.0002687061205506325
1782771732236054500,3.126054443359375,-0.08611679077148438,0.013439230620861053,0.00745153846219182
1782771732246033700,3.13603369140625,-0.06935882568359375,0.025490310043096542,0.01938781514763832
1782771732256043500,3.14604345703125,-0.06935882568359375,0.0015713758766651154,0.012166664004325867
1782771732266053400,3.156053466796875,-0.0813283920288086,0.008718524128198624,0.019365178421139717
1782771732276032500,3.166032470703125,-0.08611679077148438,0.0110824815928936,0.01699179969727993
1782771732286042400,3.17604248046875,-0.09090518951416016,0.018289722502231598,-0.004586067050695419
1782771732296052200,3.18605224609375,-0.08372306823730469,0.01585594192147255,0.007295398507267237
1782771732306031400,3.19603125,-0.06935787200927734,0.006185602396726608,-0.0023631788790225983
1782771732316041000,3.206041015625,-0.10048294067382812,0.027737099677324295,0.007244492415338755
1782771732326050800,3.21605078125,-0.08372306823730469,0.01804143562912941,0.009668180719017982
1782771732336060400,3.226060302734375,-0.09329986572265625,0.008403096348047256,0.021594751626253128
1782771732346039800,3.236039794921875,-0.0789346694946289,-0.0011533237993717194,-0.009553092531859875
1782771732356049700,3.246049560546875,-0.054991722106933594,0.010778442025184631,0.019265886396169662
1782771732366059300,3.256059326171875,-0.08851051330566406,0.008342485874891281,0.007261764723807573
1782771732376038700,3.26603857421875,-0.06696319580078125,0.015530262142419815,0.026361767202615738
1782771732386048500,3.276048583984375,-0.06935787200927734,0.005912180989980698,-0.00473669171333313
1782771732396058000,3.28605810546875,-0.08611679077148438,-0.0036332309246063232,-0.002366042695939541
1782771732406037500,3.29603759765625,-0.0813283920288086,-0.01077357679605484,0.023998824879527092
1782771732416047000,3.306047119140625,-0.09329986572265625,0.006026599556207657,0.007327319588512182
1782771732426057000,3.316056884765625,-0.08851146697998047,0.0012817531824111938,0.012203522026538849
1782771732436036000,3.3260361328125,-0.07414627075195312,0.008464410901069641,-0.0021614590659737587
1782771732446046000,3.3360458984375,-0.06456947326660156,0.0251939594745636,-0.002242474816739559
1782771732456055800,3.346055908203125,-0.09808826446533203,0.003646157681941986,0.00021155737340450287
1782771732466035000,3.356034912109375,-0.08372306823730469,0.003689650446176529,0.017015092074871063
1782771732476044800,3.366044921875,-0.06935787200927734,0.0061262138187885284,0.002753760199993849
1782771732486054700,3.3760546875,-0.07653999328613281,0.020396213978528976,-0.0020542722195386887
1782771732496033800,3.38603369140625,-0.09329986572265625,0.0012887455523014069,0.007513453718274832
1782771732506043400,3.39604345703125,-0.09569358825683594,-0.005833886563777924,0.00996779277920723
1782771732516053200,3.40605322265625,-0.09569358825683594,0.0014086700975894928,0.012422274798154831
1782771732526032400,3.416032470703125,-0.08611679077148438,0.006197135895490646,0.010028299875557423
1782771732536042200,3.426042236328125,-0.07175159454345703,0.01091143861413002,0.01006969902664423
1782771732546052000,3.436052001953125,-0.09090423583984375,-0.003453705459833145,0.005341693758964539
1782771732556031200,3.44603125,-0.08372211456298828,-0.0010595060884952545,0.0005532903596758842
1782771732566041000,3.456041015625,-0.06935691833496094,0.008457545191049576,0.014978833496570587
1782771732576051000,3.466051025390625,-0.09329891204833984,0.010911669582128525,0.0054022520780563354
1782771732586060500,3.476060546875,-0.09329986572265625,0.013400901108980179,0.015068507753312588
1782771732596040000,3.4860400390625,-0.0789346694946289,0.006197944283485413,0.0007413560524582863
1782771732606049500,3.496049560546875,-0.09329986572265625,-0.008167264983057976,0.005529759451746941
1782771732616059100,3.50605908203125,-0.06935787200927734,0.020503293722867966,-0.0016528451815247536
1782771732626038500,3.51603857421875,-0.06456947326660156,-0.0009242817759513855,-0.008774934336543083
1782771732636048400,3.52604833984375,-0.08851146697998047,0.013414967805147171,0.027112171053886414
1782771732646058000,3.53605810546875,-0.09090518951416016,0.015776239335536957,0.007990548387169838
1782771732656037400,3.546037353515625,-0.06696319580078125,-0.0033174678683280945,0.0032023671083152294
1782771732666047200,3.556047119140625,-0.08611679077148438,0.008696548640727997,0.007974660024046898
1782771732676056800,3.566056884765625,-0.08611679077148438,0.010942559689283371,0.003163208719342947
1782771732686036200,3.5760361328125,-0.08372306823730469,0.0181548073887825,0.017502672970294952
1782771732696046000,3.586046142578125,-0.0813283920288086,0.008611761033535004,0.0055703045800328255
1782771732706055700,3.5960556640625,-0.09090518951416016,0.010978974401950836,0.0032170158810913563
1782771732716035000,3.60603515625,-0.08611679077148438,0.01573890447616577,0.003259809222072363
1782771732726044700,3.616044677734375,-0.0813283920288086,0.010978762060403824,0.005695465952157974
1782771732736054500,3.626054443359375,-0.07175159454345703,0.0038849860429763794,0.01770077273249626
1782771732746033700,3.63603369140625,-0.0789346694946289,0.008587852120399475,0.00810251384973526
1782771732756043500,3.64604345703125,-0.07414627075195312,0.008561570197343826,0.015259706415235996
1782771732766053000,3.65605322265625,-0.07414627075195312,0.006129804998636246,0.015277096070349216
1782771732776032500,3.666032470703125,-0.0765390396118164,-0.010649088770151138,0.012788340449333191
1782771732786042400,3.67604248046875,-0.08372211456298828,0.008425813168287277,0.010363046079874039
1782771732796052200,3.68605224609375,-0.07414531707763672,0.02514725923538208,0.0032019163481891155
1782771732806031400,3.69603125,-0.08372211456298828,0.022818993777036667,0.010340243577957153
1782771732816041000,3.706041015625,-0.09569263458251953,0.006070353090763092,0.005630781874060631
1782771732826050800,3.71605078125,-0.0789337158203125,0.015663348138332367,0.0032665696926414967
1782771732836060400,3.726060302734375,-0.07414531707763672,0.022794269025325775,-0.003939274698495865
1782771732846039800,3.736039794921875,-0.09329891204833984,0.0012116916477680206,-0.008738654665648937
1782771732856049700,3.746049560546875,-0.09329891204833984,0.01074192300438881,0.008062364533543587
1782771732866059300,3.756059326171875,-0.08132648468017578,0.006029888987541199,0.0009238868951797485
1782771732876038700,3.76603857421875,-0.08132648468017578,0.008385736495256424,0.012934871017932892
1782771732886048500,3.776048583984375,-0.08132648468017578,0.017924461513757706,0.010521008633077145
1782771732896058000,3.78605810546875,-0.08851051330566406,0.001195363700389862,0.0008689286187291145
1782771732906037500,3.79603759765625,-0.07414531707763672,0.01552513986825943,0.008033156394958496
1782771732916047000,3.806047119140625,-0.08372211456298828,0.015547066926956177,-0.003950850106775761
1782771732926057000,3.816056884765625,-0.0789327621459961,0.010780930519104004,0.0033387639559805393
1782771732936036000,3.8260361328125,-0.08851051330566406,-0.001161143183708191,0.01762457750737667
1782771732946046000,3.8360458984375,-0.08611488342285156,0.022684205323457718,0.0007288232445716858
1782771732955996200,3.84599609375,-0.1004800796508789,0.012997277081012726,0.010280600748956203
1782771732966126600,3.856126708984375,-0.08372116088867188,0.015388935804367065,0.01030738651752472
1782771732976044800,3.866044921875,-0.08611488342285156,0.012941252440214157,0.0030991085804998875
1782771732986054700,3.8760546875,-0.06696128845214844,0.012889765202999115,0.015158610418438911
1782771732996033800,3.88603369140625,-0.08132553100585938,-0.003952093422412872,-0.0015546772629022598
1782771733006043400,3.89604345703125,-0.06456756591796875,-0.0015196017920970917,0.017637861892580986
1782771733015993600,3.90599365234375,-0.08372020721435547,0.015210110694169998,0.01048844214528799
1782771733026064400,3.916064453125,-0.05738258361816406,0.005607683211565018,0.012856470420956612
1782771733037225000,3.927224853515625,-0.08372020721435547,0.020051367580890656,0.003309032414108515
1782771733055971800,3.945971923828125,-0.07893180847167969,0.01762588694691658,0.0009093219414353371
1782771733066132700,3.9561328125,-0.07893085479736328,0.003217853605747223,0.010452901013195515
1782771733076051000,3.966051025390625,-0.09329605102539062,0.010359372943639755,0.010480017401278019
1782771733086060500,3.976060546875,-0.08132457733154297,0.00559702143073082,0.005664247088134289
1782771733096040000,3.9860400390625,-0.09090232849121094,0.0032332688570022583,-0.0015398506075143814
1782771733106049500,3.996049560546875,-0.08850860595703125,0.0008130073547363281,0.012800145894289017
1782771733116059100,4.00605908203125,-0.08372020721435547,0.007964059710502625,0.02000405639410019
1782771733126038500,4.01603857421875,-0.08611392974853516,0.007997967302799225,-0.001629355363547802
1782771733136048400,4.02604833984375,-0.07893180847167969,0.010364048182964325,0.0031357682310044765
1782771733146058000,4.03605810546875,-0.09090328216552734,0.005667343735694885,0.012744903564453125
1782771733156037400,4.046037353515625,-0.102874755859375,0.0033052191138267517,0.00559396855533123
1782771733166047200,4.056047119140625,-0.09090232849121094,-0.003997154533863068,0.010382602922618389
1782771733176056800,4.066056884765625,-0.08850955963134766,0.010468859225511551,0.00796521082520485
1782771733186036200,4.0760361328125,-0.07174968719482422,0.0033464767038822174,0.003177264239639044
1782771733196046000,4.086046142578125,-0.07414436340332031,0.0033353567123413086,0.01519127655774355
1782771733206055700,4.0960556640625,-0.09808635711669922,0.008049245923757553,0.003262059297412634
1782771733215975400,4.105975341796875,-0.07893180847167969,0.000986434519290924,0.00811075046658516
1782771733226105600,4.116105712890625,-0.09090328216552734,0.005816150456666946,0.02722836099565029
1782771733236054500,4.126054443359375,-0.09090328216552734,0.0035303793847560883,0.0057180579751729965
1782771733246033700,4.13603369140625,-0.08132648468017578,0.0035158582031726837,0.012930534780025482
1782771733256043500,4.14604345703125,-0.0765380859375,0.001042041927576065,0.008156411349773407
1782771733266053000,4.15605322265625,-0.08850955963134766,0.001042105257511139,-0.00860277283936739
1782771733276032500,4.166032470703125,-0.08372116088867188,-0.0013520307838916779,0.015399305149912834
1782771733286042400,4.17604248046875,-0.08132648468017578,-0.0252939835190773,0.0106710409745574
1782771733295992600,4.18599267578125,-0.08611488342285156,0.020190179347991943,0.01309964433312416
1782771733306122800,4.196122802734375,-0.08372116088867188,0.010553594678640366,0.005977402441203594
1782771733316041000,4.206041015625,-0.09569072723388672,0.017720066010951996,0.00834694318473339
1782771733326050800,4.21605078125,-0.06696033477783203,0.015304651111364365,-0.0011913320049643517
1782771733336060400,4.226060302734375,-0.08132553100585938,0.0008599571883678436,0.015600877813994884
1782771733346039800,4.236039794921875,-0.09329700469970703,0.008022326976060867,0.008392149582505226
1782771733356049700,4.246049560546875,-0.08372020721435547,0.017682239413261414,0.025163549929857254
1782771733366059300,4.256059326171875,-0.08372020721435547,0.020090222358703613,0.008416447788476944
1782771733376038700,4.26603857421875,-0.09329700469970703,0.02959698811173439,0.010814415290951729
1782771733386048500,4.276048583984375,-0.06935501098632812,0.015218377113342285,0.017993532121181488
1782771733396058000,4.28605810546875,-0.0717477798461914,0.0007923208177089691,0.01798650436103344
1782771733406037500,4.29603759765625,-0.09090137481689453,0.007917851209640503,0.022701352834701538
1782771733416047000,4.306047119140625,-0.08371925354003906,0.0007493048906326294,0.005880037322640419
1782771733426057000,4.316056884765625,-0.09090137481689453,0.0031079426407814026,0.010676287114620209
1782771733436036000,4.3260361328125,-0.08850765228271484,0.01742338016629219,0.017792273312807083
1782771733446046000,4.3360458984375,-0.08850765228271484,-0.0017568767070770264,-0.013302288949489594
1782771733456055800,4.346055908203125,-0.07893085479736328,-0.006485320627689362,-0.006119227968156338
1782771733466035000,4.356034912109375,-0.08132457733154297,0.02221420407295227,0.008281052112579346
1782771733476044800,4.366044921875,-0.08850765228271484,0.029476217925548553,0.020281456410884857
1782771733486054700,4.3760546875,-0.08611297607421875,0.003213983029127121,0.029685381799936295
1782771733496033800,4.38603369140625,-0.07653617858886719,0.005515042692422867,-0.003865797072649002
1782771733506043400,4.39604345703125,-0.09329605102539062,0.01033056527376175,0.0033486182801425457
1782771733516053000,4.406052978515625,-0.09090137481689453,0.024767473340034485,0.003378605004400015
1782771733525973000,4.415972900390625,-0.0717477798461914,0.017470087856054306,0.005742370150983334
1782771733536043800,4.426043701171875,-0.09329605102539062,0.003181997686624527,-0.001402135007083416
1782771733546113000,4.436113037109375,-0.08611297607421875,0.00302688404917717,0.008214076980948448
1782771733557253000,4.447253173828125,-0.08132457733154297,0.0006922893226146698,-0.01087993010878563
1782771733576111900,4.46611181640625,-0.0765371322631836,-0.0015821754932403564,0.015524226240813732
1782771733586060500,4.476060546875,-0.09090232849121094,0.010510232299566269,0.0012197159230709076
1782771733595980500,4.48598046875,-0.1004800796508789,0.0033871643245220184,-0.005962662398815155
1782771733606110700,4.49611083984375,-0.08132648468017578,0.008295010775327682,0.0037335907109081745
1782771733616059400,4.506059326171875,-0.1004791259765625,0.005840558558702469,0.0037944349460303783
1782771733626038500,4.51603857421875,-0.08132553100585938,0.017811626195907593,-0.005722331814467907
1782771733636048400,4.52604833984375,-0.08850860595703125,0.020114228129386902,0.006299152970314026
1782771733645998600,4.53599853515625,-0.09808540344238281,0.005778983235359192,0.011134795844554901
1782771733656128800,4.546128662109375,-0.08611392974853516,0.000960569828748703,0.015901504084467888
1782771733666047200,4.556047119140625,-0.09090232849121094,0.010624177753925323,0.02544323354959488
1782771733676057000,4.56605712890625,-0.1004791259765625,0.0010771788656711578,0.018279824405908585
1782771733686036200,4.5760361328125,-0.08372116088867188,0.003508150577545166,0.006277138367295265
1782771733696046000,4.586046142578125,-0.07893180847167969,0.010599270462989807,0.0062985727563500404
1782771733706055700,4.5960556640625,-0.08611297607421875,0.012901019304990768,0.006265304982662201
1782771733716035000,4.60603515625,-0.08132553100585938,0.00575975701212883,0.006186935119330883
1782771733726044700,4.616044677734375,-0.11244964599609375,0.017634741961956024,0.013395722955465317
1782771733736054500,4.626054443359375,-0.0741424560546875,0.003240630030632019,0.003791611175984144
1782771733746033700,4.63603369140625,-0.0980844497680664,0.01989741250872612,0.013332044705748558
1782771733756043500,4.64604345703125,-0.07653617858886719,0.0007153935730457306,0.008455833420157433
1782771733766053400,4.656053466796875,-0.08371925354003906,-0.008815551176667213,0.0035893884487450123
1782771733776032500,4.666032470703125,-0.08850765228271484,0.015159998089075089,0.013196032494306564
1782771733786042400,4.67604248046875,-0.08850860595703125,-0.003955956548452377,0.022672154009342194
1782771733796052200,4.68605224609375,-0.08611297607421875,-0.004023842513561249,0.003500740509480238
1782771733806031400,4.69603125,-0.07893085479736328,0.015129897743463516,-0.008409712463617325
1782771733816041000,4.706041015625,-0.09808540344238281,0.0032185353338718414,0.005955498665571213
1782771733826050800,4.71605078125,-0.07893085479736328,0.012735385447740555,0.006016045808792114
1782771733836060400,4.726060302734375,-0.07893180847167969,-0.008752526715397835,-0.0011663297191262245
1782771733846039800,4.736039794921875,-0.08611392974853516,0.008067045360803604,0.013199107721447945
1782771733856049700,4.746049560546875,-0.08850860595703125,0.003338359296321869,0.0036821789108216763
1782771733866059300,4.756059326171875,-0.08132457733154297,-0.0014500431716442108,0.01571328192949295
1782771733876038700,4.76603857421875,-0.08132553100585938,0.00344780832529068,0.020536869764328003
1782771733886048500,4.776048583984375,-0.07893180847167969,0.0010456554591655731,0.010938268154859543
1782771733896058000,4.78605810546875,-0.08611488342285156,0.0035466141998767853,0.022927798330783844
1782771733906037200,4.796037353515625,-0.0765380859375,-0.0011908523738384247,0.003802151884883642
1782771733916047000,4.806047119140625,-0.08372116088867188,0.006051402539014816,-0.0009862510487437248
1782771733926056700,4.816056640625,-0.08611488342285156,0.0011932514607906342,0.013410501182079315
1782771733936036000,4.8260361328125,-0.062172889709472656,-0.001200951635837555,-0.0032890774309635162
1782771733946046000,4.8360458984375,-0.06696128845214844,-0.0035951510071754456,0.013470334932208061
1782771733956055600,4.8460556640625,-0.08132648468017578,0.01566898822784424,0.013449335470795631
1782771733966035000,4.856034912109375,-0.1004800796508789,0.00128888338804245,0.018253996968269348
1782771733976044800,4.866044921875,-0.09329795837402344,0.0012805089354515076,0.015771202743053436
1782771733986054700,4.8760546875,-0.08850955963134766,0.01814131811261177,0.01579207368195057
1782771733996033800,4.88603369140625,-0.09090423583984375,0.018231216818094254,0.015863817185163498
1782771734006043400,4.89604345703125,-0.09090328216552734,0.01818838343024254,0.010960258543491364
1782771734016053000,4.906052978515625,-0.09569263458251953,0.01813868060708046,0.01569054275751114
1782771734026032400,4.916032470703125,-0.06696128845214844,0.018029384315013885,-0.005957312881946564
1782771734036042200,4.926042236328125,-0.08372211456298828,0.008524734526872635,0.006036167033016682
1782771734046052000,4.936052001953125,-0.08851051330566406,0.008474823087453842,0.02041236311197281
1782771734056031200,4.94603125,-0.08372116088867188,0.029960844665765762,-0.0011746762320399284
1782771734066041000,4.956041015625,-0.0765390396118164,-0.005881953984498978,0.015539996325969696
1782771734076051000,4.966051025390625,-0.09808731079101562,-0.005851853638887405,0.003597151953727007
1782771734086060500,4.976060546875,-0.09090328216552734,0.0012495443224906921,-0.0012123435735702515
1782771734096039700,4.986039794921875,-0.08851051330566406,0.0156492218375206,0.018034247681498528
1782771734106049500,4.996049560546875,-0.06935596466064453,0.0012645386159420013,-0.0034720422700047493
1782771734116059400,5.006059326171875,-0.09090423583984375,-0.0010698996484279633,-0.0010780654847621918
1782771734126038500,5.01603857421875,-0.0789327621459961,-0.0011298581957817078,0.0013766838237643242
1782771734136048400,5.02604833984375,-0.07414436340332031,-0.0011894404888153076,0.022984374314546585
1782771734146058000,5.03605810546875,-0.08611488342285156,0.010887622833251953,0.01105094701051712
1782771734155978000,5.04597802734375,-0.08132648468017578,0.006021711975336075,0.01592729613184929
1782771734166108200,5.056108154296875,-0.08850955963134766,-0.013139724731445312,0.013560079038143158
1782771734176056800,5.066056884765625,-0.08372116088867188,0.02030346170067787,0.001563284546136856
1782771734186036200,5.0760361328125,-0.07414436340332031,0.008316073566675186,0.00872095674276352
1782771734196046000,5.086046142578125,-0.09808635711669922,0.001120045781135559,0.008697794750332832
1782771734206055700,5.0960556640625,-0.09090328216552734,0.005954559892416,0.008614907041192055
1782771734216035000,5.10603515625,-0.08850955963134766,-0.008410582318902016,0.006220933049917221
1782771734225924000,5.115924072265625,-0.08850955963134766,0.017976488918066025,0.00860215350985527
1782771734237058800,5.127058837890625,-0.08850955963134766,0.008438266813755035,0.02777603268623352
1782771734256104400,5.1461044921875,-0.09569168090820312,0.01796342432498932,0.01096061896532774
1782771734266053000,5.15605322265625,-0.08850955963134766,0.02043585106730461,-0.0010004015639424324
1782771734276032500,5.166032470703125,-0.08372116088867188,-0.008314279839396477,0.006211132742464542
1782771734286042400,5.17604248046875,-0.10526847839355469,0.006033182144165039,0.010971681214869022
1782771734296052200,5.18605224609375,-0.09569263458251953,0.0012910738587379456,-0.003472006879746914
1782771734306031400,5.19603125,-0.08611583709716797,0.008473802357912064,-0.005865752696990967
1782771734316041000,5.206041015625,-0.08850955963134766,0.02759838104248047,0.015719406306743622
1782771734325991200,5.2159912109375,-0.08611583709716797,0.020436633378267288,0.006117916665971279
1782771734336121600,5.22612158203125,-0.08372116088867188,0.0133289135992527,0.013329882174730301
1782771734346039800,5.236039794921875,-0.09808635711669922,0.010891709476709366,0.00863257423043251
1782771734355990000,5.245989990234375,-0.06696128845214844,0.020362820476293564,0.001424725167453289
1782771734366120400,5.256120361328125,-0.08372020721435547,0.017845645546913147,0.01587015762925148
1782771734376038700,5.26603857421875,-0.08132553100585938,0.010668288916349411,0.01098449993878603
1782771734386048500,5.276048583984375,-0.08132553100585938,0.017788905650377274,-0.0008996035903692245
1782771734396058000,5.28605810546875,-0.09090232849121094,0.012995652854442596,0.025389347225427628
1782771734406037500,5.29603759765625,-0.06935501098632812,0.0010364986956119537,0.0014718808233737946
1782771734416047000,5.306047119140625,-0.0741434097290039,0.0010613314807415009,0.011077321134507656
1782771734426056700,5.316056640625,-0.09569072723388672,0.0010334216058254242,0.008714539930224419
1782771734436036000,5.3260361328125,-0.09329700469970703,-0.00138150155544281,-0.0008238749578595161
1782771734446046000,5.3360458984375,-0.09569072723388672,0.0009934529662132263,0.015908781439065933
1782771734456055600,5.3460556640625,-0.08372020721435547,-0.00614243745803833,0.018272487446665764
1782771734466035000,5.356034912109375,-0.09090232849121094,0.0058089010417461395,0.025401994585990906
1782771734476044800,5.366044921875,-0.09808540344238281,0.003458317369222641,-0.0009112460538744926
1782771734486054700,5.3760546875,-0.09090328216552734,0.01546918973326683,-0.003211759030818939
1782771734496033800,5.38603369140625,-0.08850860595703125,0.008265204727649689,0.006339581683278084
1782771734506043400,5.39604345703125,-0.09808540344238281,0.01781369000673294,0.0015282565727829933
1782771734516053000,5.406052978515625,-0.09808635711669922,0.008334990590810776,0.015813155099749565
1782771734525973000,5.415972900390625,-0.09329795837402344,0.008314140141010284,0.011003946885466576
1782771734536103200,5.426103271484375,-0.09090232849121094,0.015470419079065323,-0.010617933236062527
1782771734546052000,5.436052001953125,-0.09808635711669922,0.01316891610622406,0.00851931981742382
1782771734556031200,5.44603125,-0.09090328216552734,-0.010673031210899353,0.013348560780286789
1782771734566041000,5.456041015625,-0.09808635711669922,0.0109197236597538,0.006152796559035778
1782771734576051000,5.466051025390625,-0.0789327621459961,0.008449528366327286,-0.0010409187525510788
1782771734586001200,5.476001220703125,-0.07174968719482422,-0.0011272132396697998,0.006202005781233311
1782771734596131300,5.48613134765625,-0.08611488342285156,0.0013863183557987213,0.00871584564447403
1782771734606049500,5.496049560546875,-0.08611488342285156,0.01096312329173088,0.001472541131079197
1782771734616059400,5.506059326171875,-0.0789337158203125,0.0062341392040252686,0.003867188934236765
1782771734626038500,5.51603857421875,-0.08372211456298828,-0.0009483993053436279,-0.005649297498166561
1782771734635988700,5.52598876953125,-0.08611488342285156,0.01814562827348709,-0.0007413681596517563
1782771734646119200,5.536119140625,-0.08850955963134766,0.022904321551322937,0.018396681174635887
1782771734655978000,5.54597802734375,-0.08850955963134766,0.013224150985479355,0.01842682808637619
1782771734666108200,5.556108154296875,-0.08611488342285156,0.015570759773254395,-0.012715154327452183
1782771734677189600,5.567189697265625,-0.0765380859375,-0.0012237392365932465,0.011266728863120079
1782771734696046000,5.586046142578125,-0.0741424560546875,0.008161801844835281,0.00895359180867672
1782771734706055700,5.5960556640625,-0.08850765228271484,0.0224694162607193,0.004198115784674883
1782771734716035000,5.60603515625,-0.09329605102539062,0.0010037757456302643,0.009024549275636673
1782771734726044700,5.616044677734375,-0.1004781723022461,0.0010337978601455688,0.009003181010484695
1782771734736054500,5.626054443359375,-0.08850860595703125,-0.0013234689831733704,0.006589246913790703
1782771734746033700,5.63603369140625,-0.08371925354003906,0.0034483149647712708,0.008967394009232521
1782771734756043500,5.64604345703125,-0.08372020721435547,0.01311325654387474,0.028141718357801437
1782771734766053400,5.656053466796875,-0.08611392974853516,0.010740738362073898,0.011396265588700771
1782771734776032500,5.666032470703125,-0.08132457733154297,0.022597484290599823,0.018520357087254524
1782771734786042400,5.67604248046875,-0.09090328216552734,0.01068982481956482,0.013670481741428375
1782771734796052200,5.68605224609375,-0.08850955963134766,0.010691199451684952,0.023174703121185303
1782771734806031400,5.69603125,-0.08611392974853516,0.01780864968895912,0.011132493615150452
1782771734816041000,5.706041015625,-0.08371925354003906,0.008113354444503784,-0.0032868245616555214
1782771734825991200,5.7159912109375,-0.07893085479736328,0.0032704398036003113,0.03261113911867142
1782771734836274200,5.726274169921875,-0.08611297607421875,0.017703194171190262,0.0037663006223738194
1782771734846039800,5.736039794921875,-0.1004791259765625,0.008149586617946625,-0.010567603632807732
1782771734856049700,5.746049560546875,-0.10526752471923828,0.012957904487848282,0.013401109725236893
1782771734866000000,5.755999755859375,-0.08850860595703125,0.0010759271681308746,-0.0009284345433115959
1782771734877101000,5.76710107421875,-0.0765371322631836,0.022623322904109955,0.013453122228384018
1782771734896058000,5.78605810546875,-0.102874755859375,0.013097826391458511,-0.005625735968351364
1782771734906037200,5.796037353515625,-0.09090232849121094,0.015444863587617874,0.006380973383784294
1782771734915987500,5.805987548828125,-0.08372116088867188,0.010729163885116577,-0.005487613379955292
1782771734926058200,5.816058349609375,-0.0741424560546875,0.029758386313915253,0.004130352754145861
1782771734936127700,5.826127685546875,-0.0765371322631836,0.010671291500329971,0.008899878710508347
1782771734946046000,5.8360458984375,-0.08611392974853516,0.01539628580212593,0.0016971714794635773
1782771734956055600,5.8460556640625,-0.08611297607421875,0.02017318829894066,0.004130067769438028
1782771734966035000,5.856034912109375,-0.09568977355957031,0.005817830562591553,0.006567535921931267
1782771734976044800,5.866044921875,-0.1004781723022461,0.010562218725681305,0.004217586014419794
1782771734986054700,5.8760546875,-0.08850765228271484,0.005793344229459763,0.018619950860738754
1782771734996033800,5.88603369140625,-0.1004781723022461,-0.0014161691069602966,0.021049531176686287
1782771735006043400,5.89604345703125,-0.08850765228271484,0.001013331115245819,0.01150570996105671
1782771735016053000,5.906052978515625,-0.07893180847167969,0.008346419781446457,0.0019613374024629593
1782771735026032400,5.916032470703125,-0.09090232849121094,0.03223685920238495,0.011561884544789791
1782771735035982600,5.925982666015625,-0.09090232849121094,-0.008494993671774864,0.011531563475728035
1782771735046053600,5.9360537109375,-0.09569072723388672,0.008239924907684326,-0.007579833269119263
1782771735056123000,5.946122802734375,-0.09090328216552734,0.0012187957763671875,0.001983429305255413
1782771735066041000,5.956041015625,-0.09569072723388672,0.01794523373246193,0.02840818464756012
1782771735076051000,5.966051025390625,-0.08611297607421875,0.022628430277109146,0.011669658124446869
1782771735086060500,5.976060546875,-0.07893085479736328,0.02017352730035782,0.011682858690619469
1782771735096040000,5.9860400390625,-0.08371925354003906,0.02261539176106453,-0.00021018553525209427
1782771735106049500,5.996049560546875,-0.09090137481689453,-0.010948572307825089,0.021292906254529953
1782771735116059400,6.006059326171875,-0.09329605102539062,0.005942583084106445,0.02368728443980217
1782771735126038500,6.01603857421875,-0.08850765228271484,0.01791634038090706,0.014105930924415588
1782771735136048400,6.02604833984375,-0.07893180847167969,0.008288867771625519,0.004475963767617941
1782771735146058000,6.03605810546875,-0.08372020721435547,0.008242368698120117,0.014060374349355698
1782771735156037400,6.046037353515625,-0.08371925354003906,0.005802866071462631,0.016336854547262192
1782771735166047200,6.056047119140625,-0.07653617858886719,0.015269923955202103,0.006646781228482723
1782771735176057000,6.06605712890625,-0.08132457733154297,0.020060110837221146,0.006536724045872688
1782771735186036200,6.0760361328125,-0.07893085479736328,0.024785075336694717,0.004160238895565271
1782771735196046000,6.086046142578125,-0.08132457733154297,-0.01600145362317562,-0.0005901744589209557
1782771735206055700,6.0960556640625,-0.08611297607421875,0.010420937091112137,0.023375360295176506
1782771735216035000,6.10603515625,-0.1004781723022461,0.015169158577919006,0.018602337688207626
1782771735226044700,6.116044677734375,-0.07653617858886719,0.010396171361207962,0.006526248529553413
1782771735236054500,6.126054443359375,-0.08611297607421875,0.007971227169036865,-0.003076133318245411
1782771735246033700,6.13603369140625,-0.07653617858886719,0.008054297417402267,0.011256170459091663
1782771735256043500,6.14604345703125,-0.08850765228271484,0.005684617906808853,0.004162154626101255
1782771735266053000,6.15605322265625,-0.08611297607421875,0.01289147138595581,-0.000590507872402668
1782771735276032500,6.166032470703125,-0.08611297607421875,0.008127175271511078,0.006507939659059048
1782771735286042400,6.17604248046875,-0.08611392974853516,-0.0014194101095199585,0.011209634132683277
1782771735296052200,6.18605224609375,-0.09568977355957031,0.012971848249435425,0.0065134260803461075
1782771735306031400,6.19603125,-0.06935405731201172,0.017722703516483307,0.009000374004244804
1782771735316041000,6.206041015625,-0.09568977355957031,0.0033206790685653687,0.013755131512880325
1782771735326050800,6.21605078125,-0.08371925354003906,0.022421617060899734,0.011319490149617195
1782771735336060400,6.226060302734375,-0.09329605102539062,0.010342475026845932,0.013612428680062294
1782771735346039800,6.236039794921875,-0.09329605102539062,-0.0017248131334781647,0.018417267128825188
1782771735356049700,6.246049560546875,-0.09090042114257812,0.017447058111429214,0.004072741139680147
1782771735366059300,6.256059326171875,-0.08132362365722656,0.019792281091213226,0.001703527756035328
1782771735376038700,6.26603857421875,-0.09329509735107422,0.024577368050813675,0.0065147727727890015
1782771735386048500,6.276048583984375,-0.0956888198852539,-0.004141256213188171,0.008933143690228462
1782771735396058000,6.28605810546875,-0.08850669860839844,0.007846947759389877,0.00656685046851635
1782771735405977900,6.295977783203125,-0.07892990112304688,0.0030835382640361786,0.008991368114948273
1782771735416108300,6.3061083984375,-0.09090042114257812,-0.0040634386241436005,0.004179168026894331
1782771735426057000,6.316056884765625,-0.1004781723022461,0.00554744154214859,0.025689197704195976
1782771735436036000,6.3260361328125,-0.10047721862792969,0.010323651134967804,-0.010175338946282864
1782771735446046000,6.3360458984375,-0.09090137481689453,0.015147320926189423,0.013744842261075974
1782771735456055800,6.346055908203125,-0.0956888198852539,0.012720867991447449,0.011381561867892742
1782771735466035000,6.356034912109375,-0.0956888198852539,0.012684036046266556,0.028218397870659828
1782771735476044800,6.366044921875,-0.10526561737060547,0.019818276166915894,0.006685245782136917
1782771735486054700,6.3760546875,-0.09329509735107422,0.01259949803352356,-0.009977287612855434
1782771735496033800,6.38603369140625,-0.0956888198852539,0.0030517801642417908,0.01399901695549488
1782771735506043400,6.39604345703125,-0.09329509735107422,0.005412332713603973,0.021204710006713867
1782771735516053200,6.40605322265625,-0.08850669860839844,0.012553371489048004,-0.005104974843561649
1782771735526032400,6.416032470703125,-0.08850669860839844,0.0004885420203208923,0.016346368938684464
1782771735536042200,6.426042236328125,-0.08850669860839844,0.007760137319564819,-0.002833046019077301
1782771735546052000,6.436052001953125,-0.08850669860839844,0.01969137042760849,0.011441697366535664
1782771735556031200,6.44603125,-0.09329509735107422,0.007737651467323303,0.020976396277546883
1782771735566041000,6.456041015625,-0.09090042114257812,0.01726837083697319,0.013810483738780022
1782771735576051000,6.466051025390625,-0.07653522491455078,0.007645886391401291,0.016096584498882294
1782771735586060500,6.476060546875,-0.0956888198852539,0.010117705911397934,-0.000699811615049839
1782771735596040000,6.4860400390625,-0.09329605102539062,0.017369184643030167,-0.0031251395121216774
1782771735605990100,6.495990234375,-0.08850669860839844,0.010147430002689362,-0.0055367834866046906
1782771735616061000,6.50606103515625,-0.09808349609375,-0.0018553845584392548,0.0065349992364645
1782771735626130000,6.5161298828125,-0.09808349609375,0.0029695741832256317,0.011365882121026516
1782771735636048400,6.52604833984375,-0.08850669860839844,0.010255824774503708,0.0018989639356732368
1782771735646058000,6.53605810546875,-0.08611202239990234,0.017339050769805908,0.009116556495428085
1782771735655978000,6.54597802734375,-0.09329509735107422,0.017288681119680405,0.01147933304309845
1782771735666108200,6.556108154296875,-0.07653427124023438,-0.004400555044412613,0.0018870104104280472
1782771735676057000,6.56605712890625,-0.09089946746826172,0.01238664984703064,0.008986543864011765
1782771735686036200,6.5760361328125,-0.09808349609375,0.0028997957706451416,0.00417707534506917
1782771735696046000,6.586046142578125,-0.08371829986572266,0.005325924605131149,0.02090744860470295
1782771735706055700,6.5960556640625,-0.09090042114257812,0.012598294764757156,0.020872173830866814
1782771735716035000,6.60603515625,-0.08850669860839844,-0.0017323456704616547,0.016104895621538162
1782771735726044700,6.616044677734375,-0.09329509735107422,0.010266758501529694,0.013663878664374352
1782771735736054500,6.626054443359375,-0.09329509735107422,0.007782280445098877,0.008951747789978981
1782771735745974300,6.635974365234375,-0.0717477798461914,-0.006540872156620026,0.011190485209226608
1782771735756104400,6.6461044921875,-0.10526657104492188,0.007862064987421036,0.008817711845040321
1782771735766053000,6.65605322265625,-0.10287284851074219,0.003048676997423172,0.020734798163175583
1782771735776032500,6.666032470703125,-0.0741424560546875,0.0006973408162593842,0.003938963171094656
1782771735786042400,6.67604248046875,-0.09090137481689453,0.0031349509954452515,0.008690817281603813
1782771735796052200,6.68605224609375,-0.10766124725341797,0.02470707893371582,0.013431312516331673
1782771735806031400,6.69603125,-0.09568977355957031,0.015093162655830383,0.008600594475865364
1782771735816041000,6.706041015625,-0.09568977355957031,0.005552332848310471,0.008573196828365326
1782771735826050800,6.71605078125,-0.1004781723022461,-0.003988519310951233,0.022955264896154404
1782771735836060400,6.726060302734375,-0.11723804473876953,0.0031702034175395966,0.02535487525165081
1782771735846039800,6.736039794921875,-0.08850765228271484,0.007998887449502945,-0.0034094853326678276
1782771735856049700,6.746049560546875,-0.09329605102539062,0.010426536202430725,0.013367727398872375
1782771735866059300,6.756059326171875,-0.09329605102539062,0.01039685308933258,0.010989690199494362
1782771735876038700,6.76603857421875,-0.09329605102539062,-0.0016567409038543701,0.015734340995550156
1782771735886048500,6.776048583984375,-0.08611297607421875,-0.001734178513288498,0.0061783334240317345
1782771735896058000,6.78605810546875,-0.09090137481689453,-0.006531141698360443,0.008544016629457474
1782771735906037200,6.796037353515625,-0.10287284851074219,0.007881972938776016,0.008512880653142929
1782771735916047000,6.806047119140625,-0.10526657104492188,0.0031402893364429474,0.010873891413211823
1782771735926057000,6.816056884765625,-0.09090137481689453,0.012762065976858139,0.003725795540958643
1782771735936036000,6.8260361328125,-0.08371925354003906,0.007959287613630295,0.018124867230653763
1782771735946046000,6.8360458984375,-0.07653617858886719,0.019852004945278168,-0.0033821873366832733
1782771735956055800,6.846055908203125,-0.08611297607421875,-0.004030052572488785,0.0013468433171510696
1782771735966035000,6.856034912109375,-0.09568977355957031,0.007988493889570236,0.01324247196316719
1782771735976044800,6.866044921875,-0.09568977355957031,0.02226858213543892,0.015729768201708794
1782771735986054700,6.8760546875,-0.09568977355957031,0.012662123888731003,0.015698056668043137
1782771735996033800,6.88603369140625,-0.09329605102539062,-0.008905580267310143,0.010879452340304852
1782771736006043400,6.89604345703125,-0.09568977355957031,0.005442805588245392,-0.0035064946860074997
1782771736016053200,6.90605322265625,-0.08371925354003906,0.005502693355083466,0.0013419780880212784
1782771736026032400,6.916032470703125,-0.09329605102539062,0.012664861977100372,0.013291336596012115
1782771736036042200,6.926042236328125,-0.07893085479736328,0.010305557399988174,0.013264337554574013
1782771736046052000,6.936052001953125,-0.09568977355957031,0.012725044041872025,0.018072737380862236
1782771736056031200,6.94603125,-0.07893085479736328,-0.0041173286736011505,0.006069245748221874
1782771736066041000,6.956041015625,-0.09329605102539062,0.01746145635843277,0.018063252791762352
1782771736076051000,6.966051025390625,-0.0980844497680664,0.0007410198450088501,0.0012178514152765274
1782771736086060500,6.976060546875,-0.08611297607421875,0.02230989933013916,0.00848424807190895
1782771736096040000,6.9860400390625,-0.09090137481689453,0.00312737375497818,0.0037285625003278255
1782771736106049500,6.996049560546875,-0.09090137481689453,0.007945649325847626,0.013393411412835121
1782771736116059400,7.006059326171875,-0.10766124725341797,0.007976651191711426,0.003848919179290533
1782771736126038500,7.01603857421875,-0.11244964599609375,0.005614534020423889,0.008609326556324959
1782771736136048400,7.02604833984375,-0.09568977355957031,0.012886233627796173,-0.017740510404109955
1782771736146058000,7.03605810546875,-0.10526752471923828,-0.0037529319524765015,0.0038676303811371326
1782771736155978000,7.04597802734375,-0.10766124725341797,0.02487931400537491,0.008697329089045525
1782771736166108200,7.056108154296875,-0.09090232849121094,0.0010567978024482727,-0.003273450769484043
1782771736176057000,7.06605712890625,-0.10766220092773438,0.0010568685829639435,0.008697787299752235
1782771736186036200,7.0760361328125,-0.09329700469970703,0.003391418606042862,0.013546144589781761
1782771736196046000,7.086046142578125,-0.10766220092773438,0.020113203674554825,0.018302597105503082
1782771736206056000,7.096055908203125,-0.0980844497680664,0.008104246109724045,0.006359770894050598
1782771736216035000,7.10603515625,-0.09090137481689453,0.0008966289460659027,0.011122242547571659
1782771736226044700,7.116044677734375,-0.0980844497680664,0.0033301040530204773,0.013550296425819397
1782771736235995000,7.125994873046875,-0.1028738021850586,0.010550670325756073,-0.003109569661319256
1782771736246096100,7.13609619140625,-0.0980844497680664,0.01285325363278389,0.020857740193605423
1782771736256104400,7.1461044921875,-0.09329605102539062,0.003252614289522171,0.01603761687874794
1782771736266053400,7.156053466796875,-0.08611297607421875,0.019976094365119934,0.011210844852030277
1782771736276032500,7.166032470703125,-0.10766124725341797,0.0056349895894527435,0.016015082597732544
1782771736286042400,7.17604248046875,-0.08850765228271484,0.015228621661663055,0.008846305310726166
1782771736296052200,7.18605224609375,-0.08132457733154297,0.008067075163125992,0.0016269152984023094
1782771736306031400,7.19603125,-0.09568977355957031,0.01765899360179901,0.004046864341944456
1782771736316041000,7.206041015625,-0.08850765228271484,0.008102815598249435,-0.0007073888555169106
1782771736326050800,7.21605078125,-0.0980844497680664,0.010452419519424438,0.015957411378622055
1782771736336060400,7.226060302734375,-0.09808540344238281,0.017706945538520813,0.003956057596951723
1782771736346039800,7.236039794921875,-0.06935501098632812,0.015323273837566376,0.003928299527615309
1782771736356049700,7.246049560546875,-0.09329700469970703,0.0009784549474716187,0.006357467733323574
1782771736366059300,7.256059326171875,-0.09329700469970703,-0.0013839378952980042,-0.0008430741727352142
1782771736376038700,7.26603857421875,-0.09329700469970703,-0.001346684992313385,0.011108110658824444
1782771736386048500,7.276048583984375,-0.09569072723388672,0.0034904591739177704,0.013490146026015282
1782771736396058000,7.28605810546875,1.4437789916992188,-0.09449170529842377,0.3025928735733032
1782771736406037500,7.29603759765625,-1.151535987854004,0.06125158816576004,-0.00853318627923727
1782771736416047000,7.306047119140625,-0.31108856201171875,0.002988811582326889,0.005290480330586433
1782771736426057000,7.316056884765625,-0.12434959411621094,0.018375761806964874,-0.008062368258833885
1782771736436036000,7.3260361328125,-0.11956977844238281,0.024121519178152084,0.02168605849146843
1782771736446046000,7.3360458984375,-0.06212329864501953,0.016005493700504303,0.04255644977092743
1782771736456055800,7.346055908203125,0.08390331268310547,-0.01269182376563549,0.0331941619515419
