time,seconds_elapsed,z,y,x
1782771630134784800,0.20978466796875,-0.01673412322998047,-0.0007675234228372574,0.0005987029289826751
1782771630144794600,0.219794677734375,-0.03828144073486328,0.016055233776569366,-0.013893081806600094
1782771630154804500,0.229804443359375,-0.055042266845703125,0.023297691717743874,-0.004435866139829159
1782771630164783600,0.23978369140625,-0.055042266845703125,0.01856933906674385,0.012203553691506386
1782771630174793200,0.249793212890625,-0.03586101531982422,0.013447366654872894,-0.0157802551984787
1782771630184803000,0.259802978515625,-0.038254737854003906,0.013687606900930405,-0.008477916941046715
1782771630194782200,0.2697822265625,-0.033466339111328125,0.011293385177850723,-0.017935384064912796
1782771630204792000,0.2797919921875,-0.04304313659667969,-0.012648630887269974,-0.01548130065202713
1782771630214802000,0.289802001953125,-0.06219673156738281,0.013687584549188614,-0.01308729313313961
1782771630224781000,0.299781005859375,-0.05977344512939453,0.018586348742246628,-0.00915287435054779
1782771630234791000,0.309791015625,-0.043013572692871094,0.0066154152154922485,-0.013821742497384548
1782771630244800800,0.31980078125,-0.05019664764404297,-0.01493234932422638,0.0005437079817056656
1782771630254780000,0.32977978515625,-0.05019664764404297,0.023434653878211975,-0.008973504416644573
1782771630264789800,0.339789794921875,-0.040619850158691406,0.021040447056293488,-0.016156107187271118
1782771630274799400,0.34979931640625,-0.047801971435546875,0.0066154152154922485,0.005451536737382412
1782771630284778800,0.35977880859375,-0.052590370178222656,0.001887042075395584,0.007905595004558563
1782771630294788600,0.36978857421875,-0.04540824890136719,0.011523488909006119,-0.0016115587204694748
1782771630304798200,0.379798095703125,-0.05737876892089844,-0.005235858261585236,0.015208184719085693
1782771630314777300,0.38977734375,-0.04540824890136719,0.011463731527328491,0.012873813509941101
1782771630324787200,0.399787109375,-0.05019664764404297,0.013857923448085785,0.0033569210208952427
1782771630334797000,0.409797119140625,-0.06216716766357422,0.009129349142313004,0.008145324885845184
1782771630344776200,0.419776123046875,-0.07174396514892578,-0.01720680482685566,-0.0038254456594586372
1782771630354786000,0.4297861328125,-0.03822517395019531,0.009069893509149551,-0.0037653231993317604
1782771630364796000,0.4397958984375,-0.043013572692871094,-0.000506911426782608,0.012994088232517242
1782771630374775000,0.449775146484375,-0.05019569396972656,-0.002901114523410797,0.003536947537213564
1782771630384785000,0.459784912109375,-0.05019569396972656,0.009009979665279388,0.0059311483055353165
1782771630394794500,0.46979443359375,-0.062165260314941406,0.0017676129937171936,-0.00603962317109108
1782771630404804400,0.479804443359375,-0.04780101776123047,-0.0005663633346557617,0.017962966114282608
1782771630414783500,0.489783447265625,-0.0669546127319336,0.004281867295503616,0.0083861593157053
1782771630424793300,0.49979345703125,-0.05498504638671875,0.004341781139373779,-0.0010708235204219818
1782771630434803200,0.50980322265625,-0.05498504638671875,0.018766824156045914,-0.0034051937982439995
1782771630444782300,0.5197822265625,-0.04540824890136719,-0.005114957690238953,-0.015255538746714592
1782771630454792200,0.529792236328125,-0.031043052673339844,0.0164925716817379,0.0063521601259708405
1782771630464802000,0.539802001953125,-0.05977344512939453,0.011644136160612106,0.006412493996322155
1782771630474781200,0.54978125,-0.06216716766357422,0.006855744868516922,-0.010227255523204803
1782771630484791000,0.559791015625,-0.07174396514892578,0.0020674020051956177,-0.003044411540031433
1782771630494800600,0.569800537109375,-0.07413864135742188,0.03083590418100357,-0.010222744196653366
1782771630504779800,0.57977978515625,-0.05019664764404297,0.006928686052560806,0.008931364864110947
1782771630514789600,0.58978955078125,-0.05737876892089844,0.006988406181335449,0.01372000202536583
1782771630524799500,0.599799560546875,-0.06216716766357422,0.006988469511270523,-0.002918980084359646
1782771630534778600,0.609778564453125,-0.052590370178222656,-0.0025283582508563995,-0.000464477576315403
1782771630544788500,0.61978857421875,-0.0669565200805664,0.0023798681795597076,0.018629223108291626
1782771630554798300,0.62979833984375,-0.07413959503173828,0.0023799389600753784,0.0019298754632472992
1782771630564777500,0.639777587890625,-0.045409202575683594,0.0143510103225708,0.004264218267053366
1782771630574787300,0.649787353515625,-0.0693511962890625,0.00004544481635093689,0.009112272411584854
1782771630584797000,0.659796875,-0.0430145263671875,0.002499818801879883,0.004384198691695929
1782771630594776000,0.669776123046875,-0.054986000061035156,0.014590561389923096,-0.007586577907204628
1782771630604786000,0.679785888671875,-0.057379722595214844,-0.009351527318358421,0.011686626821756363
1782771630614795800,0.689795654296875,-0.07174491882324219,0.009861987084150314,0.006838624365627766
1782771630624775000,0.69977490234375,-0.06456279754638672,-0.002048790454864502,-0.0050718216225504875
1782771630634784800,0.70978466796875,-0.06456279754638672,0.0027396902441978455,0.009353265166282654
1782771630644794600,0.719794677734375,-0.057379722595214844,0.007528167217969894,-0.00022330787032842636
1782771630654804500,0.729804443359375,-0.0717458724975586,0.0075880661606788635,0.0068996986374258995
1782771630664783600,0.73978369140625,-0.054986000061035156,0.007527898997068405,0.00929366797208786
1782771630674793500,0.74979345703125,-0.05498695373535156,0.007647208869457245,-0.0026176925748586655
1782771630684803000,0.759802978515625,-0.07892894744873047,-0.009112140163779259,-0.0026775505393743515
1782771630694782200,0.7697822265625,-0.05259227752685547,0.0053129009902477264,0.011747491545975208
1782771630704792000,0.7797919921875,-0.07892990112304688,0.005372956395149231,-0.00261725764721632
1782771630714802000,0.789802001953125,-0.05977630615234375,0.014889925718307495,-0.00010338332504034042
1782771630724781000,0.799781005859375,-0.08611106872558594,-0.013900652527809143,-0.007226131856441498
1782771630734791000,0.809791015625,-0.0693511962890625,0.005252949893474579,0.0095929354429245
1782771630744800800,0.81980078125,-0.0693521499633789,0.0029189251363277435,0.014381570741534233
1782771630754780000,0.82977978515625,-0.0669565200805664,0.007647491991519928,0.0024105599150061607
1782771630764789800,0.839789794921875,-0.07413959503173828,0.0028592348098754883,-0.0023773806169629097
1782771630774799400,0.84979931640625,-0.057381629943847656,0.0029789023101329803,0.014322200790047646
1782771630784778800,0.85977880859375,-0.07653522491455078,0.007827546447515488,-0.012013556435704231
1782771630794788600,0.86978857421875,-0.06695842742919922,0.005493137985467911,-0.0023766430094838142
1782771630804798200,0.879798095703125,-0.06935310363769531,0.005493275821208954,-0.012013083323836327
1782771630814777300,0.88977734375,-0.09090042114257812,0.015129778534173965,0.026413345709443092
1782771630824787200,0.899787109375,-0.07653522491455078,0.010341446846723557,0.0024715568870306015
1782771630834797000,0.909797119140625,-0.06456470489501953,0.0007048770785331726,0.014442797750234604
1782771630844776400,0.9197763671875,-0.071746826171875,0.01990501582622528,0.0048580770380795
1782771630854786000,0.9297861328125,-0.0741415023803711,-0.006490703672170639,0.016948841512203217
1782771630864796000,0.9397958984375,-0.06695842742919922,0.00548037514090538,0.002583863213658333
1782771630874775300,0.949775390625,-0.08132266998291016,0.010209020227193832,0.005038126837462187
1782771630884785000,0.959784912109375,-0.06456375122070312,0.003026418387889862,-0.004538680426776409
1782771630894794500,0.96979443359375,-0.06695842742919922,-0.008884759619832039,0.00749216228723526
1782771630904804400,0.979804443359375,-0.059775352478027344,0.0030864067375659943,-0.004418292082846165
1782771630914783500,0.989783447265625,-0.0693521499633789,0.000692274421453476,0.00037034228444099426
1782771630924793300,0.99979345703125,-0.05738067626953125,0.007874805480241776,-0.006812494248151779
1782771630934803200,1.00980322265625,-0.057379722595214844,0.010209169238805771,0.005158514250069857
1782771630944782300,1.0197822265625,-0.0717458724975586,-0.00655016303062439,0.012461538426578045
1782771630954792200,1.029792236328125,-0.07653427124023438,0.01026889681816101,0.005457886029034853
1782771630964802000,1.039802001953125,-0.07653331756591797,-0.01121881976723671,0.007912182249128819
1782771630974781200,1.04978125,-0.07174491882324219,0.005480833351612091,0.012760647572577
1782771630984791000,1.059791015625,-0.06456279754638672,0.003026563674211502,0.017668407410383224
1782771630994800600,1.069800537109375,-0.07653331756591797,-0.00655023381114006,0.010545635595917702
1782771631004779800,1.07977978515625,-0.07174491882324219,0.00542084127664566,0.013000167906284332
1782771631014789600,1.08978955078125,-0.07174491882324219,-0.001766301691532135,0.013027986511588097
1782771631024799500,1.099799560546875,-0.06456279754638672,0.005472596734762192,0.01312947180122137
1782771631034778600,1.109778564453125,-0.057379722595214844,0.012648221105337143,0.005988962482661009
1782771631044788500,1.11978857421875,-0.07653331756591797,-0.0016668736934661865,0.008412354625761509
1782771631054798300,1.12979833984375,-0.05977439880371094,0.010304205119609833,0.00128981564193964
1782771631064777500,1.139777587890625,-0.07174491882324219,-0.00406092032790184,-0.0034983595833182335
1782771631074787300,1.149787353515625,-0.07653331756591797,0.000727485865354538,0.0013496959581971169
1782771631084797000,1.159796875,-0.057379722595214844,0.01042456179857254,0.006198423448950052
1782771631094776300,1.1697763671875,-0.08132171630859375,0.015093300491571426,0.00871228612959385
1782771631104786000,1.179785888671875,-0.07174491882324219,0.003182206302881241,0.0064379083923995495
1782771631114795800,1.189795654296875,-0.05259132385253906,0.012759093195199966,0.008832339197397232
1782771631124775200,1.199775146484375,-0.07174491882324219,0.0031823739409446716,-0.0006841439753770828
1782771631134784800,1.20978466796875,-0.08371639251708984,-0.006334703415632248,-0.005472319200634956
1782771631144794600,1.219794677734375,-0.07413959503173828,-0.018245533108711243,-0.005411996506154537
1782771631154804500,1.229804443359375,-0.0669565200805664,0.010484971106052399,0.008953441865742207
1782771631164783600,1.23978369140625,-0.050197601318359375,-0.0014259442687034607,0.011287547647953033
1782771631174793200,1.249793212890625,-0.07892799377441406,-0.008608462288975716,0.0066186715848743916
1782771631184803000,1.259802978515625,-0.07892799377441406,0.0010285228490829468,0.004224698059260845
1782771631194782200,1.2697822265625,-0.07414054870605469,0.0035423822700977325,-0.005292270332574844
1782771631204792000,1.2797919921875,-0.06695747375488281,0.017907675355672836,0.013861569575965405
1782771631214802000,1.289802001953125,-0.0717458724975586,0.0036023035645484924,0.009133140556514263
1782771631224781000,1.299781005859375,-0.05738067626953125,0.0036024749279022217,0.009193659760057926
1782771631234791000,1.309791015625,-0.05977439880371094,0.01066562905907631,0.009193433448672295
1782771631244800800,1.31980078125,-0.07174491882324219,0.005864594131708145,0.02120218425989151
1782771631254780000,1.32977978515625,-0.05738067626953125,0.01314689964056015,0.004477285780012608
1782771631264789800,1.339789794921875,-0.07653427124023438,-0.0010985471308231354,0.0022028451785445213
1782771631274799600,1.349799560546875,-0.06216907501220703,0.0012956522405147552,0.011839514598250389
1782771631284778800,1.35977880859375,-0.05498695373535156,-0.0034419894218444824,0.014329780824482441
1782771631294788600,1.36978857421875,-0.08850574493408203,0.006184834986925125,0.014306130819022655
1782771631304798200,1.379798095703125,-0.08132266998291016,0.0324983149766922,0.002372029237449169
1782771631314777300,1.38977734375,-0.0693521499633789,0.010926350951194763,0.004684796556830406
1782771631324787200,1.399787109375,-0.0693521499633789,0.0060467906296253204,0.021466678008437157
1782771631334797000,1.409797119140625,-0.0669565200805664,-0.0012183338403701782,0.007069972809404135
1782771631344776200,1.419776123046875,-0.0693511962890625,0.001154676079750061,0.0070976815186440945
1782771631354786000,1.4297861328125,-0.062168121337890625,0.010769367218017578,0.00718847056850791
1782771631364796000,1.4397958984375,-0.07653331756591797,0.0035266727209091187,-0.002328242175281048
1782771631374775000,1.449775146484375,-0.08132171630859375,0.0011324696242809296,0.002460162155330181
1782771631384785000,1.459784912109375,-0.05977439880371094,0.0059209540486335754,0.01203719712793827
1782771631394794500,1.46979443359375,-0.0693511962890625,-0.005990128964185715,0.004854816012084484
1782771631404804400,1.479804443359375,-0.0693511962890625,0.005980867892503738,0.004975011572241783
1782771631414783500,1.489783447265625,-0.06456279754638672,0.010889023542404175,0.0026408685371279716
1782771631424793300,1.49979345703125,-0.08132171630859375,0.0012524053454399109,0.017006298527121544
1782771631434803200,1.50980322265625,-0.050197601318359375,0.00843501091003418,0.0074294921942055225
1782771631444782300,1.5197822265625,-0.06456279754638672,0.02037864923477173,0.00979536585509777
1782771631454792200,1.529792236328125,-0.04780292510986328,0.005937900394201279,0.005110267549753189
1782771631464802000,1.539802001953125,-0.08371639251708984,-0.008367137983441353,0.009838809259235859
1782771631474781200,1.54978125,-0.08850479125976562,-0.013155452907085419,0.007564503233879805
1782771631484791000,1.559791015625,-0.07892704010009766,0.003544047474861145,-0.0020123040303587914
1782771631494800600,1.569800537109375,-0.07892704010009766,-0.0013041011989116669,0.005230361595749855
1782771631504779800,1.57977978515625,-0.0693502426147461,0.010666906833648682,0.002896253950893879
1782771631514789600,1.58978955078125,-0.06456184387207031,-0.010880813002586365,0.012592587620019913
1782771631524799500,1.599799560546875,-0.08371543884277344,0.0011503808200359344,0.010258706286549568
1782771631534778600,1.609778564453125,-0.06216716766357422,0.0011504702270030975,0.0006821267306804657
1782771631544788500,1.61978857421875,-0.08132076263427734,0.010727368295192719,0.01744176633656025
1782771631554798300,1.62979833984375,-0.07174396514892578,0.0010309889912605286,-0.0017116209492087364
1782771631564777500,1.639777587890625,-0.07653236389160156,0.01544111967086792,0.02704649232327938
1782771631574787300,1.649787353515625,-0.08850383758544922,0.005792625248432159,0.00547585915774107
1782771631584797000,1.659796875,-0.07653141021728516,0.003384426236152649,0.01274898275732994
1782771631594776000,1.669776123046875,-0.08132076263427734,-0.003738250583410263,-0.001496332697570324
1782771631604786000,1.679785888671875,-0.054984092712402344,0.010553624480962753,0.020081613212823868
1782771631614795800,1.689795654296875,-0.07892608642578125,-0.0038114897906780243,-0.003800344653427601
1782771631624775000,1.69977490234375,-0.054984092712402344,0.003371015191078186,0.015473226085305214
1782771631634784800,1.70978466796875,-0.0669546127319336,0.008205901831388474,0.025072608143091202
1782771631644794600,1.719794677734375,-0.08131980895996094,0.010645773261785507,0.006009521894156933
1782771631654804500,1.729804443359375,-0.0669546127319336,0.01307757943868637,0.010821128264069557
1782771631664783600,1.73978369140625,-0.054984092712402344,0.022552985697984695,0.02991199493408203
1782771631674793500,1.74979345703125,-0.07174301147460938,0.005810942500829697,0.027439795434474945
1782771631684803000,1.759802978515625,-0.07174205780029297,0.005717620253562927,0.0034411028027534485
1782771631694782200,1.7697822265625,-0.0908956527709961,0.020031575113534927,0.020125124603509903
1782771631704792000,1.7797919921875,-0.07892608642578125,0.015247467905282974,0.017594126984477043
1782771631714802000,1.789802001953125,-0.07653141021728516,0.000841088593006134,0.010348542593419552
1782771631724781000,1.799781005859375,-0.07413768768310547,0.0008729360997676849,-0.011115273460745811
1782771631734791000,1.809791015625,-0.08131885528564453,-0.0014818161725997925,0.005734264850616455
1782771631744800800,1.81980078125,-0.06695365905761719,0.003287471830844879,0.0177313145250082
1782771631754780000,1.82977978515625,-0.0908956527709961,0.003331337124109268,0.0058518750593066216
1782771631764789800,1.839789794921875,-0.08371353149414062,0.01521594449877739,0.010603050701320171
1782771631774799600,1.849799560546875,-0.07174205780029297,0.008009355515241623,0.005843757651746273
1782771631784778800,1.85977880859375,-0.07174205780029297,0.012710168957710266,0.010599886998534203
1782771631794788600,1.86978857421875,-0.06934833526611328,-0.006401989609003067,0.012963272631168365
1782771631804798200,1.879798095703125,-0.0885019302368164,0.012668520212173462,0.015381545759737492
1782771631814777300,1.88977734375,-0.08131885528564453,0.005463596433401108,0.010617266409099102
1782771631824787200,1.899787109375,-0.07174205780029297,0.003047291189432144,0.012971911579370499
1782771631834797000,1.909797119140625,-0.07413578033447266,0.00781506672501564,-0.001302880235016346
1782771631844776400,1.9197763671875,-0.07174110412597656,0.01491314172744751,0.013091454282402992
1782771631854786000,1.9297861328125,-0.07413578033447266,0.0029802508652210236,0.00827411562204361
1782771631864796000,1.9397958984375,-0.07892417907714844,0.0030224956572055817,0.0035223234444856644
1782771631874775300,1.949775390625,-0.07892513275146484,0.00306672602891922,0.015528238378465176
1782771631884785000,1.959784912109375,-0.08131885528564453,-0.011304941028356552,0.008387243375182152
1782771631894794500,1.96979443359375,-0.07413578033447266,-0.0017952732741832733,0.017932599410414696
1782771631904804400,1.979804443359375,-0.07413578033447266,0.012498319149017334,0.0036003096029162407
1782771631914783500,1.989783447265625,-0.07413578033447266,-0.0018165484070777893,0.015600102953612804
1782771631924793300,1.99979345703125,-0.07174110412597656,0.0029633045196533203,0.010783659294247627
1782771631934803200,2.00980322265625,-0.07413578033447266,0.0029552243649959564,0.0060303425416350365
1782771631944782300,2.0197822265625,-0.07174110412597656,0.005343761295080185,0.008409425616264343
1782771631954792200,2.029792236328125,-0.07892417907714844,0.0052721500396728516,0.018071411177515984
1782771631964802000,2.039802001953125,-0.07413482666015625,0.009985573589801788,0.0013427762314677238
1782771631974781200,2.04978125,-0.06934642791748047,0.029104772955179214,0.020451869815587997
1782771631984791000,2.059791015625,-0.08131694793701172,0.012370746582746506,0.008441470563411713
1782771631994800600,2.069800537109375,-0.06934547424316406,0.012273207306861877,0.010854138992726803
1782771632004779800,2.07977978515625,-0.09328842163085938,-0.006845060735940933,0.006091827526688576
1782771632014789600,2.08978955078125,-0.07413482666015625,-0.0020748600363731384,0.0013360166922211647
1782771632024799500,2.099799560546875,-0.09328842163085938,0.012278962880373001,-0.0011297371238470078
1782771632034778600,2.109778564453125,-0.07892322540283203,0.009944688528776169,0.0013245316222310066
1782771632044788500,2.11978857421875,-0.06695175170898438,0.012338891625404358,-0.0010696705430746078
1782771632054798300,2.12979833984375,-0.06455802917480469,0.005127821117639542,0.020510897040367126
1782771632064777500,2.139777587890625,-0.09568119049072266,0.009826574474573135,0.013357777148485184
1782771632074787300,2.149787353515625,-0.07652854919433594,-0.0020486973226070404,0.011051286943256855
1782771632084797000,2.159796875,-0.07413387298583984,0.012226052582263947,0.025489766150712967
1782771632094776300,2.1697763671875,-0.06934547424316406,0.00016830489039421082,0.01598002016544342
1782771632104786000,2.179785888671875,-0.05498027801513672,0.007389940321445465,0.00881977565586567
1782771632114795800,2.189795654296875,-0.07173919677734375,0.0025814175605773926,0.0016625290736556053
1782771632124775200,2.199775146484375,-0.09089279174804688,0.005020350217819214,0.015998976305127144
1782771632134784800,2.20978466796875,-0.07652759552001953,0.0002206861972808838,0.00879252515733242
1782771632144794600,2.219794677734375,-0.08131599426269531,0.012176565825939178,0.008827416226267815
1782771632154804500,2.229804443359375,-0.07892227172851562,0.0026388131082057953,0.01608852483332157
1782771632164783600,2.23978369140625,-0.06934547424316406,0.0026795528829097748,0.018497450277209282
1782771632174793200,2.249793212890625,-0.06216239929199219,-0.0021212100982666016,-0.0006868280470371246
1782771632184803000,2.259802978515625,-0.0837106704711914,0.00032489001750946045,0.013713905587792397
1782771632194782200,2.2697822265625,-0.08131599426269531,0.00037724152207374573,0.011413888074457645
1782771632204792000,2.2797919921875,-0.07892227172851562,-0.006750758737325668,0.020951729267835617
1782771632214802000,2.289802001953125,-0.06695079803466797,0.01239275187253952,0.01618482917547226
1782771632224781000,2.299781005859375,-0.08849906921386719,0.019494932144880295,0.0138058140873909
1782771632234791000,2.309791015625,-0.07892227172851562,0.007504429668188095,0.00664498470723629
1782771632244800800,2.31980078125,-0.07173824310302734,0.0026366114616394043,0.018631068989634514
1782771632254780000,2.32977978515625,-0.07892131805419922,0.012188170105218887,0.013852614909410477
1782771632264789800,2.339789794921875,-0.07652664184570312,0.0025296472012996674,0.013804538175463676
1782771632274799600,2.349799560546875,-0.07413196563720703,0.0048363469541072845,0.02343001589179039
1782771632284778800,2.35977880859375,-0.06934356689453125,0.0072615668177604675,0.013783236965537071
1782771632294788600,2.36978857421875,-0.0837087631225586,0.011905025690793991,0.006610633805394173
1782771632304798200,2.379798095703125,-0.07652568817138672,-0.004872433841228485,0.0042344871908426285
1782771632314777300,2.38977734375,-0.07413196563720703,0.014255646616220474,0.011431136168539524
1782771632324787200,2.399787109375,-0.07652568817138672,0.00949380174279213,0.018732501193881035
1782771632334797000,2.409797119140625,-0.07652473449707031,0.02141791209578514,0.01644987054169178
1782771632344776200,2.419776123046875,-0.07652568817138672,-0.00004956871271133423,0.028401926159858704
1782771632354786000,2.4297861328125,-0.07173728942871094,0.007091350853443146,0.018738988786935806
1782771632364796000,2.4397958984375,-0.08849716186523438,-0.00005910545587539673,-0.007589057087898254
1782771632374775000,2.449775146484375,-0.09089088439941406,0.0023082830011844635,0.013962257653474808
1782771632384785000,2.459784912109375,-0.08610248565673828,0.0022274181246757507,0.01157963927835226
1782771632394794500,2.46979443359375,-0.08610153198242188,0.00926661491394043,0.01398303359746933
1782771632404804400,2.479804443359375,-0.08849620819091797,0.009297534823417664,0.016318609938025475
1782771632414783500,2.489783447265625,-0.0789194107055664,0.014051195234060287,0.013924777507781982
1782771632424793300,2.49979345703125,-0.07173633575439453,0.009287159889936447,0.0090811587870121
1782771632434803200,2.50980322265625,-0.07173633575439453,-0.002707112580537796,0.009097279980778694
1782771632444782300,2.5197822265625,-0.0549774169921875,-0.0027194246649742126,-0.005170844495296478
1782771632454792200,2.529792236328125,-0.0789194107055664,0.009191833436489105,-0.0027172304689884186
1782771632464802000,2.539802001953125,-0.0789194107055664,-0.0027189888060092926,0.00446561723947525
1782771632474781200,2.54978125,-0.0789194107055664,0.009252026677131653,0.002191075123846531
1782771632484791000,2.559791015625,-0.052582740783691406,0.009252019226551056,0.0070393942296504974
1782771632494800600,2.569800537109375,-0.06455421447753906,0.004463817924261093,0.009434066712856293
1782771632504779800,2.57977978515625,-0.08370780944824219,0.011631779372692108,0.01420513540506363
1782771632514789600,2.58978955078125,-0.05737113952636719,0.016453083604574203,0.016450323164463043
1782771632524799500,2.599799560546875,-0.06694793701171875,0.004459001123905182,0.002061043865978718
1782771632534778600,2.609778564453125,-0.06694698333740234,0.011557463556528091,0.01639891415834427
1782771632544788500,2.61978857421875,-0.0789194107055664,0.009199697524309158,0.004404604434967041
1782771632554798300,2.62979833984375,-0.05976581573486328,-0.002790171653032303,0.01640821434557438
1782771632564777500,2.639777587890625,-0.0813131332397461,0.002038717269897461,0.016373515129089355
1782771632574787300,2.649787353515625,-0.08370685577392578,0.01392190158367157,0.016388338059186935
1782771632584797000,2.659796875,-0.0765237808227539,0.0018668174743652344,0.011616616509854794
1782771632594776000,2.669776123046875,-0.08131217956542969,0.006630420684814453,0.021203048527240753
1782771632604786000,2.679785888671875,-0.0765237808227539,-0.0005109310150146484,0.002070440910756588
1782771632614795800,2.689795654296875,-0.08370685577392578,-0.00046563148498535156,0.00682540237903595
1782771632624775000,2.69977490234375,-0.09328365325927734,0.009153477847576141,0.011638573370873928
1782771632634784800,2.70978466796875,-0.05976581573486328,0.0020716600120067596,0.02122911810874939
1782771632644794600,2.719794677734375,-0.0813131332397461,0.00451100617647171,0.004496544599533081
1782771632654804500,2.729804443359375,-0.07413101196289062,0.016456004232168198,0.011636740528047085
1782771632664783600,2.73978369140625,-0.07413101196289062,0.004516229033470154,0.021157704293727875
1782771632674793500,2.74979345703125,-0.0813131332397461,-0.0004129931330680847,0.009138483554124832
1782771632684803000,2.759802978515625,-0.06934261322021484,0.011593047529459,0.011546232737600803
1782771632694782500,2.769782470703125,-0.06455421447753906,0.011498715728521347,0.025903526693582535
1782771632704792000,2.7797919921875,-0.06934261322021484,0.01863909885287285,0.0114744296297431
1782771632714802000,2.789802001953125,-0.06455326080322266,0.011406373232603073,0.02097276598215103
1782771632724781000,2.799781005859375,-0.06694698333740234,0.00656856968998909,0.020946428179740906
1782771632734791000,2.809791015625,-0.08131217956542969,-0.010157706215977669,0.008970595896244049
1782771632744800800,2.81980078125,-0.07891845703125,-0.005387935787439346,0.004185346886515617
1782771632754780000,2.82977978515625,-0.0765237808227539,0.006565246731042862,0.013712162151932716
1782771632764789800,2.839789794921875,-0.06934261322021484,-0.0005134940147399902,0.011266852729022503
1782771632774799600,2.849799560546875,-0.07652473449707031,0.001866161823272705,0.013729482889175415
1782771632784778800,2.85977880859375,-0.07413005828857422,-0.002991538494825363,0.006564822047948837
1782771632794788600,2.86978857421875,-0.07413005828857422,0.013749867677688599,0.013757221400737762
1782771632804798200,2.879798095703125,-0.07891845703125,0.004157599061727524,0.0067147985100746155
1782771632814777300,2.88977734375,-0.08131217956542969,0.0041436366736888885,0.006681136786937714
1782771632824787200,2.899787109375,-0.07173538208007812,0.006578452885150909,0.01627185195684433
1782771632834797000,2.909797119140625,-0.0765237808227539,0.0066177137196063995,-0.0005252920091152191
1782771632844776400,2.9197763671875,-0.07173538208007812,0.016172684729099274,-0.000490168109536171
1782771632854786000,2.9297861328125,-0.08131217956542969,0.00657215341925621,0.023475980386137962
1782771632864796000,2.9397958984375,-0.08610153198242188,-0.0005089081823825836,0.006745574995875359
1782771632874775300,2.949775390625,-0.05976390838623047,0.016161706298589706,0.025911202654242516
1782771632884785000,2.959784912109375,-0.06934070587158203,0.006558157503604889,0.006835494190454483
1782771632894794500,2.96979443359375,-0.08609962463378906,0.0017481744289398193,0.002073659561574459
1782771632904804400,2.979804443359375,-0.0765228271484375,-0.0030529052019119263,0.004504857584834099
1782771632914783500,2.989783447265625,-0.0789175033569336,0.006464071571826935,0.002170487307012081
1782771632924793300,2.99979345703125,-0.08849430084228516,0.006510406732559204,0.014239110052585602
1782771632934803200,3.00980322265625,-0.07412910461425781,0.0016621723771095276,-0.009702906012535095
1782771632944782300,3.0197822265625,-0.07412910461425781,0.004116561263799667,0.004722638055682182
1782771632954792200,3.029792236328125,-0.05976390838623047,-0.0030658356845378876,0.016753770411014557
1782771632964802000,3.039802001953125,-0.0765228271484375,0.001834828406572342,0.019126592203974724
1782771632974781200,3.04978125,-0.07891845703125,0.011577717959880829,0.011917595751583576
1782771632984791000,3.059791015625,-0.08370685577392578,-0.005190923810005188,0.014343244954943657
1782771632994800600,3.069800537109375,-0.06934165954589844,0.018731560558080673,0.016699401661753654
1782771633004779800,3.07977978515625,-0.08131122589111328,0.009133432060480118,0.009599808603525162
1782771633014789600,3.08978955078125,-0.0765228271484375,0.00192984938621521,0.023976322263479233
1782771633024799500,3.099799560546875,-0.08370685577392578,0.016330141574144363,0.004723388701677322
1782771633034778600,3.109778564453125,-0.07891845703125,0.0043946318328380585,0.01671121083199978
1782771633044788500,3.11978857421875,-0.0789175033569336,0.023442797362804413,0.00959126278758049
1782771633054798300,3.12979833984375,-0.06934070587158203,-0.002869442105293274,0.011989247985184193
1782771633064777500,3.139777587890625,-0.08370590209960938,-0.005228705704212189,0.014389188960194588
1782771633074787300,3.149787353515625,-0.08131122589111328,0.013899371027946472,0.0024386635050177574
1782771633084797000,3.159796875,-0.08370590209960938,0.011473283171653748,0.01442321389913559
1782771633094776300,3.1697763671875,-0.0765228271484375,0.016285568475723267,0.0024136295542120934
1782771633104786000,3.179785888671875,-0.0789175033569336,0.0018867552280426025,0.028696438297629356
1782771633114795800,3.189795654296875,-0.07173442840576172,0.0018551908433437347,0.014392653480172157
1782771633124775200,3.199775146484375,-0.0765228271484375,0.01624239981174469,0.00733603723347187
1782771633134784800,3.20978466796875,-0.057369232177734375,0.00417463481426239,0.02414785511791706
1782771633144794600,3.219794677734375,-0.062157630920410156,-0.007762633264064789,0.004933062940835953
1782771633154804500,3.229804443359375,-0.06694602966308594,0.013754934072494507,0.012060022912919521
1782771633164783600,3.23978369140625,-0.0765228271484375,-0.005477365106344223,0.00961967371404171
1782771633174793200,3.249793212890625,-0.08370590209960938,0.008869107812643051,0.0024016620591282845
1782771633184803000,3.259802978515625,-0.07891654968261719,0.011178415268659592,0.02156810835003853
1782771633194782500,3.269782470703125,-0.08131027221679688,0.008821200579404831,0.011891542933881283
1782771633204792000,3.2797919921875,-0.06934070587158203,-0.010167593136429787,0.016695871949195862
1782771633214802000,3.289802001953125,-0.08370590209960938,0.004184450954198837,0.0023568468168377876
1782771633224781000,3.299781005859375,-0.06694602966308594,0.011291399598121643,0.0048421286046504974
1782771633234791000,3.309791015625,-0.0765228271484375,-0.0006324946880340576,0.0072692688554525375
1782771633244800800,3.31980078125,-0.07173442840576172,0.004143811762332916,0.004851263016462326
1782771633254780000,3.32977978515625,-0.062157630920410156,0.001737993210554123,0.014460094273090363
1782771633264789800,3.339789794921875,-0.0765228271484375,0.0017280839383602142,0.007252931594848633
1782771633274799600,3.349799560546875,-0.08131122589111328,-0.0030090808868408203,0.01679747737944126
1782771633284778800,3.35977880859375,-0.08849430084228516,-0.0006218291819095612,0.019215913489460945
1782771633294729000,3.36972900390625,-0.06934070587158203,-0.00296112522482872,0.002424190752208233
1782771633304859100,3.379859130859375,-0.0765228271484375,0.004156347364187241,0.007186366245150566
1782771633314777300,3.38977734375,-0.08131122589111328,-0.0006923377513885498,0.0048527903854846954
1782771633324787200,3.399787109375,-0.08849430084228516,0.008944015949964523,0.0048527903854846954
1782771633334797000,3.409797119140625,-0.06455230712890625,0.00409577414393425,0.0001242179423570633
1782771633344776400,3.4197763671875,-0.0765228271484375,-0.015117626637220383,0.004913344979286194
1782771633354786000,3.4297861328125,-0.08849334716796875,0.0065495967864990234,0.002579030580818653
1782771633364796000,3.4397958984375,-0.05976390838623047,0.004215564578771591,0.01461021602153778
1782771633374775300,3.449775390625,-0.05497550964355469,0.006609875708818436,0.017064403742551804
1782771633384785000,3.459784912109375,-0.062157630920410156,0.00912393257021904,-0.002029094845056534
1782771633394794500,3.46979443359375,-0.08131122589111328,-0.0051810964941978455,0.012336825020611286
1782771633404804400,3.479804443359375,-0.07173442840576172,0.0068499743938446045,0.012336825020611286
1782771633414783500,3.489783447265625,-0.0765237808227539,-0.0002728700637817383,0.012336592189967632
1782771633424793300,3.49979345703125,-0.08131122589111328,-0.00033264607191085815,0.007668184116482735
1782771633434803200,3.50980322265625,-0.0765228271484375,0.004455965012311935,-0.009090756997466087
1782771633444782300,3.5197822265625,-0.07412910461425781,0.004516027867794037,0.005334518849849701
1782771633454792200,3.529792236328125,-0.09088802337646484,-0.01224520057439804,0.029309863224625587
1782771633464802000,3.539802001953125,-0.07173442840576172,0.009356372058391571,0.012580952607095242
1782771633474781200,3.54978125,-0.07413005828857422,0.0022276602685451508,0.007886271923780441
1782771633484791000,3.559791015625,-0.0765228271484375,0.0045019350945949554,0.005611656233668327
1782771633494800600,3.569800537109375,-0.08131122589111328,0.004615452140569687,0.010381026193499565
1782771633504779800,3.57977978515625,-0.09567642211914062,0.011721551418304443,0.02954782359302044
1782771633514789600,3.58978955078125,-0.08370590209960938,-0.0025971271097660065,0.02242959290742874
1782771633524799500,3.599799560546875,-0.09328269958496094,0.007024139165878296,0.01285900641232729
1782771633534778600,3.609778564453125,-0.0789175033569336,0.006950195878744125,0.008029991760849953
1782771633544788500,3.61978857421875,-0.06934070587158203,-0.0074875615537166595,0.019992247223854065
1782771633554798300,3.62979833984375,-0.0765228271484375,-0.00749090313911438,0.01042931154370308
1782771633564777500,3.639777587890625,-0.08131027221679688,0.006806839257478714,0.020010584965348244
1782771633574787300,3.649787353515625,-0.07173347473144531,0.006739139556884766,0.0056658778339624405
1782771633584797000,3.659796875,-0.0765218734741211,0.0043970756232738495,-0.0014850068837404251
1782771633594776300,3.6697763671875,-0.08131027221679688,0.013962075114250183,0.0033397292718291283
1782771633604786000,3.679785888671875,-0.07412910461425781,0.011613957583904266,0.0008668247610330582
1782771633614795800,3.689795654296875,-0.07173442840576172,0.0020970888435840607,-0.008590079843997955
1782771633624775200,3.699775146484375,-0.0765218734741211,0.0044313035905361176,0.020140575245022774
1782771633634784800,3.70978466796875,-0.08370590209960938,-0.009814506396651268,0.008169809356331825
1782771633644794600,3.719794677734375,-0.0765228271484375,-0.012210022658109665,0.03208566829562187
1782771633654804500,3.729804443359375,-0.07412910461425781,0.004545621573925018,0.015290247276425362
1782771633664783600,3.73978369140625,-0.0741281509399414,-0.002638779580593109,0.012983494438230991
1782771633674793200,3.749793212890625,-0.08370590209960938,0.004599645733833313,0.003496467135846615
1782771633684803000,3.759802978515625,-0.07412910461425781,0.002260979264974594,0.010649394243955612
1782771633694782500,3.769782470703125,-0.09328269958496094,0.004647962749004364,0.017792847007513046
1782771633704792000,3.7797919921875,-0.0789175033569336,0.004697185009717941,0.020074961706995964
1782771633714802000,3.789802001953125,-0.08609962463378906,-0.00009853020310401917,0.005730863660573959
1782771633724781000,3.799781005859375,-0.08849430084228516,0.04301385208964348,0.027268249541521072
1782771633734791000,3.809791015625,-0.06934070587158203,0.011899258941411972,0.017672492191195488
1782771633744800800,3.81980078125,-0.0789175033569336,0.030986569821834564,0.0009079817682504654
1782771633754780000,3.82977978515625,-0.08131122589111328,0.00932755321264267,-0.0038626212626695633
1782771633764789800,3.839789794921875,-0.06934070587158203,0.004548020660877228,0.02487078867852688
1782771633774799600,3.849799560546875,-0.08131122589111328,0.021363940089941025,0.010446576401591301
1782771633784778800,3.85977880859375,-0.0765228271484375,0.016507893800735474,0.0033303415402770042
1782771633794788600,3.86978857421875,-0.07173442840576172,-0.00030631572008132935,0.024815531447529793
1782771633804798200,3.879798095703125,-0.07173442840576172,0.01160740852355957,0.012839618138968945
1782771633814777300,3.88977734375,-0.0789175033569336,0.006824284791946411,0.02479514479637146
1782771633824787200,3.899787109375,-0.08131027221679688,0.014001231640577316,0.022308610379695892
1782771633834797000,3.909797119140625,-0.062157630920410156,0.016390010714530945,0.005473209545016289
1782771633844716800,3.919716796875,-0.0765228271484375,-0.012318771332502365,0.019829146564006805
1782771633854818000,3.929818115234375,-0.09088802337646484,0.011523593217134476,0.012580051086843014
1782771633864856800,3.93985693359375,-0.0789175033569336,0.004365798085927963,0.014970947057008743
1782771633874775300,3.949775390625,-0.09567642211914062,0.009119376540184021,0.007672810927033424
1782771633884785000,3.959784912109375,-0.0765228271484375,-0.00526953861117363,0.019648583605885506
1782771633894794500,3.96979443359375,-0.09088802337646484,-0.012344546616077423,0.010083222761750221
1782771633904804400,3.979804443359375,-0.0765228271484375,-0.005170069634914398,0.01721009612083435
1782771633914783500,3.989783447265625,-0.0765228271484375,-0.00038897618651390076,0.02438393607735634
1782771633924793300,3.99979345703125,-0.08131122589111328,-0.0003353320062160492,0.0003859046846628189
1782771633934803200,4.00980322265625,-0.0765237808227539,-0.005065638571977615,0.007525702938437462
1782771633944723000,4.019722900390625,-0.09088897705078125,0.006899606436491013,0.024233177304267883
1782771633955764500,4.030764404296875,-0.06934070587158203,-0.005191478878259659,0.009879820048809052
1782771633974781200,4.04978125,-0.08370590209960938,0.013880021870136261,0.04098033159971237
1782771633984791000,4.059791015625,-0.07412910461425781,0.001832578331232071,0.012231462635099888
1782771633994800600,4.069800537109375,-0.0789175033569336,0.01856369525194168,0.009822452440857887
1782771634004779800,4.07977978515625,-0.0765218734741211,0.011345673352479935,0.01692303828895092
1782771634014789600,4.08978955078125,-0.08131027221679688,-0.0006520785391330719,0.01218200009316206
1782771634024799500,4.099799560546875,-0.0765218734741211,0.004172038286924362,0.007391812279820442
1782771634034778600,4.109778564453125,-0.06933975219726562,-0.0006975159049034119,0.019292928278446198
1782771634044788500,4.11978857421875,-0.08370494842529297,-0.003105621784925461,0.004992486909031868
1782771634054798300,4.12979833984375,-0.0765218734741211,-0.000723131000995636,0.021749339997768402
1782771634064777500,4.139777587890625,-0.08609867095947266,0.004053536802530289,0.005058472976088524
1782771634074787300,4.149787353515625,-0.07173347473144531,-0.007861312478780746,0.007479595020413399
1782771634084797000,4.159796875,-0.08370494842529297,0.004045259207487106,0.012298368848860264
1782771634094776300,4.1697763671875,-0.0741281509399414,0.01361188292503357,0.014717480167746544
1782771634104786000,4.179785888671875,-0.1004638671875,0.013539545238018036,0.005173616111278534
1782771634114795800,4.189795654296875,-0.07891654968261719,0.0015500523149967194,0.014703730121254921
1782771634124775200,4.199775146484375,-0.07891654968261719,-0.008098244667053223,0.02900686115026474
1782771634134784800,4.20978466796875,-0.0717325210571289,-0.0009254999458789825,0.021751761436462402
1782771634144794600,4.219794677734375,-0.06933975219726562,0.00869736447930336,0.007384967058897018
1782771634154804500,4.229804443359375,-0.07891654968261719,-0.0008292980492115021,0.016969019547104836
1782771634164783600,4.23978369140625,-0.08131027221679688,0.011060770601034164,0.024067852646112442
1782771634174793500,4.24979345703125,-0.08370494842529297,-0.01288871094584465,0.021640390157699585
1782771634184803000,4.259802978515625,-0.06933975219726562,-0.0008632466197013855,0.012040534056723118
1782771634194782500,4.269782470703125,-0.08849334716796875,0.001585099846124649,0.014365093782544136
1782771634204792000,4.2797919921875,-0.08370494842529297,-0.005598239600658417,0.0023476341739296913
1782771634214802000,4.289802001953125,-0.0765228271484375,0.011153604835271835,0.01899409480392933
1782771634224781000,4.299781005859375,-0.08131122589111328,0.008747875690460205,0.011760053224861622
1782771634234791000,4.309791015625,-0.06934070587158203,0.003949768841266632,-0.004971694201231003
1782771634244800800,4.31980078125,-0.09328269958496094,0.0016060397028923035,0.007027752697467804
1782771634254780000,4.32977978515625,-0.08131027221679688,0.01116582378745079,0.028585009276866913
1782771634264789800,4.339789794921875,-0.06933975219726562,0.027828399091959,0.023789137601852417
1782771634274799600,4.349799560546875,-0.0741281509399414,0.001518387347459793,0.014143459498882294
1782771634284778800,4.35977880859375,-0.0765218734741211,0.008667092770338058,0.011744598858058453
1782771634294788600,4.36978857421875,-0.08849334716796875,-0.0033302195370197296,0.01891855150461197
1782771634304798200,4.379798095703125,-0.06694507598876953,0.006280917674303055,0.004555612802505493
1782771634315142700,4.390142578125,-0.06934070587158203,-0.0008615590631961823,0.004567673429846764
1782771634325152500,4.400152587890625,-0.05976390838623047,0.0135389044880867,0.011700442992150784
1782771634335162000,4.410162109375,-0.0765228271484375,0.0063963718712329865,0.009331099689006805
1782771634345141500,4.4201416015625,-0.07173442840576172,-0.005527559667825699,0.006966844201087952
1782771634355151000,4.430151123046875,-0.06934070587158203,-0.005534224212169647,0.006944678723812103
1782771634365161000,4.440160888671875,-0.07412910461425781,0.006366562098264694,0.009370626881718636
1782771634375140400,4.450140380859375,-0.08370590209960938,0.008867662400007248,0.007009617984294891
1782771634385150000,4.46014990234375,-0.08370590209960938,0.018489208072423935,-0.00013062916696071625
1782771634395159800,4.470159912109375,-0.0765228271484375,0.004183828830718994,0.0022635729983448982
1782771634405169700,4.480169677734375,-0.0765228271484375,0.0018977262079715729,0.023851698264479637
1782771634415148800,4.490148681640625,-0.08131122589111328,0.00667022168636322,0.019093792885541916
1782771634425158700,4.50015869140625,-0.06455230712890625,-0.005315668880939484,0.01444418728351593
1782771634435168300,4.510168212890625,-0.0789175033569336,-0.010112186893820763,0.014454912394285202
1782771634445147400,4.5201474609375,-0.08370590209960938,0.0018498413264751434,0.01679309830069542
1782771634455157200,4.5301572265625,-0.08609962463378906,0.013803783804178238,0.01673540472984314
1782771634465167000,4.5401669921875,-0.0789175033569336,0.0042745694518089294,0.000001737847924232483
1782771634475146200,4.550146240234375,-0.07173442840576172,0.006716988980770111,0.007276967167854309
1782771634485156000,4.560156005859375,-0.08609962463378906,0.006701480597257614,0.01687723770737648
1782771634495166000,4.570166015625,-0.08131122589111328,0.011471547186374664,0.012113052420318127
1782771634505145000,4.58014501953125,-0.0765237808227539,0.006780441850423813,0.014523154124617577
1782771634515154700,4.59015478515625,-0.08609962463378906,-0.002811126410961151,0.01221135351806879
1782771634525164500,4.60016455078125,-0.07412910461425781,0.011534743010997772,0.009838899597525597
1782771634535143700,4.610143798828125,-0.05976390838623047,-0.005238775163888931,0.014646084979176521
1782771634545153500,4.620153564453125,-0.09088802337646484,-0.007523227483034134,0.021832913160324097
1782771634555163400,4.630163330078125,-0.0765228271484375,-0.00034841522574424744,0.016991565003991127
1782771634565142500,4.640142578125,-0.07173442840576172,0.011608019471168518,0.009874565526843071
1782771634575152400,4.65015234375,-0.08370590209960938,0.004407696425914764,0.028953583911061287
1782771634585162200,4.660162353515625,-0.06694602966308594,-0.0004551820456981659,0.019360899925231934
1782771634595141400,4.670141357421875,-0.06694602966308594,0.011495877057313919,0.007322944700717926
1782771634605151200,4.680151123046875,-0.08849525451660156,0.0067459531128406525,0.007263317704200745
1782771634615160800,4.690160888671875,-0.08609962463378906,0.00911569595336914,0.007268160581588745
1782771634625140200,4.70014013671875,-0.08609962463378906,0.011480219662189484,0.02163016051054001
1782771634635149800,4.71014990234375,-0.0765228271484375,0.009118344634771347,0.00009633973240852356
1782771634645159700,4.72015966796875,-0.0789175033569336,0.009086161851882935,0.016801320016384125
1782771634655169500,4.73016943359375,-0.08131122589111328,0.01138249784708023,0.016798559576272964
1782771634665148700,4.740148681640625,-0.07173442840576172,0.00416279211640358,0.01918223686516285
1782771634675158500,4.750158447265625,-0.07412910461425781,-0.0029829181730747223,0.0047086067497730255
1782771634685168400,4.76016845703125,-0.09807109832763672,-0.007658135145902634,-0.0024323780089616776
1782771634695147500,4.7701474609375,-0.0789175033569336,0.009144797921180725,0.014290312305092812
1782771634705157400,4.780157470703125,-0.08131217956542969,0.009125307202339172,0.011857639066874981
1782771634715167000,4.7901669921875,-0.09088897705078125,0.016279883682727814,0.016600701957941055
1782771634725146400,4.800146484375,-0.08131217956542969,-0.01001293770968914,0.007044155150651932
1782771634735156200,4.81015625,-0.07413005828857422,0.00672714039683342,0.016634445637464523
1782771634745106200,4.820106201171875,-0.07412910461425781,0.016282029449939728,0.01665382646024227
1782771634756246500,4.83124658203125,-0.07413005828857422,0.011527247726917267,0.009430700913071632
1782771634775225600,4.8502255859375,-0.08610153198242188,0.009205259382724762,0.02382601611316204
1782771634785143800,4.860143798828125,-0.08849620819091797,-0.0026674531400203705,0.02615557238459587
1782771634795153700,4.870153564453125,-0.07173633575439453,-0.002687651664018631,0.02128954976797104
1782771634805163500,4.88016357421875,-0.09328460693359375,0.011654384434223175,0.011766850017011166
1782771634815142700,4.890142578125,-0.06934261322021484,0.006902787834405899,0.004648568108677864
1782771634825152500,4.900152587890625,-0.06215953826904297,0.009272046387195587,0.009385466575622559
1782771634835162000,4.910162109375,-0.0789194107055664,0.002124391496181488,0.021413642913103104
1782771634845141500,4.9201416015625,-0.0813131332397461,0.006769176572561264,0.01662612520158291
1782771634855151000,4.930151123046875,-0.0765237808227539,0.004357494413852692,0.002280973829329014
1782771634865161000,4.940160888671875,-0.07173538208007812,-0.005171589553356171,0.016664762049913406
1782771634875140400,4.950140380859375,-0.08370685577392578,0.011570509523153305,0.01189278531819582
1782771634885150000,4.96014990234375,-0.08849620819091797,0.014059621840715408,0.011845464818179607
1782771634895159800,4.970159912109375,-0.10286140441894531,0.01163521409034729,0.014128351584076881
1782771634905169700,4.980169677734375,-0.09807300567626953,0.004481598734855652,0.01658402569591999
1782771634915148800,4.990148681640625,-0.07413101196289062,0.002179700881242752,0.014073183760046959
1782771634925158700,5.00015869140625,-0.07413101196289062,0.006885115057229996,0.006966311484575272
1782771634935168300,5.010168212890625,-0.07173633575439453,0.009313259273767471,0.007043089717626572
1782771634945147400,5.0201474609375,-0.07173633575439453,0.0021744370460510254,-0.00010461919009685516
1782771634955157200,5.0301572265625,-0.09088993072509766,0.004549738019704819,0.019133256748318672
1782771634965167000,5.0401669921875,-0.07413101196289062,0.009313467890024185,0.014301205053925514
1782771634975086800,5.0500869140625,-0.09088993072509766,0.014192484319210052,0.007078707218170166
1782771634985217300,5.06021728515625,-0.07652473449707031,0.0165572389960289,-0.002406550571322441
1782771634995166000,5.070166015625,-0.08370685577392578,0.0021061189472675323,0.014383014291524887
1782771635005145000,5.08014501953125,-0.07652473449707031,0.014162499457597733,0.0024402523413300514
1782771635015154700,5.09015478515625,-0.07652473449707031,-0.00017004460096359253,0.016890378668904305
1782771635025164500,5.10016455078125,-0.08370780944824219,0.01654915139079094,0.012057569809257984
1782771635035143700,5.110143798828125,-0.08370685577392578,0.0116611048579216,0.014467166736721992
1782771635045153500,5.120153564453125,-0.0765237808227539,0.009279124438762665,0.019195273518562317
1782771635055103700,5.130103759765625,-0.09567832946777344,-0.0002034604549407959,-0.011835789307951927
1782771635065234200,5.140234130859375,-0.08610057830810547,-0.007462065666913986,0.012200304307043552
1782771635075152400,5.15015234375,-0.059764862060546875,0.006945617496967316,0.00989898107945919
1782771635085162200,5.160162353515625,-0.07173538208007812,-0.004977181553840637,0.007540609687566757
1782771635095112400,5.170112548828125,-0.09328460693359375,0.007036183029413223,0.02665168046951294
1782771635105212400,5.18021240234375,-0.09567832946777344,0.004683874547481537,0.012243240140378475
1782771635115161000,5.1901611328125,-0.07173633575439453,0.014300677925348282,0.005207512527704239
1782771635125140200,5.20014013671875,-0.08610153198242188,0.00003752484917640686,0.014808392152190208
1782771635135149800,5.21014990234375,-0.0813131332397461,-0.009547436609864235,0.010110637173056602
1782771635145159700,5.22015966796875,-0.09328460693359375,0.007194735109806061,0.017359206452965736
1782771635155110000,5.23010986328125,-0.09088993072509766,0.002391032874584198,0.017305346205830574
1782771635165240300,5.240240234375,-0.08849620819091797,0.012001346796751022,0.02447148971259594
1782771635175158500,5.250158447265625,-0.08849525451660156,-0.0048294514417648315,0.0029434626922011375
1782771635185168400,5.26016845703125,-0.07652473449707031,0.012029368430376053,0.022100262343883514
1782771635195147500,5.2701474609375,-0.08610153198242188,0.004883408546447754,0.029206907376646996
1782771635205157400,5.280157470703125,-0.08849620819091797,0.0025298744440078735,0.005205195397138596
1782771635215167000,5.2901669921875,-0.07173728942871094,0.0169316828250885,0.0028268015012145042
1782771635225146400,5.300146484375,-0.07413101196289062,0.00966167077422142,0.014748215675354004
1782771635235156200,5.31015625,-0.06934261322021484,-0.004785202443599701,0.009966984391212463
1782771635245165800,5.320165771484375,-0.07413101196289062,-0.007252704352140427,0.014763887971639633
1782771635255145000,5.33014501953125,-0.08849620819091797,-0.0024721771478652954,0.007542045786976814
1782771635265154800,5.34015478515625,-0.08131217956542969,0.009425342082977295,0.019521720707416534
1782771635275164700,5.35016455078125,-0.08610057830810547,0.007020894438028336,0.0003403760492801666
1782771635285143800,5.360143798828125,-0.0789194107055664,0.016693376004695892,0.009874776005744934
1782771635295153700,5.370153564453125,-0.08370780944824219,0.00715554878115654,0.002602425403892994
1782771635305163500,5.38016357421875,-0.09567832946777344,0.0071302056312561035,0.007416069507598877
1782771635315142700,5.390142578125,-0.06455421447753906,-0.0049162134528160095,0.01462586224079132
1782771635325152500,5.400152587890625,-0.07652473449707031,-0.009710432961583138,0.016994183883070946
1782771635335162000,5.410162109375,-0.0789194107055664,0.014276888221502304,0.00026415474712848663
1782771635345141500,5.4201416015625,-0.0789194107055664,0.007078446447849274,0.02183554694056511
1782771635355151000,5.430151123046875,-0.0813131332397461,-0.009569110348820686,0.00026200897991657257
1782771635365161000,5.440160888671875,-0.06694793701171875,0.004847198724746704,0.019443975761532784
1782771635375140400,5.450140380859375,-0.0789194107055664,0.009560346603393555,0.03381463140249252
1782771635385150000,5.46014990234375,-0.0813131332397461,0.00475725531578064,-0.0020795129239559174
1782771635395159800,5.470159912109375,-0.08610153198242188,0.000016957521438598633,0.012307367287576199
1782771635405169700,5.480169677734375,-0.06455421447753906,-0.00477965921163559,0.007539987564086914
1782771635415148800,5.490148681640625,-0.08849620819091797,0.012026127427816391,0.010016368702054024
1782771635425158700,5.50015869140625,-0.07652473449707031,0.0001622997224330902,0.019548507407307625
1782771635435168300,5.510168212890625,-0.07173633575439453,0.002542264759540558,0.017099443823099136
1782771635445147400,5.5201474609375,-0.0813131332397461,-0.0023152977228164673,0.009991135448217392
1782771635455157200,5.5301572265625,-0.0837087631225586,0.016938507556915283,0.0076700299978256226
1782771635465167000,5.5401669921875,-0.09567832946777344,0.012124709784984589,0.019646605476737022
1782771635475146200,5.550146240234375,-0.08849620819091797,0.009644493460655212,0.010139597579836845
1782771635485156000,5.560156005859375,-0.09088993072509766,-0.007131308317184448,0.022119220346212387
1782771635495166000,5.570166015625,-0.0789194107055664,-0.002356242388486862,0.010156087577342987
1782771635505145000,5.58014501953125,-0.09088993072509766,0.009656663984060287,0.012436988763511181
1782771635515155000,5.590155029296875,-0.0813131332397461,0.0072452835738658905,0.0028800303116440773
1782771635525164500,5.60016455078125,-0.0789194107055664,0.01679372787475586,0.007623787969350815
1782771635535143700,5.610143798828125,-0.0813131332397461,0.014362666755914688,0.024324404075741768
1782771635545153500,5.620153564453125,-0.09807300567626953,0.009664379060268402,0.002856752835214138
1782771635555163400,5.630163330078125,-0.09088993072509766,0.012025207281112671,0.009998828172683716
1782771635565142500,5.640142578125,-0.08370780944824219,0.007207028567790985,0.007629010826349258
1782771635575152400,5.65015234375,-0.0813131332397461,0.01190333440899849,0.019617998972535133
1782771635585162200,5.660162353515625,-0.07652473449707031,0.023821458220481873,0.019617917016148567
1782771635595141600,5.6701416015625,-0.08370685577392578,-0.0002109631896018982,0.0004294551908969879
1782771635605151200,5.680151123046875,-0.1028604507446289,-0.0026285722851753235,0.017152808606624603
1782771635615161000,5.6901611328125,-0.09328365325927734,0.009371377527713776,0.02188969776034355
1782771635625140200,5.70014013671875,-0.09328365325927734,0.004612274467945099,0.01465224102139473
1782771635635149800,5.71014990234375,-0.0765237808227539,0.0022528842091560364,0.009817028418183327
1782771635645159700,5.72015966796875,-0.06455326080322266,0.0021692998707294464,0.021792791783809662
1782771635655169500,5.73016943359375,-0.0813131332397461,0.0046022310853004456,0.0049879178404808044
1782771635665148700,5.740148681640625,-0.08131217956542969,0.002126578241586685,0.002608909271657467
1782771635675158500,5.750158447265625,-0.09088993072509766,0.002166707068681717,0.014474162831902504
1782771635685168400,5.76016845703125,-0.08610153198242188,0.023742932826280594,0.019271928817033768
1782771635695147500,5.7701474609375,-0.09328460693359375,0.011738255620002747,0.004862003028392792
1782771635705157400,5.780157470703125,-0.09567737579345703,0.0020111799240112305,0.019295167177915573
1782771635715167000,5.7901669921875,-0.08131122589111328,-0.00046965107321739197,0.026532834395766258
1782771635725146400,5.800146484375,-0.08131122589111328,0.01386827602982521,0.00499623641371727
1782771635735156200,5.81015625,-0.08131122589111328,-0.000524323433637619,0.02653561532497406
1782771635745165800,5.820165771484375,-0.08849430084228516,0.004298020154237747,0.012165551073849201
1782771635755145000,5.83014501953125,-0.08131122589111328,0.006604872643947601,0.005042042583227158
1782771635765154800,5.84015478515625,-0.0789175033569336,-0.002864561975002289,-0.0045022182166576385
1782771635775164700,5.85016455078125,-0.09328269958496094,-0.007663164287805557,0.02902798540890217
1782771635785143800,5.860143798828125,-0.0789175033569336,0.011415202170610428,0.012221002019941807
1782771635795153700,5.870153564453125,-0.09328269958496094,-0.005292501300573349,0.007456965744495392
1782771635805163500,5.88016357421875,-0.06934070587158203,0.018572773784399033,0.000241866335272789
1782771635815142700,5.890142578125,-0.06694602966308594,0.00670536607503891,0.009789664298295975
1782771635825152500,5.900152587890625,-0.0765228271484375,-0.0004913322627544403,0.00981917791068554
1782771635835162000,5.910162109375,-0.08370590209960938,0.009189914911985397,0.00506514310836792
1782771635845141500,5.9201416015625,-0.09807109832763672,0.002007417380809784,0.00021687708795070648
1782771635855151000,5.930151123046875,-0.08849430084228516,-0.009903838858008385,0.0074593666940927505
1782771635865161000,5.940160888671875,-0.08131217956542969,0.009296905249357224,0.01712547428905964
1782771635875140000,5.95014013671875,-0.08610057830810547,0.009282421320676804,0.005128525197505951
1782771635885150000,5.96014990234375,-0.08131122589111328,0.009263470768928528,0.012279928661882877
1782771635895159800,5.970159912109375,-0.08131122589111328,0.0020809732377529144,0.002763192169368267
1782771635905169700,5.980169677734375,-0.08609962463378906,0.011705577373504639,0.005262380465865135
1782771635915148800,5.990148681640625,-0.08609962463378906,0.006898943334817886,0.010087452828884125
1782771635925158400,6.000158447265625,-0.07173442840576172,-0.005145221948623657,0.02208791673183441
1782771635935168300,6.010168212890625,-0.0789175033569336,0.011674128472805023,-0.011370835825800896
1782771635945088000,6.020087890625,-0.09328269958496094,0.004491522908210754,0.012631275691092014
1782771635956196400,6.0311962890625,-0.08849430084228516,0.009339332580566406,0.0030544670298695564
1782771635975086800,6.0500869140625,-0.08370590209960938,0.01889176294207573,0.007999850437045097
1782771635985217300,6.06021728515625,-0.09328269958496094,0.00689823180437088,0.003256239928305149
1782771635995166000,6.070166015625,-0.09328269958496094,0.002109937369823456,0.010559853166341782
1782771636005145000,6.08014501953125,-0.09567642211914062,0.011720634996891022,0.017657285556197166
1782771636015154700,6.09015478515625,-0.08370590209960938,-0.0026044845581054688,0.012902201153337955
1782771636025164500,6.10016455078125,-0.08609962463378906,-0.00021921470761299133,0.005766240879893303
1782771636035143700,6.110143798828125,-0.0765228271484375,0.021365724503993988,0.010530320927500725
1782771636045153500,6.120153564453125,-0.07173442840576172,0.011762090027332306,0.015229281038045883
1782771636055163400,6.130163330078125,-0.08370590209960938,-0.007406637072563171,0.005630701780319214
1782771636065142500,6.140142578125,-0.08609962463378906,-0.00016383454203605652,0.000842532142996788
1782771636075152400,6.15015234375,-0.07412910461425781,0.004615798592567444,0.012858924455940723
1782771636085162200,6.160162353515625,-0.09088802337646484,0.002263478934764862,0.02000291272997856
1782771636095141400,6.170141357421875,-0.08131122589111328,0.016544189304113388,0.01284079346805811
1782771636105151200,6.180151123046875,-0.0789175033569336,-0.00023386254906654358,0.010471206158399582
1782771636115161000,6.1901611328125,-0.09328269958496094,0.0022074803709983826,0.012898256070911884
1782771636125140200,6.20014013671875,-0.08131122589111328,0.004641681909561157,0.0272708460688591
1782771636135149800,6.21014990234375,-0.08131122589111328,0.004626285284757614,-0.001492997631430626
1782771636145159700,6.22015966796875,-0.0789175033569336,0.004672631621360779,0.0032691778615117073
1782771636155169500,6.23016943359375,-0.09328269958496094,-0.007249411195516586,0.015264630317687988
1782771636165148700,6.240148681640625,-0.09328269958496094,0.009497947990894318,0.005720226094126701
1782771636175158500,6.250158447265625,-0.08849430084228516,0.004698827862739563,0.010484466329216957
1782771636185168400,6.26016845703125,-0.08131122589111328,0.01670818403363228,0.010450819507241249
1782771636195147500,6.2701474609375,-0.06455326080322266,0.01919224113225937,0.012868505902588367
1782771636205157400,6.280157470703125,-0.0765237808227539,0.014423415064811707,0.024845894426107407
1782771636215167000,6.2901669921875,-0.07413005828857422,-0.009486215189099312,0.008096754550933838
1782771636225146400,6.300146484375,-0.08849525451660156,-0.0071123503148555756,0.034422680735588074
1782771636235156200,6.31015625,-0.0765237808227539,0.01686260476708412,0.005754360929131508
1782771636245165800,6.320165771484375,-0.08370780944824219,0.004921510815620422,0.020108742639422417
1782771636255145000,6.33014501953125,-0.08131217956542969,0.0025035254657268524,0.01053318940103054
1782771636265154800,6.34015478515625,-0.09807205200195312,0.0024207457900047302,0.020103776827454567
1782771636275164700,6.35016455078125,-0.08370685577392578,-0.011892925947904587,0.003361769951879978
1782771636285143800,6.360143798828125,-0.07413005828857422,-0.00956137664616108,0.020124806091189384
1782771636295153700,6.370153564453125,-0.09328269958496094,-0.0024389587342739105,0.003322162665426731
1782771636305163500,6.38016357421875,-0.08609962463378906,0.007132578641176224,0.017634395509958267
1782771636315142700,6.390142578125,-0.08849525451660156,0.02153967320919037,0.010521551594138145
1782771636325152500,6.400152587890625,-0.09328269958496094,0.014269579201936722,0.0224880650639534
1782771636335162000,6.410162109375,-0.1004648208618164,0.01663218066096306,0.0034032082185149193
1782771636345141500,6.4201416015625,-0.09088802337646484,0.004685778170824051,0.0369035042822361
1782771636355151000,6.430151123046875,-0.09088802337646484,0.00231952965259552,0.010553646832704544
1782771636365161000,6.440160888671875,-0.08370590209960938,-0.00004190206527709961,0.017601052299141884
1782771636375140400,6.450140380859375,-0.08131217956542969,-0.004789106547832489,0.01041126437485218
1782771636385150000,6.46014990234375,-0.08610057830810547,0.009492963552474976,0.019915234297513962
1782771636395159800,6.470159912109375,-0.08849525451660156,0.004677820950746536,0.02945600636303425
1782771636405169700,6.480169677734375,-0.06934165954589844,-0.004857901483774185,0.019840778782963753
1782771636415148800,6.490148681640625,-0.06934165954589844,0.014208275824785233,0.010174566879868507
1782771636425158700,6.50015869140625,-0.09567642211914062,0.009387660771608353,0.024561021476984024
1782771636435168300,6.510168212890625,-0.0789175033569336,0.004572615027427673,0.0028811218217015266
1782771636445147400,6.5201474609375,-0.09807205200195312,-0.012199163436889648,0.02920210361480713
1782771636455157200,6.5301572265625,-0.1052541732788086,0.009331375360488892,0.009977558627724648
1782771636465167000,6.5401669921875,-0.07173538208007812,0.004521969705820084,0.009780028834939003
1782771636475146200,6.550146240234375,-0.09567737579345703,0.009286373853683472,0.009771054610610008
1782771636485156000,6.560156005859375,-0.07413101196289062,0.006928775459527969,0.014557279646396637
1782771636495166000,6.570166015625,-0.08370685577392578,0.004451792687177658,0.01455404981970787
1782771636505145000,6.58014501953125,-0.06694698333740234,-0.00035555288195610046,0.026514381170272827
1782771636515155000,6.590155029296875,-0.08610057830810547,0.004355844110250473,0.004909070208668709
1782771636525164500,6.60016455078125,-0.07413005828857422,0.009180709719657898,0.024050273001194
1782771636535143700,6.610143798828125,-0.07891845703125,-0.0028060823678970337,0.007233159616589546
1782771636545153500,6.620153564453125,-0.0765237808227539,0.0020309090614318848,-0.00465276837348938
1782771636555163400,6.630163330078125,-0.08131217956542969,0.009256258606910706,0.01451733335852623
1782771636565142500,6.640142578125,-0.08370590209960938,0.009236514568328857,0.009807055816054344
1782771636575093000,6.650093017578125,-0.08131122589111328,0.011665482074022293,0.017001653090119362
1782771636585223200,6.66022314453125,-0.08849430084228516,0.025991905480623245,0.007497815415263176
1782771636595141600,6.6701416015625,-0.08131122589111328,0.01636958122253418,0.009904038161039352
1782771636605151200,6.680151123046875,-0.08131122589111328,0.004415135830640793,0.01942550763487816
1782771636615160800,6.690160888671875,-0.08609962463378906,0.013889364898204803,0.012251091189682484
1782771636625140200,6.70014013671875,-0.07173442840576172,-0.0028449296951293945,0.007414139807224274
1782771636635149800,6.71014990234375,-0.08370590209960938,-0.007652059197425842,0.007438844069838524
1782771636645159700,6.72015966796875,-0.07412910461425781,0.009083732962608337,0.01703173667192459
1782771636655110000,6.73010986328125,-0.09807109832763672,-0.007687985897064209,0.0027555907145142555
1782771636665180700,6.7401806640625,-0.08370590209960938,0.009061791002750397,0.0027975356206297874
1782771636676075500,6.751075439453125,-0.08609962463378906,0.016156233847141266,0.017060281708836555
1782771636695088000,6.770088134765625,-0.08370494842529297,-0.005393587052822113,-0.006956368684768677
1782771636705218300,6.78021826171875,-0.09567546844482422,0.013744339346885681,0.014629440382122993
1782771636715167000,6.7901669921875,-0.09328269958496094,-0.010137183591723442,0.012295863591134548
1782771636725146400,6.800146484375,-0.08370494842529297,0.0017740987241268158,0.007507458329200745
1782771636735156200,6.81015625,-0.09807109832763672,0.0018849149346351624,0.019509611651301384
1782771636745165800,6.820165771484375,-0.09567642211914062,-0.005362860858440399,0.014748658984899521
1782771636755145000,6.83014501953125,-0.08131122589111328,0.0018765665590763092,0.002821396104991436
1782771636765154800,6.84015478515625,-0.08849430084228516,-0.0028555653989315033,0.02923784963786602
1782771636775164700,6.85016455078125,-0.07891654968261719,-0.002917282283306122,0.02445613592863083
1782771636785143800,6.860143798828125,-0.09088802337646484,0.006715107709169388,0.002932352013885975
1782771636795153700,6.870153564453125,-0.09807014465332031,0.016276512295007706,-0.0017772223800420761
1782771636805163500,6.88016357421875,-0.08370590209960938,-0.005155455321073532,0.0077233947813510895
1782771636815142700,6.890142578125,-0.08849430084228516,-0.012338574975728989,0.010161058977246284
1782771636825152500,6.900152587890625,-0.09088802337646484,0.013991903513669968,0.010138707235455513
1782771636835102700,6.910102783203125,-0.09088802337646484,0.0020717307925224304,0.01022331789135933
1782771636845233000,6.92023291015625,-0.08849430084228516,0.01887441799044609,0.012644563801586628
1782771636855091700,6.930091796875,-0.08849430084228516,0.01645675301551819,0.012608922086656094
1782771636865162500,6.94016259765625,-0.08609962463378906,0.028385628014802933,0.0030533885583281517
1782771636876280300,6.9512802734375,-0.08849430084228516,-0.002770945429801941,0.007866248488426208
1782771636895159800,6.970159912109375,-0.08609962463378906,0.004303768277168274,0.012647048570215702
1782771636905169700,6.980169677734375,-0.08370494842529297,0.006673172116279602,0.003103570081293583
1782771636915148800,6.990148681640625,-0.08849334716796875,0.0018634982407093048,0.01749849133193493
1782771636925158700,7.00015869140625,-0.07891654968261719,0.013739965856075287,0.012725562788546085
1782771636935168300,7.010168212890625,-0.09807014465332031,0.016221966594457626,0.007963506504893303
1782771636945147400,7.0201474609375,-0.08370494842529297,0.004225447773933411,0.012721489183604717
1782771636955157200,7.0301572265625,-0.08131027221679688,0.0041962601244449615,0.0223727747797966
1782771636965167000,7.0401669921875,-0.08609771728515625,0.016059760004281998,0.01990973949432373
1782771636975146200,7.050146240234375,-0.0980682373046875,0.003936689347028732,0.010342709720134735
1782771636985156000,7.060156005859375,-0.08370304107666016,0.01586262881755829,0.019913464784622192
1782771636995166000,7.070166015625,-0.08370304107666016,0.003914486616849899,0.015124941244721413
1782771637005145000,7.08014501953125,-0.09327983856201172,0.006205249577760696,0.015110749751329422
1782771637015154700,7.09015478515625,-0.06694316864013672,0.02057449147105217,0.02699437364935875
1782771637025164500,7.10016455078125,-0.0980682373046875,0.0014951042830944061,0.015062028542160988
1782771637035143700,7.110143798828125,-0.08849143981933594,-0.0009313896298408508,0.005483290180563927
1782771637045153500,7.120153564453125,-0.09327983856201172,0.0013725049793720245,0.02450314722955227
1782771637055163400,7.130163330078125,-0.08370304107666016,0.006076466292142868,-0.006608501076698303
1782771637065142500,7.140142578125,-0.07651996612548828,0.0037201233208179474,0.005381820723414421
1782771637075093000,7.150093017578125,-0.08130741119384766,0.0083615742623806,0.01741926185786724
1782771637085223200,7.16022314453125,-0.08370304107666016,0.005936097353696823,0.022139959037303925
1782771637095141600,7.1701416015625,-0.0693359375,0.010630160570144653,0.005440821871161461
1782771637105091800,7.180091796875,-0.08609485626220703,0.0010247789323329926,0.015016753226518631
1782771637116139000,7.191138916015625,-0.07412528991699219,-0.001393541693687439,0.01016673818230629
1782771637135149800,7.21014990234375,-0.08370113372802734,0.012811500579118729,0.017359936609864235
1782771637145159700,7.22015966796875,-0.07412433624267578,-0.003962278366088867,0.01974877342581749
1782771637155169500,7.23016943359375,-0.07891273498535156,0.012769579887390137,0.03168005123734474
1782771637165148700,7.240148681640625,-0.08848953247070312,-0.004005707800388336,0.022138718515634537
1782771637175158500,7.250158447265625,-0.08609485626220703,0.0007683932781219482,0.014873646199703217
1782771637185168400,7.26016845703125,-0.07891273498535156,0.007931932806968689,0.019634107127785683
1782771637195147500,7.2701474609375,-0.07651805877685547,0.01514270156621933,0.021986577659845352
1782771637205157400,7.280157470703125,-0.0932779312133789,0.007989887148141861,0.012384961359202862
1782771637215167000,7.2901669921875,-0.08609485626220703,0.00556274875998497,0.026708493009209633
1782771637225146400,7.300146484375,-0.08130645751953125,0.01504284143447876,0.002687728963792324
1782771637235156200,7.31015625,-0.08848953247070312,0.010211396962404251,0.02426057681441307
1782771637245165800,7.320165771484375,-0.0956716537475586,-0.0017897970974445343,0.0074872951954603195
1782771637255145000,7.33014501953125,-0.07172966003417969,-0.006540931761264801,0.016983896493911743
1782771637265154800,7.34015478515625,0.6082239151000977,-0.0471452958881855,0.1315956562757492
1782771637275164700,7.35016455078125,-1.836256504058838,0.05819958820939064,-0.1915019154548645
1782771637285143800,7.360143798828125,-0.10518169403076172,-0.00689287856221199,-0.002963697537779808
1782771637295153700,7.370153564453125,-0.06927871704101562,-0.006057385355234146,0.016795141622424126
1782771637305163500,7.38016357421875,-0.11716365814208984,0.0012455657124519348,0.021523743867874146
1782771637315142700,7.390142578125,-0.11955928802490234,0.008785277605056763,0.025933558121323586
1782771637325152500,7.400152587890625,-0.22251510620117188,0.009324319660663605,-0.020275495946407318
1782771637335162000,7.410162109375,-0.059716224670410156,0.019559424370527267,-0.0023182276636362076
1782771637345141200,7.420141357421875,0.11983013153076172,-0.01664428785443306,0.04184012860059738
1782771637355151000,7.430151123046875,-0.15552139282226562,0.0142209492623806,0.0209555272012949
