time,seconds_elapsed,z,y,x
1782771753248703700,0.197703857421875,-0.028662681579589844,-0.0008339434862136841,0.0006402917206287384
1782771753258713600,0.207713623046875,-0.035846710205078125,0.004271253943443298,0.012231145985424519
1782771753268723200,0.21772314453125,-0.043030738830566406,0.04048359766602516,0.01426616869866848
1782771753278702600,0.22770263671875,-0.031061172485351562,-0.01188850961625576,0.016299977898597717
1782771753288712200,0.237712158203125,-0.04541587829589844,0.007840566337108612,0.0020175608806312084
1782771753298722000,0.24772216796875,-0.05738639831542969,0.022265799343585968,-0.0027710720896720886
1782771753308701400,0.257701416015625,-0.05738639831542969,0.010354608297348022,-0.007499842904508114
1782771753318711000,0.2677109375,-0.043021202087402344,0.019871532917022705,0.016442174091935158
1782771753328721000,0.277720947265625,-0.052597999572753906,0.0055063627660274506,-0.005105411168187857
1782771753338700300,0.2877001953125,-0.04541587829589844,0.007840517908334732,0.014108527451753616
1782771753348710000,0.2977099609375,-0.043021202087402344,0.012688610702753067,-0.00025645457208156586
1782771753358719700,0.3077197265625,-0.05973339080810547,0.011159602552652359,-0.004314095247536898
1782771753368699000,0.317698974609375,-0.04297351837158203,0.013613633811473846,-0.013831071555614471
1782771753378708500,0.32770849609375,-0.057338714599609375,-0.003145776689052582,-0.004194351844489574
1782771753388718300,0.33771826171875,-0.050156593322753906,-0.003145776689052582,-0.008982755243778229
1782771753398697700,0.34769775390625,-0.06452178955078125,0.00397675484418869,0.005322659388184547
1782771753408707300,0.357707275390625,-0.07170391082763672,-0.007994208484888077,0.012565210461616516
1782771753418717200,0.36771728515625,-0.04297447204589844,-0.003085590898990631,-0.0017396053299307823
1782771753428696600,0.377696533203125,-0.05733966827392578,-0.010208401829004288,0.007896734401583672
1782771753438706200,0.3877060546875,-0.05733966827392578,-0.01014852523803711,0.012744754552841187
1782771753448716000,0.397716064453125,-0.059734344482421875,-0.002906050533056259,0.00568210706114769
1782771753458695200,0.407695068359375,-0.06452274322509766,0.0067308805882930756,0.010470805689692497
1782771753468705000,0.417705078125,-0.06212902069091797,0.0020022019743919373,0.00801753904670477
1782771753478714600,0.427714599609375,-0.04776287078857422,0.009124748408794403,-0.0014387797564268112
1782771753488694000,0.437694091796875,-0.04297447204589844,0.004336312413215637,-0.0014989031478762627
1782771753498704000,0.447703857421875,-0.06452274322509766,-0.0005119703710079193,0.000955506693571806
1782771753508713500,0.45771337890625,-0.06212806701660156,0.001882299780845642,-0.006106849759817123
1782771753518723300,0.467723388671875,-0.06212806701660156,0.006610650569200516,0.01783546432852745
1782771753528702700,0.47770263671875,-0.06691646575927734,0.011458881199359894,0.0059242877177894115
1782771753538712300,0.48771240234375,-0.06931114196777344,-0.00284639373421669,-0.0035923123359680176
1782771753548722200,0.49772216796875,-0.05733966827392578,-0.005300458520650864,-0.008321179077029228
1782771753558701300,0.507701416015625,-0.06931114196777344,-0.002906210720539093,-0.015383293852210045
1782771753568711000,0.5177109375,-0.05015754699707031,0.0066705793142318726,-0.000958434771746397
1782771753578720800,0.527720703125,-0.05015754699707031,0.009124916046857834,0.0038903597742319107
1782771753588700200,0.5377001953125,-0.059734344482421875,0.004336554557085037,0.006404520943760872
1782771753598709800,0.547709716796875,-0.06691646575927734,-0.010028660297393799,-0.01508338749408722
1782771753608719600,0.5577197265625,-0.06452369689941406,-0.01469738781452179,-0.0007181777618825436
1782771753618699000,0.567698974609375,-0.05973529815673828,-0.0002720840275287628,0.00879853405058384
1782771753628708600,0.57770849609375,-0.05015850067138672,-0.00021247193217277527,-0.015143775381147861
1782771753638718500,0.587718505859375,-0.06212902069091797,0.011698443442583084,-0.015083680860698223
1782771753648697900,0.59769775390625,-0.07410049438476562,0.011698443442583084,0.004069932270795107
1782771753658707500,0.60770751953125,-0.0549468994140625,-0.0002724863588809967,0.01855555549263954
1782771753668657700,0.61765771484375,-0.052552223205566406,0.0021217577159404755,0.004250469617545605
1782771753679430400,0.628430419921875,-0.06212902069091797,-0.009789340198040009,0.01873549073934555
1782771753698716000,0.6477158203125,-0.06452369689941406,-0.00972491130232811,0.006821017246693373
1782771753708695300,0.6576953125,-0.05973529815673828,0.004699811339378357,0.0019734366796910763
1782771753718705000,0.667704833984375,-0.06691741943359375,-0.014453761279582977,0.004427846055477858
1782771753728714800,0.67771484375,-0.06931209564208984,0.004699859768152237,0.00688187824562192
1782771753738694100,0.687694091796875,-0.06931304931640625,-0.007211059331893921,0.00933617353439331
1782771753748703700,0.697703857421875,-0.07410144805908203,-0.002422656863927841,0.0022728675976395607
1782771753758713600,0.707713623046875,-0.04537010192871094,-0.004876997321844101,0.011849381029605865
1782771753768723200,0.71772314453125,-0.05973529815673828,-0.004876997321844101,0.011909214779734612
1782771753778702600,0.72770263671875,-0.07170581817626953,-0.002482745796442032,0.014363804832100868
1782771753788712200,0.737712158203125,-0.05734062194824219,0.004640165716409683,-0.004730451852083206
1782771753798722000,0.74772216796875,-0.06691741943359375,-0.004876546561717987,-0.002336250152438879
1782771753808701400,0.757701416015625,-0.07410049438476562,-0.00008814036846160889,0.002511984668672085
1782771753818711000,0.7677109375,-0.05973529815673828,-0.007150869816541672,0.002572190947830677
1782771753828721000,0.777720947265625,-0.07649517059326172,-0.0022427737712860107,-0.004550296813249588
1782771753838700300,0.7877001953125,-0.06691932678222656,-0.006971042603254318,0.01939201168715954
1782771753848710000,0.7977099609375,-0.06691932678222656,0.014636427164077759,0.0026325988583266735
1782771753858719700,0.8077197265625,-0.07649612426757812,-0.011639740318059921,-0.002156095579266548
1782771753868699000,0.817698974609375,-0.06213092803955078,0.0026656389236450195,0.005086338147521019
1782771753878708500,0.82770849609375,-0.06452560424804688,0.014756567776203156,0.01472363993525505
1782771753888718300,0.83771826171875,-0.08846855163574219,-0.011519823223352432,0.012269606813788414
1782771753898697700,0.84769775390625,-0.07170867919921875,0.014816440641880035,0.00987569522112608
1782771753908707600,0.85770751953125,-0.07889175415039062,0.012481890618801117,0.00754114193841815
1782771753918717200,0.86771728515625,-0.06213188171386719,0.0005710162222385406,0.0004189196042716503
1782771753928696600,0.877696533203125,-0.07889175415039062,0.0029651783406734467,0.01723787933588028
1782771753938706400,0.88770654296875,-0.08128547668457031,0.0030251406133174896,0.0052072457037866116
1782771753948716000,0.897716064453125,-0.07410430908203125,0.005419380962848663,0.007661568466573954
1782771753958695200,0.907695068359375,-0.06931495666503906,-0.011279892176389694,0.01490455586463213
1782771753968705000,0.917705078125,-0.07889175415039062,-0.001703072339296341,0.010175801813602448
1782771753978714600,0.927714599609375,-0.07889270782470703,-0.003977000713348389,-0.0017345305532217026
1782771753988694000,0.937694091796875,-0.062132835388183594,0.0007516704499721527,-0.0016741259023547173
1782771753998703900,0.947703857421875,-0.07170963287353516,-0.016007740050554276,0.010296883061528206
1782771754008713500,0.95771337890625,-0.07170963287353516,0.005540076643228531,0.010296883061528206
1782771754018723300,0.967723388671875,-0.08368110656738281,0.01038862019777298,0.0007804580964148045
1782771754028702700,0.97770263671875,-0.0621337890625,-0.003916703164577484,0.0056289792992174625
1782771754038712300,0.98771240234375,-0.07171058654785156,0.01050841435790062,-0.0014937128871679306
1782771754048722200,0.99772216796875,-0.07649898529052734,0.010568298399448395,-0.0039474572986364365
1782771754058701300,1.007701416015625,-0.0621337890625,0.013022597879171371,0.0008409456349909306
1782771754068711000,1.0177109375,-0.08128738403320312,0.001051589846611023,0.0007812981493771076
1782771754078720800,1.027720703125,-0.05495262145996094,-0.020436130464076996,0.0008413917385041714
1782771754088700200,1.0377001953125,-0.06931781768798828,-0.010859277099370956,0.017660919576883316
1782771754098709800,1.047709716796875,-0.0884714126586914,0.010688632726669312,0.005750398617237806
1782771754108719600,1.0577197265625,-0.0645294189453125,0.00829443708062172,-0.0037665795534849167
1782771754118699000,1.067698974609375,-0.088470458984375,-0.001282375305891037,0.0058703250251710415
1782771754128708600,1.07770849609375,-0.08128738403320312,-0.010799437761306763,0.005930542480200529
1782771754138718500,1.087718505859375,-0.06692218780517578,-0.015587732195854187,0.005931114312261343
1782771754148697900,1.09769775390625,-0.07889366149902344,0.0011717267334461212,0.008325600996613503
1782771754158707500,1.10770751953125,-0.09565353393554688,-0.013073612004518509,0.0011432790197432041
1782771754168717300,1.11771728515625,-0.07410621643066406,0.013322491198778152,0.005991800222545862
1782771754178696400,1.127696533203125,-0.08368301391601562,-0.008165229111909866,0.00838600192219019
1782771754188706000,1.1377060546875,-0.08368301391601562,-0.0009826235473155975,0.003597598522901535
1782771754198716000,1.1477158203125,-0.08128833770751953,0.010928396135568619,-0.005978637374937534
1782771754208695300,1.1576953125,-0.08607673645019531,-0.003377038985490799,0.010840320959687233
1782771754218705000,1.167704833984375,-0.07410621643066406,-0.005771137773990631,-0.0010702060535550117
1782771754228714800,1.17771484375,-0.059741973876953125,0.0014713555574417114,0.0037184804677963257
1782771754238694100,1.187694091796875,-0.0669240951538086,-0.008105449378490448,0.0013843732886016369
1782771754248703700,1.197703857421875,-0.054953575134277344,0.0015310421586036682,0.0061730588786304
1782771754258713600,1.207713623046875,-0.05016517639160156,-0.010500047355890274,0.003838951699435711
1782771754268723200,1.21772314453125,-0.08607769012451172,0.0015307776629924774,0.013415759429335594
1782771754278702600,1.22770263671875,-0.08128929138183594,-0.0032575204968452454,0.003899616189301014
1782771754288712200,1.237712158203125,-0.08368396759033203,-0.005532369017601013,0.011142151430249214
1782771754298722000,1.24772216796875,-0.07171344757080078,-0.007866423577070236,0.013656825758516788
1782771754308701400,1.257701416015625,-0.07410812377929688,0.006438907235860825,0.00653377128764987
1782771754318711000,1.2677109375,-0.06453132629394531,0.01362156867980957,0.001805644016712904
1782771754328721000,1.277720947265625,-0.07410812377929688,0.0016506053507328033,0.011442482471466064
1782771754338700300,1.2877001953125,-0.07889652252197266,-0.000743478536605835,0.009048846550285816
1782771754348710000,1.2977099609375,-0.07889652252197266,-0.007926031947135925,0.016231732442975044
1782771754358719700,1.3077197265625,-0.07171344757080078,-0.012714385986328125,-0.0029215961694717407
1782771754368699000,1.317698974609375,-0.07171344757080078,0.0017106831073760986,0.0019266684539616108
1782771754378708500,1.32770849609375,-0.10283851623535156,-0.003077663481235504,-0.0028614522889256477
1782771754388718300,1.33771826171875,-0.07171249389648438,0.016016200184822083,0.0019873748533427715
1782771754398697700,1.34769775390625,-0.07410717010498047,-0.005471549928188324,0.006775778252631426
1782771754408707600,1.35770751953125,-0.0669240951538086,-0.010319635272026062,0.004381576552987099
1782771754418717200,1.36771728515625,-0.08607769012451172,0.006439834833145142,-0.00040654372423887253
1782771754428696600,1.377696533203125,-0.07650089263916016,-0.0006829351186752319,-0.012317719869315624
1782771754438706400,1.38770654296875,-0.066925048828125,0.0017711780965328217,0.002047490794211626
1782771754448716000,1.397716064453125,-0.07889652252197266,0.001830950379371643,0.006955274846404791
1782771754458695200,1.407695068359375,-0.07889652252197266,-0.005231406539678574,0.006955557037144899
1782771754468705000,1.417705078125,-0.07171344757080078,0.006739664822816849,0.009409685619175434
1782771754478714600,1.427714599609375,-0.08607864379882812,0.01871078461408615,-0.002620849758386612
1782771754488694000,1.437694091796875,-0.07410812377929688,0.009134039282798767,-0.007349138148128986
1782771754498704000,1.447703857421875,-0.07171344757080078,-0.0005026198923587799,0.014258870854973793
1782771754508713500,1.45771337890625,-0.09805011749267578,0.018710818141698837,0.00234769145026803
1782771754518723300,1.467723388671875,-0.08607864379882812,-0.005231086164712906,0.00959095824509859
1782771754528702700,1.47770263671875,-0.08129024505615234,-0.000502459704875946,0.0072568668983876705
1782771754538712300,1.48771240234375,-0.0693197250366211,0.004405830055475235,0.004862945526838303
1782771754548722200,1.49772216796875,-0.07410812377929688,0.009134460240602493,0.0024690241552889347
1782771754558701300,1.507701416015625,-0.0908670425415039,-0.0003821849822998047,-0.002319098450243473
1782771754568711000,1.5177109375,-0.07171344757080078,0.006860081106424332,0.0048629483208060265
1782771754578720800,1.527720703125,-0.08129119873046875,-0.005110926926136017,0.019288115203380585
1782771754588700200,1.5377001953125,-0.07650279998779297,-0.007505122572183609,0.0001943325623869896
1782771754598709800,1.547709716796875,-0.07650279998779297,0.014102600514888763,-0.0069283610209822655
1782771754608719600,1.5577197265625,-0.09805107116699219,-0.0050509534776210785,0.005162590183317661
1782771754618699000,1.567698974609375,-0.07171440124511719,-0.009779267013072968,0.012465385720133781
1782771754628708600,1.57770849609375,-0.0669260025024414,0.009374413639307022,0.007736908737570047
1782771754638718500,1.587718505859375,-0.0669260025024414,0.023799721151590347,0.010131110437214375
1782771754648697900,1.59769775390625,-0.0693216323852539,0.002311795949935913,0.017313994467258453
1782771754658707500,1.60770751953125,-0.07411003112792969,-0.0024204663932323456,0.017305243760347366
1782771754668717300,1.61771728515625,-0.09086894989013672,-0.0023665912449359894,0.022071901708841324
1782771754678696400,1.627696533203125,-0.07650375366210938,0.007258962839841843,0.019700445234775543
1782771754688706000,1.6377060546875,-0.06932258605957031,0.019381564110517502,0.026879753917455673
1782771754698716000,1.6477158203125,-0.08608150482177734,0.0073857903480529785,0.005222815088927746
1782771754708695300,1.6576953125,-0.07889938354492188,0.016992785036563873,-0.0019380869343876839
1782771754718705000,1.667704833984375,-0.07889938354492188,-0.0021251626312732697,0.017233217135071754
1782771754728714800,1.67771484375,-0.098052978515625,0.0002499893307685852,0.0028339209966361523
1782771754738694100,1.687694091796875,-0.08847618103027344,0.007418598979711533,0.005206290632486343
1782771754748703700,1.697703857421875,-0.08608150482177734,0.0074579156935215,0.007631049025803804
1782771754758713600,1.707713623046875,-0.09086990356445312,-0.006918255239725113,0.010061792097985744
1782771754768723200,1.71772314453125,-0.08129310607910156,-0.002189621329307556,-0.008971883915364742
1782771754778702600,1.72770263671875,-0.09326457977294922,-0.004583820700645447,0.01736433431506157
1782771754788712200,1.737712158203125,-0.06453323364257812,0.004933338612318039,0.014970134012401104
1782771754798722000,1.74772216796875,-0.08129215240478516,0.00726744532585144,-0.0017291819676756859
1782771754808701400,1.757701416015625,-0.08129215240478516,0.004861675202846527,0.02696741186082363
1782771754818711000,1.7677109375,-0.08608055114746094,-0.004662018269300461,0.007845178246498108
1782771754828721000,1.777720947265625,-0.08368778228759766,-0.01172490045428276,0.0007825000211596489
1782771754838700300,1.7877001953125,-0.06932258605957031,0.012217175215482712,0.0008428758010268211
1782771754848710000,1.7977099609375,-0.08129215240478516,-0.004542171955108643,-0.0038856035098433495
1782771754858719700,1.8077197265625,-0.05974578857421875,-0.01645302213728428,0.008085682988166809
1782771754868699000,1.817698974609375,-0.07889938354492188,0.012277398258447647,0.010539714246988297
1782771754878708500,1.82770849609375,-0.08129310607910156,-0.004541922360658646,-0.008553990162909031
1782771754888718300,1.83771826171875,-0.07650470733642578,0.024188503623008728,0.005930889397859573
1782771754898697700,1.84769775390625,-0.10044574737548828,0.00018644332885742188,0.020356474444270134
1782771754908707600,1.85770751953125,-0.08368778228759766,-0.002148047089576721,-0.005979469045996666
1782771754918717200,1.86771728515625,-0.06692695617675781,-0.009330645203590393,0.013234240934252739
1782771754928696600,1.877696533203125,-0.06453323364257812,-0.011724714189767838,0.010900424793362617
1782771754938706400,1.88770654296875,-0.08847618103027344,-0.0020280852913856506,0.0037777298130095005
1782771754948716000,1.897716064453125,-0.08129310607910156,0.010002821683883667,0.01108027808368206
1782771754958695200,1.907695068359375,-0.08368778228759766,-0.00190802663564682,0.003958039451390505
1782771754968705000,1.917705078125,-0.09086990356445312,-0.00424257293343544,0.006411895155906677
1782771754978714600,1.927714599609375,-0.07889938354492188,0.005274273455142975,0.013655146583914757
1782771754988694000,1.937694091796875,-0.08368682861328125,0.00042610615491867065,0.0017442433163523674
1782771754998703900,1.947703857421875,-0.06213855743408203,-0.0020878538489341736,0.01616964116692543
1782771755008713500,1.95771337890625,-0.08368682861328125,-0.004480212926864624,0.01859143190085888
1782771755018723300,1.967723388671875,-0.07411003112792969,0.005096592009067535,0.00668051652610302
1782771755028702700,1.97770263671875,-0.07650375366210938,-0.004539970308542252,0.0019522206857800484
1782771755038712300,1.98771240234375,-0.06453323364257812,-0.002085726708173752,0.009135376662015915
1782771755048722200,1.99772216796875,-0.0956573486328125,-0.002025958150625229,-0.014806916005909443
1782771755058701300,2.007701416015625,-0.0717153549194336,-0.011602766811847687,0.009255293756723404
1782771755068711000,2.0177109375,-0.08847522735595703,-0.001966182142496109,0.009255845099687576
1782771755078720800,2.027720703125,-0.09086894989013672,0.017247609794139862,0.016378628090023994
1782771755088700200,2.0377001953125,-0.05495738983154297,0.0005480200052261353,0.004467454273253679
1782771755098709800,2.047709716796875,-0.06932258605957031,-0.006634574383497238,0.004467450547963381
1782771755108719600,2.0577197265625,-0.08368682861328125,-0.01148274540901184,0.011650334112346172
1782771755118699000,2.067698974609375,-0.07650470733642578,0.024490371346473694,0.002133621834218502
1782771755128708600,2.07770849609375,-0.08608055114746094,0.00042919814586639404,0.01649937778711319
1782771755138718500,2.087718505859375,-0.0980520248413086,0.010006144642829895,0.009317325428128242
1782771755158228200,2.107228271484375,-0.08608055114746094,-0.0019050315022468567,-0.004931011237204075
1782771755168237800,2.11723779296875,-0.06692695617675781,0.010066051036119461,0.011888504959642887
1782771755178217200,2.12721728515625,-0.09086894989013672,-0.0020251423120498657,0.009614486247301102
1782771755188226800,2.137226806640625,-0.07889842987060547,0.002822987735271454,0.0025514597073197365
1782771755198236700,2.147236572265625,-0.0980520248413086,0.002762969583272934,0.00740023422986269
1782771755208216000,2.157216064453125,-0.07889842987060547,-0.002025436609983444,0.0002774624153971672
1782771755218225700,2.1672255859375,-0.07171440124511719,-0.0019655227661132812,0.009974095970392227
1782771755228235500,2.177235595703125,-0.08607959747314453,0.014734063297510147,-0.0019370848312973976
1782771755238215000,2.18721484375,-0.07889842987060547,-0.013876095414161682,0.01009429432451725
1782771755248224500,2.197224609375,-0.0717153549194336,0.005396895110607147,0.01973102241754532
1782771755258234400,2.207234375,-0.08368682861328125,0.010114382952451706,0.026878729462623596
1782771755268244000,2.217243896484375,-0.08368682861328125,0.007705766707658768,0.0077484408393502235
1782771755278223400,2.227223388671875,-0.08129215240478516,0.01247401162981987,0.014950117096304893
1782771755288233000,2.23723291015625,-0.09086894989013672,-0.00667952373623848,-0.004143574275076389
1782771755298242800,2.247242919921875,-0.09326362609863281,0.002944622188806534,0.019761744886636734
1782771755308222200,2.25722216796875,-0.09086894989013672,-0.0017935782670974731,0.0030907168984413147
1782771755318231800,2.267231689453125,-0.0956573486328125,0.007712654769420624,0.017365330830216408
1782771755328241700,2.27724169921875,-0.0693216323852539,-0.004264857620000839,0.026907138526439667
1782771755338221000,2.287220947265625,-0.0693206787109375,0.010024089366197586,0.01505640521645546
1782771755348230700,2.297230712890625,-0.09805107116699219,0.0004364997148513794,-0.0016213692724704742
1782771755358240500,2.307240478515625,-0.08607959747314453,0.007667232304811478,0.01988915354013443
1782771755368219600,2.3172197265625,-0.08129119873046875,-0.006644323468208313,0.0054950774647295475
1782771755378229200,2.327229248046875,-0.09086894989013672,-0.008981317281723022,0.029444485902786255
1782771755388239000,2.337239013671875,-0.09326362609863281,0.0029865726828575134,0.0007412107661366463
1782771755398218500,2.347218505859375,-0.07171440124511719,-0.013888172805309296,0.010272614657878876
1782771755408228400,2.357228271484375,-0.08368587493896484,0.0028713159263134003,-0.008821159601211548
1782771755418238000,2.367238037109375,-0.0932626724243164,0.0005371794104576111,0.0031498465687036514
1782771755428217300,2.37721728515625,-0.07171440124511719,0.002870894968509674,0.022337038069963455
1782771755438227200,2.387227294921875,-0.07889747619628906,-0.004371508955955505,0.005577901843935251
1782771755448236800,2.39723681640625,-0.08607959747314453,-0.011547591537237167,0.019911041483283043
1782771755458216000,2.4072158203125,-0.07889652252197266,0.007547933608293533,0.017541028559207916
1782771755468225800,2.417225830078125,-0.07889652252197266,0.0051526278257369995,0.008106937631964684
1782771755478235400,2.4272353515625,-0.08129119873046875,0.00520908460021019,0.015253661200404167
1782771755488214800,2.43721484375,-0.08368587493896484,0.0052617453038692474,0.01999347098171711
1782771755498224400,2.447224365234375,-0.07889747619628906,0.00285981222987175,0.005585693288594484
1782771755508234200,2.457234130859375,-0.0669260025024414,-0.0018730685114860535,0.007950091734528542
1782771755518244000,2.467244140625,-0.08129215240478516,-0.006603065878152847,0.024653472006320953
1782771755528223500,2.477223388671875,-0.08847522735595703,-0.0018152296543121338,0.019862214103341103
1782771755538233000,2.487233154296875,-0.07889842987060547,-0.00893242284655571,0.022187644615769386
1782771755548242700,2.49724267578125,-0.08608055114746094,0.0030407048761844635,0.017386317253112793
1782771755558222000,2.50722216796875,-0.08368682861328125,0.01267026737332344,0.0030824001878499985
1782771755568231700,2.517231689453125,-0.07889842987060547,0.012655612081289291,0.003091452643275261
1782771755578241500,2.527241455078125,-0.06692790985107422,-0.004053644835948944,0.019795630127191544
1782771755588221000,2.537220947265625,-0.07650470733642578,0.003117743879556656,0.010103568434715271
1782771755598230500,2.54723046875,-0.07650470733642578,0.000715300440788269,-0.004237322136759758
1782771755608240400,2.557240478515625,-0.09326457977294922,0.005556505173444748,0.012616781517863274
1782771755618219800,2.5672197265625,-0.09326457977294922,0.015120044350624084,0.015040893107652664
1782771755628229400,2.5772294921875,-0.0717153549194336,-0.0039826855063438416,0.0054987226612865925
1782771755638239200,2.5872392578125,-0.08847522735595703,0.007974006235599518,0.02233804762363434
1782771755648218400,2.59721826171875,-0.08608055114746094,0.010353684425354004,0.0032149655744433403
1782771755658228200,2.607228271484375,-0.07650375366210938,0.007944561541080475,0.005583685357123613
1782771755668237800,2.61723779296875,-0.07889842987060547,-0.001585632562637329,0.015190236270427704
1782771755678217200,2.62721728515625,-0.09086990356445312,-0.0014654435217380524,-0.008691687136888504
1782771755688226800,2.637226806640625,-0.07889938354492188,-0.006194271147251129,0.015369357541203499
1782771755698236700,2.647236572265625,-0.07171630859375,-0.0013457722961902618,-0.006238552741706371
1782771755708216000,2.657216064453125,-0.07890033721923828,-0.008408796042203903,0.005792014766484499
1782771755718225700,2.6672255859375,-0.07890129089355469,0.010804813355207443,-0.001330406405031681
1782771755728235500,2.677235595703125,-0.06453609466552734,-0.008348718285560608,0.008246670477092266
1782771755738215000,2.68721484375,-0.08129405975341797,0.010804977267980576,0.003578728064894676
1782771755748224500,2.697224609375,-0.06692886352539062,0.013139531016349792,0.006092227529734373
1782771755758234400,2.707234375,-0.0980539321899414,0.006017021834850311,0.010940724983811378
1782771755768244000,2.717243896484375,-0.0741109848022461,0.006017021834850311,0.015788961201906204
1782771755778223400,2.727223388671875,-0.0741119384765625,0.008395221084356308,0.027726542204618454
1782771755788173600,2.737173583984375,-0.0741119384765625,0.0060429684817790985,0.018111109733581543
1782771755799042600,2.74804248046875,-0.08368873596191406,0.020372498780488968,0.013328243046998978
1782771755818231800,2.767231689453125,-0.10523509979248047,0.013120420277118683,0.00852639228105545
1782771755828241700,2.77724169921875,-0.0741119384765625,-0.00833718478679657,0.01333438791334629
1782771755838221000,2.787220947265625,-0.07650470733642578,0.0012147463858127594,0.027770251035690308
1782771755848230700,2.797230712890625,-0.08847618103027344,-0.005921103060245514,0.00864216685295105
1782771755858240500,2.807240478515625,-0.08608150482177734,-0.008386261761188507,0.013498850166797638
1782771755868219600,2.8172197265625,-0.0741109848022461,-0.0036038681864738464,0.0016683610156178474
1782771755878229200,2.827229248046875,-0.08129405975341797,-0.0010924935340881348,0.006437302101403475
1782771755888239000,2.837239013671875,-0.08847713470458984,-0.0010924264788627625,0.006377744022756815
1782771755898218500,2.847218505859375,-0.08608341217041016,0.0038762614130973816,0.008832039311528206
1782771755908228000,2.85722802734375,-0.06692981719970703,-0.008095216006040573,0.013663208112120628
1782771755918238000,2.867238037109375,-0.08368968963623047,-0.010429318994283676,0.004086400382220745
1782771755928217300,2.87721728515625,-0.06932449340820312,0.0063901543617248535,0.018488749861717224
1782771755938227000,2.88722705078125,-0.06692981719970703,-0.0031865686178207397,0.0041238050907850266
1782771755948236800,2.89723681640625,-0.09087181091308594,0.006447698920965195,0.023240603506565094
1782771755958216000,2.9072158203125,-0.08847808837890625,-0.005522429943084717,0.03036382608115673
1782771755968225500,2.9172255859375,-0.07890129089355469,0.00883837416768074,0.006435382645577192
1782771755978235400,2.9272353515625,-0.08847808837890625,-0.0008620433509349823,0.018413448706269264
1782771755988214800,2.93721484375,-0.08847808837890625,0.008766017854213715,0.018417416140437126
1782771755998165000,2.9471650390625,-0.07890129089355469,-0.0008193366229534149,0.030306894332170486
1782771756008295400,2.95729541015625,-0.08847808837890625,0.023037198930978775,0.011014129966497421
1782771756018184700,2.967184814453125,-0.06932449340820312,0.0039213187992572784,0.015791237354278564
1782771756028315000,2.97731494140625,-0.08129501342773438,0.008680090308189392,0.02306235581636429
1782771756038233000,2.987233154296875,-0.1028432846069336,0.001533273607492447,0.011073816567659378
1782771756048243000,2.997242919921875,-0.076507568359375,-0.005605962127447128,0.008612326346337795
1782771756058222000,3.00722216796875,-0.08608436584472656,-0.010280027985572815,-0.005738445557653904
1782771756068231700,3.017231689453125,-0.06693077087402344,0.006530221551656723,0.01582355983555317
1782771756078241500,3.027241455078125,-0.08847904205322266,0.006518058478832245,0.0062024244107306
1782771756088161300,3.037161376953125,-0.09326744079589844,0.004110302776098251,0.018182720988988876
1782771756098291700,3.047291748046875,-0.07411384582519531,-0.007865700870752335,0.0061753313057124615
1782771756108181000,3.057180908203125,-0.08608436584472656,0.0017664991319179535,0.015777047723531723
1782771756119413000,3.0684130859375,-0.08369064331054688,-0.005358576774597168,0.01112632267177105
1782771756138239200,3.0872392578125,-0.06693077087402344,-0.012535091489553452,0.01595056988298893
1782771756148218400,3.09721826171875,-0.09326744079589844,0.004167977720499039,0.0303129144012928
1782771756158228200,3.107228271484375,-0.08608436584472656,0.0017756856977939606,0.025501545518636703
1782771756168237800,3.11723779296875,-0.08369064331054688,0.004227731376886368,0.00872909463942051
1782771756178217200,3.12721728515625,-0.08608436584472656,0.009067818522453308,0.013508790172636509
1782771756188227000,3.13722705078125,-0.08369159698486328,-0.0027900822460651398,0.01588977873325348
1782771756198177300,3.14717724609375,-0.08369255065917969,0.011679988354444504,0.020717209205031395
1782771756208248000,3.157248046875,-0.09326934814453125,0.004541359841823578,0.008677566424012184
1782771756218196700,3.16719677734375,-0.0812978744506836,0.014152910560369492,0.01578526943922043
1782771756228296700,3.177296630859375,-0.08848094940185547,0.006942320615053177,0.018100867047905922
1782771756238215000,3.18721484375,-0.09566307067871094,-0.012103289365768433,0.022814899682998657
1782771756248224800,3.197224853515625,-0.0812978744506836,0.004643779247999191,0.008450565859675407
1782771756258234400,3.207234375,-0.07411766052246094,0.009474173188209534,0.020294371992349625
1782771756268244000,3.217243896484375,-0.054963111877441406,-0.00023593753576278687,0.015504127368330956
1782771756278223400,3.227223388671875,-0.08848094940185547,0.00926244631409645,0.017891356721520424
1782771756288233000,3.23723291015625,-0.07172107696533203,0.006909750401973724,0.005926205310970545
1782771756298242800,3.247242919921875,-0.08369255065917969,-0.0074693188071250916,0.03941947966814041
1782771756308222200,3.25722216796875,-0.07172203063964844,-0.00023880228400230408,0.013120769523084164
1782771756318231800,3.267231689453125,-0.07411670684814453,0.006987195461988449,0.020214885473251343
1782771756328241700,3.27724169921875,-0.081298828125,-0.00971921905875206,0.015399685129523277
1782771756338221000,3.287220947265625,-0.07890605926513672,-0.0024203211069107056,0.010541684925556183
1782771756348230700,3.297230712890625,-0.09327125549316406,0.007267937064170837,0.000912652350962162
1782771756358240500,3.307240478515625,-0.08608818054199219,0.014494281262159348,0.008104616776108742
1782771756368219600,3.3172197265625,-0.0836954116821289,0.0001739002764225006,0.019958214834332466
1782771756378229200,3.327229248046875,-0.08848381042480469,-0.0022309981286525726,0.010449076071381569
1782771756388239000,3.337239013671875,-0.07651138305664062,0.00487871840596199,0.010454075410962105
1782771756398218500,3.347218505859375,-0.07172298431396484,0.009588312357664108,0.024751972407102585
1782771756408228000,3.35722802734375,-0.0836944580078125,0.002389654517173767,0.015173505991697311
1782771756418238000,3.367238037109375,-0.08848285675048828,0.007215630263090134,0.02233629859983921
1782771756428217300,3.37721728515625,-0.07651233673095703,0.002468615770339966,-0.001662365160882473
1782771756438227000,3.38722705078125,-0.09327220916748047,0.00012033805251121521,0.010380540043115616
1782771756448236800,3.39723681640625,-0.07890701293945312,0.012071147561073303,0.010391345247626305
1782771756458156300,3.40715625,-0.07890701293945312,-0.004567921161651611,-0.01355014555156231
1782771756468286700,3.41728662109375,-0.07890701293945312,0.00027996301651000977,0.00805734284222126
1782771756478235400,3.4272353515625,-0.09087753295898438,0.005007673054933548,0.003390766680240631
1782771756488214800,3.43721484375,-0.08130073547363281,-0.01163298636674881,0.015361778438091278
1782771756498224600,3.447224609375,-0.07411861419677734,0.014752618968486786,0.012999328784644604
1782771756508234200,3.457234130859375,-0.09087753295898438,0.014800429344177246,0.00585693446919322
1782771756518244000,3.467244140625,-0.08130073547363281,0.007482893764972687,0.015468033030629158
1782771756528223500,3.477223388671875,-0.07890701293945312,0.009920023381710052,0.005926744546741247
1782771756538173400,3.48717333984375,-0.07890701293945312,-0.002005297690629959,0.010749077424407005
1782771756548304000,3.497303955078125,-0.07172393798828125,-0.009255845099687576,0.020293384790420532
1782771756558222000,3.50722216796875,-0.06214714050292969,0.014731388539075851,0.013074045069515705
1782771756568231700,3.517231689453125,-0.07172393798828125,0.0028017498552799225,0.020206188783049583
1782771756578241500,3.527241455078125,-0.08130073547363281,0.0028450973331928253,0.005797093268483877
1782771756588161300,3.537161376953125,-0.08130073547363281,0.007617305964231491,0.015393735840916634
1782771756599270000,3.548269775390625,-0.07411956787109375,0.00765431672334671,0.0130082992836833
1782771756618190600,3.567190673828125,-0.07651329040527344,0.002957850694656372,0.008220971561968327
1782771756628290600,3.57729052734375,-0.08130168914794922,0.007727552205324173,0.015427468344569206
1782771756638239200,3.5872392578125,-0.08130168914794922,0.010155819356441498,0.025011349469423294
1782771756648218400,3.59721826171875,-0.09087944030761719,0.007797028869390488,0.0011483058333396912
1782771756658228200,3.607228271484375,-0.07890892028808594,0.005380198359489441,0.015472862869501114
1782771756668237800,3.61723779296875,-0.0860910415649414,-0.011332031339406967,0.003526913933455944
1782771756678217200,3.62721728515625,-0.08130264282226562,-0.004089411348104477,-0.0035958560183644295
1782771756688227000,3.63722705078125,-0.07172584533691406,-0.004029683768749237,0.0060408576391637325
1782771756698177300,3.64717724609375,-0.07412147521972656,0.0008789859712123871,0.015617921948432922
1782771756708307500,3.657307373046875,-0.0860910415649414,-0.015817631036043167,0.022882886230945587
1782771756718216400,3.667216552734375,-0.09566879272460938,0.01297001913189888,0.015728693455457687
1782771756728235500,3.677235595703125,-0.07651519775390625,0.008174803107976913,0.010907582938671112
1782771756738215000,3.68721484375,-0.064544677734375,0.013011530041694641,0.013327190652489662
1782771756748224500,3.697224609375,-0.07412147521972656,0.003483712673187256,0.006116386968642473
1782771756758174700,3.7071748046875,-0.08609199523925781,0.01543205976486206,0.01570855639874935
1782771756768305200,3.71730517578125,-0.07651519775390625,0.01061762124300003,0.008542641066014767
1782771756778223400,3.727223388671875,-0.07651519775390625,-0.00842909887433052,0.01814233511686325
1782771756788173600,3.737173583984375,-0.06933307647705078,0.0012523457407951355,0.01809782162308693
1782771756799385300,3.74838525390625,-0.08130455017089844,-0.0011495426297187805,-0.001080910675227642
1782771756818231800,3.767231689453125,-0.07890987396240234,0.013190973550081253,0.008559181354939938
1782771756828182300,3.777182373046875,-0.10045719146728516,0.020399969071149826,0.02287885546684265
1782771756839076900,3.788076904296875,-0.06933403015136719,0.0011588223278522491,0.015649456530809402
1782771756858240500,3.807240478515625,-0.08609294891357422,-0.0012100748717784882,0.017942115664482117
1782771756868219400,3.817219482421875,-0.07651519775390625,-0.010856516659259796,0.0011407267302274704
1782771756878169900,3.827169921875,-0.06933403015136719,0.0011744871735572815,-0.003527599386870861
1782771756888300300,3.83730029296875,-0.08609294891357422,-0.005951385945081711,0.01799667812883854
1782771756898158800,3.847158935546875,-0.08369922637939453,-0.0012258552014827728,0.020422009751200676
1782771756908289300,3.857289306640625,-0.08130455017089844,0.0060111843049526215,0.010815095156431198
1782771756918238000,3.867238037109375,-0.08609294891357422,0.010847046971321106,0.034756407141685486
1782771756928217300,3.87721728515625,-0.07172870635986328,0.0037078969180583954,0.02031671069562435
1782771756938227200,3.887227294921875,-0.07891178131103516,0.006145067512989044,0.010735072195529938
1782771756948236800,3.89723681640625,-0.09567070007324219,-0.0010523758828639984,0.013120884075760841
1782771756958216000,3.9072158203125,-0.07891178131103516,-0.005848787724971771,0.010724568739533424
1782771756968225800,3.917225830078125,-0.08130550384521484,0.006110604852437973,0.020232755690813065
1782771756978235400,3.9272353515625,-0.06454658508300781,0.008553791791200638,-0.0013533961027860641
1782771756988214800,3.93721484375,-0.07891178131103516,0.0013572238385677338,0.010566331446170807
1782771756998165000,3.9471650390625,-0.0669403076171875,0.013247456401586533,0.012908197939395905
1782771757008295400,3.95729541015625,-0.08130550384521484,0.008444983512163162,0.0009702751412987709
1782771757018184700,3.967184814453125,-0.05736351013183594,-0.010708555579185486,-0.0014843661338090897
1782771757028315000,3.97731494140625,-0.07891178131103516,-0.001013297587633133,0.005757462698966265
1782771757038173700,3.987173583984375,-0.08848857879638672,0.0038278140127658844,0.02733423002064228
1782771757048303900,3.997303955078125,-0.08370018005371094,0.00614885613322258,0.029669061303138733
1782771757058222000,4.00722216796875,-0.0908823013305664,-0.003376089036464691,0.020097335800528526
1782771757068231700,4.017231689453125,-0.07412338256835938,-0.008167512714862823,0.017699159681797028
1782771757078182100,4.02718212890625,-0.05736351013183594,0.0014061294496059418,0.008129843510687351
1782771757088312300,4.037312255859375,-0.07412338256835938,-0.012953562662005424,0.015192409977316856
1782771757098230500,4.04723046875,-0.07891273498535156,0.006321322172880173,0.003188498318195343
1782771757108181000,4.057180908203125,-0.07891273498535156,-0.0008019991219043732,0.0031654462218284607
1782771757119332400,4.068332275390625,-0.08609485626220703,-0.005527999252080917,0.01755332574248314
1782771757138179800,4.087179931640625,-0.08130645751953125,0.023247424513101578,0.008006418123841286
1782771757148310000,4.09731005859375,-0.0693359375,0.006536867469549179,0.0008551152423024178
1782771757158228200,4.107228271484375,-0.08130741119384766,-0.0005938783288002014,0.019977275282144547
1782771757168238000,4.117238037109375,-0.0693368911743164,0.01614578813314438,0.02232223004102707
1782771757178217200,4.12721728515625,-0.09088325500488281,0.011278551071882248,0.0031936028972268105
1782771757188226800,4.137226806640625,-0.05975914001464844,0.0016838572919368744,0.007946347817778587
1782771757198236700,4.147236572265625,-0.08130645751953125,-0.0006626956164836884,0.015097858384251595
1782771757208216000,4.157216064453125,-0.09327888488769531,0.011291254311800003,0.015061924234032631
1782771757218226000,4.167225830078125,-0.07891368865966797,0.008880093693733215,0.003062065690755844
1782771757228176100,4.177176025390625,-0.07651901245117188,0.008858073502779007,0.014996124431490898
1782771757239328800,4.188328857421875,-0.11003684997558594,0.013553950935602188,0.015007039532065392
1782771757258234400,4.207234375,-0.07651805877685547,0.006364785134792328,0.00528879975900054
1782771757268244200,4.217244140625,-0.0717306137084961,-0.0007179751992225647,0.014887025579810143
1782771757278223400,4.227223388671875,-0.0693359375,0.018346089869737625,0.014842431992292404
1782771757288233000,4.23723291015625,-0.08370113372802734,0.01119149848818779,0.010070445016026497
1782771757298242800,4.247242919921875,-0.08370113372802734,0.00876772403717041,0.012484196573495865
1782771757308222200,4.25722216796875,-0.07172966003417969,0.008677095174789429,0.014774901792407036
1782771757318231800,4.267231689453125,-0.09088325500488281,0.006307527422904968,0.01950710639357567
1782771757328241700,4.27724169921875,-0.07412433624267578,-0.005627471953630447,0.007547972723841667
1782771757338221000,4.287220947265625,-0.08130645751953125,0.0015925876796245575,0.0028348490595817566
1782771757348230700,4.297230712890625,-0.062152862548828125,0.006358727812767029,0.014760816469788551
1782771757358240500,4.307240478515625,-0.08609485626220703,0.011131681501865387,-0.0020201895385980606
1782771757368219600,4.3172197265625,-0.08130741119384766,0.011229030787944794,0.002863033674657345
1782771757378229200,4.327229248046875,-0.0956716537475586,0.025555208325386047,0.007740549743175507
1782771757388239000,4.337239013671875,-0.07412433624267578,0.008757542818784714,0.010102985426783562
1782771757398218500,4.347218505859375,-0.09088325500488281,0.01105838268995285,-0.0018901405856013298
1782771757408228400,4.357228271484375,-0.08609485626220703,0.0038480721414089203,0.0029393229633569717
1782771757418238000,4.367238037109375,-0.08848953247070312,-0.0008354298770427704,0.007715526036918163
1782771757428217300,4.37721728515625,-0.09806632995605469,0.003938701003789902,0.010155702009797096
1782771757438227000,4.38722705078125,-0.0932779312133789,0.008708886802196503,0.012590792030096054
1782771757448236800,4.39723681640625,-0.09806632995605469,-0.01038481667637825,-0.004048704169690609
1782771757458216000,4.4072158203125,-0.08848953247070312,0.004040651023387909,0.005528609734028578
1782771757468225500,4.4172255859375,-0.07412433624267578,0.0016465187072753906,-0.01362475287169218
1782771757478235400,4.4272353515625,-0.09088325500488281,0.023254424333572388,0.00080055370926857
1782771757488214800,4.43721484375,-0.08130741119384766,0.006554845720529556,0.007983158342540264
1782771757498224600,4.447224609375,-0.0980672836303711,-0.005356166511774063,0.012831727042794228
1782771757508174800,4.4571748046875,-0.08130836486816406,0.00434030219912529,0.0009205490350723267
1782771757519470800,4.468470947265625,-0.0980682373046875,-0.00038811564445495605,0.012891808524727821
1782771757538233000,4.487233154296875,-0.08849048614501953,0.0043857283890247345,-0.0036795204505324364
1782771757548243000,4.497242919921875,-0.07891368865966797,0.009155727922916412,0.01790919341146946
1782771757558222000,4.50722216796875,-0.08609676361083984,0.009215828031301498,-0.0011844905093312263
1782771757568231700,4.517231689453125,-0.08609580993652344,0.006762135773897171,0.006057928781956434
1782771757578241500,4.527241455078125,-0.09088516235351562,-0.007482938468456268,-0.0058530168607831
1782771757588221000,4.537220947265625,-0.09088516235351562,0.0020939484238624573,0.01808924973011017
1782771757598230500,4.54723046875,-0.07891464233398438,0.021307524293661118,-0.0009443499147891998
1782771757608240400,4.557240478515625,-0.07891368865966797,0.021222136914730072,0.02297656610608101
1782771757618160000,4.56716015625,-0.10285663604736328,0.016398414969444275,0.003799092024564743
1782771757628290600,4.57729052734375,-0.0717306137084961,0.0020611360669136047,0.018193550407886505
1782771757638179800,4.587179931640625,-0.07651996612548828,0.009274564683437347,0.013374694623053074
1782771757648310000,4.59731005859375,-0.08609580993652344,0.01402532309293747,0.006276694592088461
1782771757658228200,4.607228271484375,-0.09088420867919922,0.0020261481404304504,0.015882108360528946
1782771757668238000,4.617238037109375,-0.07891368865966797,-0.0003329925239086151,0.008608637377619743
1782771757678217200,4.62721728515625,-0.08849048614501953,0.009221404790878296,0.011094117537140846
1782771757688227000,4.63722705078125,-0.09327888488769531,-0.002708524465560913,0.01351637952029705
1782771757698236700,4.647236572265625,-0.08130741119384766,0.014088153839111328,0.0038510924205183983
1782771757708156400,4.657156494140625,-0.07412528991699219,0.011667605489492416,0.008669284172356129
1782771757719265000,4.66826513671875,-0.0980682373046875,0.009175505489110947,0.025314446538686752
1782771757738215000,4.68721484375,-0.0717315673828125,0.006880484521389008,0.003635847009718418
1782771757748224800,4.697224853515625,-0.07651996612548828,-0.00989827886223793,0.015635494142770767
1782771757758234400,4.707234375,-0.08609676361083984,0.009283214807510376,0.02521379664540291
1782771757768244200,4.717244140625,-0.08130836486816406,-0.0003674924373626709,0.0013052923604846
1782771757778223400,4.727223388671875,-0.10046195983886719,0.01875825971364975,0.022868186235427856
1782771757788233000,4.73723291015625,-0.09327888488769531,0.01632779836654663,0.0013374825939536095
1782771757798242800,4.747242919921875,-0.08849048614501953,0.018741827458143234,0.0012428322806954384
1782771757808222200,4.75722216796875,-0.07891464233398438,0.004400715231895447,0.010845012962818146
1782771757818172400,4.76717236328125,-0.07651901245117188,0.01393388956785202,0.01086476631462574
1782771757828243200,4.7772431640625,-0.08130741119384766,-0.005250625312328339,0.020457135513424873
1782771757839382300,4.78838232421875,-0.08609580993652344,0.009084004908800125,0.0036606304347515106
1782771757858240500,4.807240478515625,-0.08849143981933594,0.01878073439002037,0.01326806377619505
1782771757868219600,4.8172197265625,-0.08370208740234375,0.006772421300411224,0.01561146229505539
1782771757878229200,4.827229248046875,-0.08609580993652344,0.009129703044891357,0.00838141143321991
1782771757888239000,4.837239013671875,-0.08130836486816406,0.016389574855566025,0.0036101657897233963
1782771757898218500,4.847218505859375,-0.07891464233398438,0.006894752383232117,0.005967135075479746
1782771757908168700,4.857168701171875,-0.08849143981933594,0.011649802327156067,0.001211298629641533
1782771757919359500,4.868359375,-0.08609676361083984,0.0020315125584602356,0.013139629736542702
1782771757938227000,4.88722705078125,-0.0956735610961914,0.009349651634693146,0.02509349025785923
1782771757948236800,4.89723681640625,-0.06933784484863281,0.004532027989625931,0.010795257985591888
1782771757958216000,4.9072158203125,-0.08370304107666016,-0.007517106831073761,0.015533190220594406
1782771757968225500,4.9172255859375,-0.10046195983886719,0.011672094464302063,0.015538139268755913
1782771757978235400,4.9272353515625,-0.08130836486816406,0.0069192685186862946,0.015543393790721893
1782771757988214800,4.93721484375,-0.08130836486816406,0.011736754328012466,0.013150248676538467
1782771757998165000,4.9471650390625,-0.0717315673828125,0.004461351782083511,0.025105055421590805
1782771758008295400,4.95729541015625,-0.08130836486816406,0.009214986115694046,0.01784548908472061
1782771758018244000,4.967244140625,-0.08370304107666016,0.021199535578489304,0.0033513857051730156
1782771758028223500,4.977223388671875,-0.09088516235351562,0.011570744216442108,0.015248943120241165
1782771758038233000,4.987233154296875,-0.08370208740234375,0.011460825800895691,0.005669929552823305
1782771758048243000,4.997242919921875,-0.08849048614501953,-0.005334850400686264,0.012852602638304234
1782771758058222000,5.00722216796875,-0.08370208740234375,0.016165543347597122,0.024807274341583252
1782771758068231700,5.017231689453125,-0.08849048614501953,-0.01737324148416519,-0.0015185680240392685
1782771758078241500,5.027241455078125,-0.08609485626220703,0.004097737371921539,0.007958374917507172
1782771758088221000,5.037220947265625,-0.08370113372802734,0.008929282426834106,0.015164794400334358
1782771758098230500,5.04723046875,-0.10046005249023438,0.0016674287617206573,0.010330595076084137
1782771758108240400,5.057240478515625,-0.09088325500488281,0.011286366730928421,0.01508346013724804
1782771758118219800,5.0672197265625,-0.09088325500488281,0.004019893705844879,0.012698478065431118
1782771758128229400,5.0772294921875,-0.09088420867919922,0.0016631819307804108,0.017371580004692078
1782771758138239200,5.0872392578125,-0.09088420867919922,0.006490185856819153,0.019830645993351936
1782771758148218400,5.09721826171875,-0.09327888488769531,0.01610790193080902,-0.008926688693463802
1782771758158228200,5.107228271484375,-0.09088420867919922,0.001844886690378189,0.0007460806518793106
1782771758168238000,5.117238037109375,-0.09088516235351562,0.009000655263662338,0.022192034870386124
1782771758178217200,5.12721728515625,-0.08849048614501953,0.004200167953968048,-0.0040397970005869865
1782771758188227000,5.13722705078125,-0.08849048614501953,0.006632886826992035,0.005511625204235315
1782771758198236700,5.147236572265625,-0.07651901245117188,-0.0005624853074550629,0.010400686413049698
1782771758208216000,5.157216064453125,-0.08609676361083984,0.011510021984577179,0.010376591235399246
1782771758218226000,5.167225830078125,-0.07651996612548828,0.013876557350158691,0.020095419138669968
1782771758228235500,5.177235595703125,-0.08130836486816406,0.009115207940340042,0.015321021899580956
1782771758238215000,5.18721484375,-0.08130836486816406,-0.0004235394299030304,-0.00380120612680912
1782771758248224800,5.197224853515625,-0.08609676361083984,0.004340499639511108,0.0129221947863698
1782771758258234400,5.207234375,-0.08130836486816406,0.013957284390926361,0.013016258366405964
1782771758268244200,5.217244140625,-0.10046100616455078,-0.0004942044615745544,0.01069951057434082
1782771758278223400,5.227223388671875,-0.09088420867919922,-0.0029095597565174103,0.01783386617898941
1782771758288233000,5.23723291015625,-0.08609580993652344,0.013882257044315338,0.008330154232680798
1782771758298242800,5.247242919921875,-0.05257606506347656,-0.005348179489374161,0.01074453815817833
1782771758308222200,5.25722216796875,-0.095672607421875,0.00187644362449646,0.02266223169863224
1782771758318231800,5.267231689453125,-0.07891368865966797,0.009098265320062637,0.020271575078368187
1782771758328241700,5.27724169921875,-0.08609580993652344,0.004352577030658722,0.008256915956735611
1782771758338221000,5.287220947265625,-0.08609676361083984,-0.007509946823120117,0.015451217070221901
1782771758348230700,5.297230712890625,-0.09327983856201172,0.018862474709749222,0.015455737709999084
1782771758358240500,5.307240478515625,-0.07891464233398438,0.01410381868481636,0.0057670981623232365
1782771758368219600,5.3172197265625,-0.0980682373046875,0.004510503262281418,-0.01101289875805378
1782771758378229200,5.327229248046875,-0.08370304107666016,-0.0002348572015762329,0.015355587005615234
1782771758388239000,5.337239013671875,-0.08370304107666016,0.006931189447641373,0.005813803058117628
1782771758398218500,5.347218505859375,-0.08849143981933594,0.01403263583779335,-0.0013901302590966225
1782771758408228000,5.35722802734375,-0.0717315673828125,0.006850104779005051,0.001123618334531784
1782771758418238000,5.367238037109375,-0.10525035858154297,0.0021218806505203247,0.005972367245703936
1782771758428217300,5.37721728515625,-0.0956735610961914,0.01412506029009819,0.025093436241149902
1782771758438227000,5.38722705078125,-0.07891464233398438,0.018927548080682755,0.02737065777182579
1782771758448236800,5.39723681640625,-0.06694412231445312,-0.0025332048535346985,0.01301456056535244
1782771758458216000,5.4072158203125,-0.08849239349365234,-0.00010298565030097961,-0.0013867346569895744
1782771758468225500,5.4172255859375,-0.08131027221679688,0.0023302510380744934,0.010609729215502739
1782771758478235400,5.4272353515625,-0.10525226593017578,-0.012045120820403099,0.01063804142177105
1782771758488155100,5.437155029296875,-0.08131027221679688,0.014390315860509872,0.01783522590994835
1782771758498316000,5.44731591796875,-0.1028585433959961,0.019143827259540558,0.017777282744646072
1782771758508174800,5.4571748046875,-0.08609867095947266,-0.00463089719414711,-0.0013412674888968468
1782771758519161300,5.468161376953125,-0.09328174591064453,-0.00463978573679924,0.0034864377230405807
1782771758538173700,5.487173583984375,-0.08131027221679688,0.01682806760072708,0.008558826521039009
1782771758548304100,5.49730419921875,-0.10525131225585938,0.0048997364938259125,0.015831798315048218
1782771758558222000,5.50722216796875,-0.09567546844482422,-0.004676990211009979,0.0014061406254768372
1782771758568231700,5.517231689453125,-0.09807014465332031,0.007284592837095261,0.008572349324822426
1782771758578241500,5.527241455078125,-0.08370494842529297,0.007337566465139389,0.006227674428373575
1782771758588221000,5.537220947265625,-0.08370494842529297,-0.009368479251861572,0.020631203427910805
1782771758598230500,5.54723046875,-0.1004638671875,0.017012856900691986,0.013538935221731663
1782771758608240400,5.557240478515625,-0.09328174591064453,0.009810131043195724,0.008835738524794579
1782771758618160000,5.56716015625,-0.09807014465332031,0.012241180986166,0.006469698157161474
1782771758628290600,5.57729052734375,-0.08370494842529297,-0.004537854343652725,0.02085173688828945
1782771758638179800,5.587179931640625,-0.0741281509399414,0.005198191851377487,0.020857591181993484
1782771758648310000,5.59731005859375,-0.09328174591064453,0.0123550184071064,0.013683171011507511
1782771758658228200,5.607228271484375,-0.09088802337646484,0.014831926673650742,0.025703106075525284
1782771758668238000,5.617238037109375,-0.09807014465332031,0.007609914988279343,0.023287717252969742
1782771758678217200,5.62721728515625,-0.09807014465332031,0.007568433880805969,0.01368821319192648
1782771758688167400,5.63716748046875,-0.0741281509399414,0.007411148399114609,0.006435939576476812
1782771758698297900,5.6472978515625,-0.1028585433959961,0.009765863418579102,0.015942495316267014
1782771758708216000,5.657216064453125,-0.08849239349365234,0.0025487281382083893,0.023050472140312195
1782771758718172200,5.667172119140625,-0.09567451477050781,0.00013289228081703186,-0.003270629793405533
1782771758728266000,5.677265869140625,-0.09088611602783203,0.016922105103731155,0.008655892685055733
1782771758738215000,5.68721484375,-0.07891654968261719,0.016950130462646484,-0.0033480804413557053
1782771758748224800,5.697224853515625,-0.08370399475097656,0.002497375011444092,0.011043805629014969
1782771758758234400,5.707234375,-0.09327983856201172,0.014309514313936234,0.023085083812475204
1782771758768244200,5.717244140625,-0.09088516235351562,0.002365522086620331,0.00885342713445425
1782771758778223400,5.727223388671875,-0.09088516235351562,-0.0024449676275253296,0.008816267363727093
1782771758788233000,5.73723291015625,-0.09327983856201172,0.016730956733226776,0.018338441848754883
1782771758798242800,5.747242919921875,-0.08849143981933594,0.01435849443078041,0.006321570370346308
1782771758808222200,5.75722216796875,-0.08849143981933594,0.031109418720006943,0.01583542674779892
1782771758818172400,5.76717236328125,-0.06933784484863281,0.007163602858781815,0.02300580032169819
1782771758828302800,5.777302734375,-0.07891559600830078,-0.004788707941770554,0.0061925738118588924
1782771758838161400,5.787161376953125,-0.08130931854248047,0.011927466839551926,0.006142378319054842
1782771758848291800,5.797291748046875,-0.0980691909790039,0.014333434402942657,0.00854712538421154
1782771758858240500,5.807240478515625,-0.08609771728515625,0.02151617780327797,0.015793796628713608
1782771758868219600,5.8172197265625,-0.08370304107666016,0.006982080638408661,0.008622128516435623
1782771758878229200,5.827229248046875,-0.08609676361083984,0.0022103004157543182,0.01575363613665104
1782771758888179700,5.8371796875,-0.08849143981933594,-0.007397651672363281,0.018153246492147446
1782771758898310000,5.847309814453125,-0.0956735610961914,-0.012142365798354149,0.01816152222454548
1782771758908168700,5.857168701171875,-0.0980682373046875,-0.0025168955326080322,0.013385611586272717
1782771758918299100,5.867299072265625,-0.07891464233398438,0.023729685693979263,0.010871801525354385
1782771758928217300,5.87721728515625,-0.08609676361083984,0.00701252743601799,-0.005914607085287571
1782771758938167600,5.88716748046875,-0.09088516235351562,-0.00018835440278053284,0.03001575358211994
1782771758948298000,5.897298095703125,-0.07651996612548828,0.021382678300142288,0.017983853816986084
1782771758958216000,5.9072158203125,-0.08130836486816406,0.004591234028339386,0.020377101376652718
1782771758968225800,5.917225830078125,-0.08370304107666016,0.011800114065408707,0.008470434695482254
1782771758978235400,5.9272353515625,-0.0980682373046875,0.004580255597829819,0.006016660947352648
1782771758988214800,5.93721484375,-0.08130836486816406,0.002226807177066803,0.00604540528729558
1782771758998165000,5.9471650390625,-0.08130836486816406,0.006991863250732422,0.015642039477825165
1782771759008235800,5.95723583984375,-0.08849143981933594,0.0021785125136375427,0.017984943464398384
1782771759018305000,5.967304931640625,-0.0980682373046875,0.01178700476884842,0.015538092702627182
1782771759028223500,5.977223388671875,-0.0956735610961914,0.009352196007966995,0.03705533966422081
1782771759038233000,5.987233154296875,-0.09328079223632812,0.01654469221830368,0.010632477700710297
1782771759048243000,5.997242919921875,-0.07891464233398438,0.009314313530921936,0.003377847373485565
1782771759058222000,6.00722216796875,-0.08130836486816406,0.01166580617427826,-0.0013416511937975883
1782771759068231700,6.017231689453125,-0.08609676361083984,0.009350746870040894,0.0008932482451200485
1782771759078241500,6.027241455078125,-0.08609676361083984,0.0069774240255355835,0.010488893836736679
1782771759088221000,6.037220947265625,-0.07651996612548828,-0.014645174145698547,0.008069192059338093
1782771759098230500,6.04723046875,-0.09327983856201172,-0.009808611124753952,0.015273276716470718
1782771759108240400,6.057240478515625,-0.0980691909790039,0.023804742842912674,0.010504916310310364
1782771759118219800,6.0672197265625,-0.1004629135131836,-0.004881013184785843,0.01053212396800518
1782771759128229400,6.0772294921875,-0.08370399475097656,0.018971841782331467,0.017726458609104156
1782771759138239200,6.0872392578125,-0.09088516235351562,0.016538217663764954,0.012884755618870258
1782771759148218400,6.09721826171875,-0.08609676361083984,0.009305313229560852,0.03679671138525009
1782771759158175500,6.107175537109375,-0.11243343353271484,0.01399175450205803,0.008003401570022106
1782771759168268500,6.1172685546875,-0.0980682373046875,0.013949558138847351,0.010400932282209396
1782771759178217200,6.12721728515625,-0.08849143981933594,0.023588523268699646,0.010399244725704193
1782771759188227000,6.13722705078125,-0.06454849243164062,0.018603511154651642,0.019953126087784767
1782771759198236700,6.147236572265625,-0.08609485626220703,0.006504196673631668,0.0223810076713562
1782771759208216000,6.157216064453125,-0.10046005249023438,0.0016637146472930908,0.0008281171321868896
1782771759218226000,6.167225830078125,-0.0932779312133789,0.011261221021413803,0.0008473461493849754
1782771759228235500,6.177235595703125,-0.09806632995605469,0.008813586086034775,0.024781279265880585
1782771759238215000,6.18721484375,-0.08848953247070312,0.015938445925712585,0.0032340912148356438
1782771759248224800,6.197224853515625,-0.0932779312133789,0.02071923017501831,0.0103572066873312
1782771759258234400,6.207234375,-0.09806632995605469,0.011132992804050446,0.010415572673082352
1782771759268244000,6.217243896484375,-0.08848953247070312,0.0016212239861488342,0.008087572641670704
1782771759278223400,6.227223388671875,-0.07651805877685547,0.001643650233745575,0.01767781749367714
1782771759288233000,6.23723291015625,-0.08370113372802734,0.013630613684654236,0.0248611681163311
1782771759298242800,6.247242919921875,-0.08370113372802734,0.004002947360277176,0.008031432516872883
1782771759308162600,6.25716259765625,-0.08848953247070312,-0.0008196793496608734,0.0008603502064943314
1782771759319214000,6.268214111328125,-0.0932779312133789,0.0015406236052513123,0.012834219262003899
1782771759338221000,6.287220947265625,-0.08848953247070312,0.01105787605047226,0.0009695468470454216
1782771759348230700,6.297230712890625,-0.08609485626220703,-0.0008748210966587067,0.008186351507902145
1782771759358240500,6.307240478515625,-0.08848857879638672,-0.0008748285472393036,-0.0012702615931630135
1782771759368219600,6.3172197265625,-0.09806537628173828,0.011129435151815414,0.017968524247407913
1782771759378229200,6.327229248046875,-0.0908823013305664,0.013438202440738678,0.013149534352123737
1782771759388239000,6.337239013671875,-0.08370018005371094,0.008683685213327408,0.017963211983442307
1782771759398218500,6.347218505859375,-0.09806537628173828,-0.010481983423233032,0.008302566595375538
1782771759408228400,6.357228271484375,-0.10045909881591797,0.01583823561668396,0.0035524731501936913
1782771759418238000,6.367238037109375,-0.08609390258789062,-0.0032680556178092957,0.003532916307449341
1782771759428217300,6.37721728515625,-0.07651710510253906,0.001567292958498001,0.020385179668664932
1782771759438227200,6.387227294921875,-0.0908823013305664,0.001551251858472824,0.015616567805409431
1782771759448236800,6.39723681640625,-0.08370018005371094,0.0014800317585468292,0.018035588786005974
1782771759458216000,6.4072158203125,-0.08370018005371094,0.003978978842496872,0.015533920377492905
1782771759468225800,6.417225830078125,-0.09806537628173828,0.023106887936592102,0.008368189446628094
1782771759478235400,6.4272353515625,-0.08848953247070312,0.006379079073667526,0.01328798197209835
1782771759488214800,6.43721484375,-0.09806537628173828,0.008747652173042297,0.0060667493380606174
1782771759498224400,6.447224365234375,-0.09567070007324219,0.0015425793826580048,0.015602894127368927
1782771759508234200,6.457234130859375,-0.0908823013305664,0.018212467432022095,0.008440126664936543
1782771759518244000,6.467244140625,-0.0908823013305664,0.003811091184616089,0.02035169117152691
1782771759528223500,6.477223388671875,-0.0932769775390625,0.008619170635938644,0.02757764235138893
1782771759538233000,6.487233154296875,-0.0932769775390625,-0.0033813491463661194,0.013201807625591755
1782771759548243000,6.497242919921875,-0.08130550384521484,0.018183741718530655,0.01797046884894371
1782771759558222000,6.50722216796875,-0.09567070007324219,0.008565705269575119,0.005931023973971605
1782771759568231700,6.517231689453125,-0.08848857879638672,0.003747861832380295,0.005883064586669207
1782771759578241500,6.527241455078125,-0.0908823013305664,-0.010636139661073685,0.008230813778936863
1782771759588221000,6.537220947265625,-0.08609390258789062,0.006104726344347,0.010642029345035553
1782771759598230500,6.54723046875,-0.09567070007324219,0.008541591465473175,0.005821485538035631
1782771759608240400,6.557240478515625,-0.10045909881591797,0.0013420507311820984,0.010693874210119247
1782771759618219800,6.5672197265625,-0.09566974639892578,0.006048142910003662,0.02500412054359913
1782771759628229400,6.5772294921875,-0.08848762512207031,-0.0059364065527915955,0.00831638928502798
1782771759638239200,6.5872392578125,-0.07172870635986328,-0.008276700973510742,0.008393775671720505
1782771759648218600,6.597218505859375,-0.10764217376708984,0.001353587955236435,0.001234961673617363
1782771759658228200,6.607228271484375,-0.09567070007324219,-0.0034347325563430786,0.006023620720952749
1782771759668238000,6.617238037109375,-0.09567070007324219,-0.003435961902141571,0.025134168565273285
1782771759678217200,6.62721728515625,-0.08609390258789062,0.020558562129735947,0.0036247093230485916
1782771759688226800,6.637226806640625,-0.0908823013305664,-0.003330342471599579,0.00850706361234188
1782771759698236700,6.647236572265625,-0.11003589630126953,0.006355948746204376,0.01565493270754814
1782771759708216000,6.657216064453125,-0.08130645751953125,0.015976931899785995,0.00598953990265727
1782771759718225700,6.6672255859375,-0.08130645751953125,0.02318715676665306,0.015583772212266922
1782771759728235500,6.677235595703125,-0.08370113372802734,0.008785944432020187,0.013201035559177399
1782771759738215000,6.68721484375,-0.07891273498535156,0.008813463151454926,0.010764405131340027
1782771759748224800,6.697224853515625,-0.10285472869873047,0.011280607432126999,0.02745429053902626
1782771759758234400,6.707234375,-0.0956716537475586,-0.00318121537566185,0.020256929099559784
1782771759768244200,6.717244140625,-0.09806632995605469,-0.0031432434916496277,0.0011144690215587616
1782771759778223400,6.727223388671875,-0.09088325500488281,0.006466668099164963,0.022597508504986763
1782771759788233000,6.73723291015625,-0.08609485626220703,0.006500184535980225,0.015412798151373863
1782771759798242800,6.747242919921875,-0.08609580993652344,-0.0029794909060001373,0.020187852904200554
1782771759808222200,6.75722216796875,-0.09327888488769531,0.0018475204706192017,0.01060100831091404
1782771759818231800,6.767231689453125,-0.0956716537475586,0.028146866708993912,0.001088620163500309
1782771759828182300,6.777182373046875,-0.08370113372802734,0.006504949182271957,0.012946118600666523
1782771759839022800,6.78802294921875,-0.10285472869873047,0.02321331948041916,0.008161252364516258
1782771759858180900,6.807180908203125,-0.0932779312133789,-0.003272227942943573,0.017746800556778908
1782771759868311300,6.817311279296875,-0.07172966003417969,-0.0032999031245708466,0.022585079073905945
1782771759878229200,6.827229248046875,1.5898466110229492,-0.07271958887577057,0.21374095976352692
1782771759888239000,6.837239013671875,0.2227802276611328,0.0032996386289596558,-0.034150660037994385
1782771759898218500,6.847218505859375,-0.18661975860595703,0.016423743218183517,-0.0015872661024332047
1782771759908228000,6.85722802734375,-0.11000537872314453,0.004407227039337158,0.015301444567739964
1782771759918238000,6.867238037109375,-0.16986560821533203,0.0026203468441963196,0.0022948123514652252
1782771759928217300,6.87721728515625,-0.17705631256103516,0.01823575049638748,0.01941044256091118
1782771759938227200,6.887227294921875,0.12220382690429688,-0.027728520333766937,0.032461751252412796
1782771759948236800,6.89723681640625,-0.12441349029541016,0.0009411163628101349,-0.02733154594898224
