time,seconds_elapsed,z,y,x
1782772238504125200,0.214125244140625,-0.016691207885742188,-0.0007957704365253448,0.0006122293416410685
1782772238514135000,0.224135009765625,-0.03345012664794922,-0.0077882688492536545,0.014660876244306564
1782772238524145000,0.234144775390625,-0.04542350769042969,-0.007608665153384209,-0.0023976245429366827
1782772238534124000,0.2441240234375,-0.031058311462402344,0.009330950677394867,0.002090676221996546
1782772238544134000,0.2541337890625,-0.02866363525390625,0.01178482174873352,0.002090456197038293
1782772238554143500,0.2641435546875,-0.05021190643310547,-0.00012612715363502502,-0.002637887140735984
1782772238564123000,0.274122802734375,-0.03345203399658203,0.01651356741786003,-0.002757398411631584
1782772238574132500,0.284132568359375,-0.03824043273925781,0.011725172400474548,0.006879512220621109
1782772238584142300,0.294142333984375,-0.052605628967285156,0.004482712596654892,0.016516178846359253
1782772238594121500,0.30412158203125,-0.05500030517578125,0.016453731805086136,0.004485298879444599
1782772238604131300,0.31413134765625,-0.031023025512695312,0.010495156049728394,0.010852744802832603
1782772238614141200,0.32414111328125,-0.06933021545410156,0.0009183846414089203,-0.010695341974496841
1782772238624120600,0.33412060546875,-0.047781944274902344,0.0032527148723602295,0.010972406715154648
1782772238634130200,0.344130126953125,-0.05496501922607422,0.005646932870149612,-0.022486504167318344
1782772238644140000,0.35414013671875,-0.045388221740722656,0.007981285452842712,0.013426793739199638
1782772238654119200,0.364119140625,-0.05496501922607422,-0.01841503009200096,0.020669491961598396
1782772238664129000,0.37412890625,-0.06454181671142578,0.003192402422428131,-0.005606804974377155
1782772238674139000,0.384138916015625,-0.057358741760253906,-0.0039902180433273315,-0.005606531165540218
1782772238684118000,0.394117919921875,-0.04299354553222656,-0.00644427165389061,-0.01039466168731451
1782772238694127600,0.404127685546875,-0.05017662048339844,-0.003990154713392258,0.0016362587921321392
1782772238704137500,0.414137451171875,-0.06693458557128906,0.017437972128391266,-0.008000106550753117
1782772238714116900,0.424116943359375,-0.04059886932373047,0.0006785430014133453,0.011153781786561012
1782772238724126500,0.43412646484375,-0.05496501922607422,-0.0015963613986968994,-0.005605630110949278
1782772238734136300,0.44413623046875,-0.059752464294433594,-0.016081763431429863,-0.0008172267116606236
1782772238744115700,0.45411572265625,-0.052570343017578125,-0.004050940275192261,-0.0056053572334349155
1782772238754125300,0.464125244140625,-0.045388221740722656,-0.004050936549901962,-0.015122249722480774
1782772238764135200,0.47413525390625,-0.057358741760253906,0.015102677047252655,-0.012668217532336712
1782772238774144800,0.484144775390625,-0.05975341796875,0.007920071482658386,-0.01021391898393631
1782772238784124000,0.4941240234375,-0.06454181671142578,0.017496876418590546,-0.005425516050308943
1782772238794133800,0.5041337890625,-0.06214714050292969,-0.004050955176353455,-0.0006368390750139952
1782772238804143600,0.5141435546875,-0.052570343017578125,0.0007972940802574158,-0.005365683697164059
1782772238814122800,0.524122802734375,-0.05496501922607422,0.0032515935599803925,0.0018169211689382792
1782772238824132600,0.534132568359375,-0.062148094177246094,-0.006205916404724121,-0.000577280530706048
1782772238834142500,0.544142578125,-0.050177574157714844,0.0009766891598701477,-0.005305594764649868
1782772238844121600,0.55412158203125,-0.062148094177246094,0.0033708736300468445,-0.007699524983763695
1782772238854131500,0.56413134765625,-0.057358741760253906,0.0009167417883872986,-0.007639339193701744
1782772238864141000,0.57414111328125,-0.047781944274902344,0.003191288560628891,0.016242848709225655
1782772238874120200,0.5841201171875,-0.057358741760253906,-0.0015971623361110687,0.013909289613366127
1782772238884130000,0.594130126953125,-0.040599822998046875,0.0007970519363880157,-0.00763852521777153
1782772238894140000,0.604139892578125,-0.05496501922607422,0.000857137143611908,0.00666658952832222
1782772238904119000,0.614119140625,-0.06454181671142578,-0.011113859713077545,-0.022123660892248154
1782772238914129000,0.62412890625,-0.06454181671142578,0.0008571185171604156,0.004272742662578821
1782772238924138800,0.634138671875,-0.07651233673095703,0.010433953255414963,-0.007698537316173315
1782772238934118100,0.6441181640625,-0.057358741760253906,0.0032513178884983063,0.013849550858139992
1782772238944127700,0.654127685546875,-0.06693553924560547,0.005705155432224274,0.009121065959334373
1782772238954137600,0.6641376953125,-0.062148094177246094,-0.020570985972881317,0.002058924175798893
1782772238964116500,0.674116455078125,-0.05735969543457031,-0.001357540488243103,-0.00027544633485376835
1782772238974126300,0.684126220703125,-0.0645437240600586,-0.0036918260157108307,-0.007517963647842407
1782772238984136200,0.69413623046875,-0.08369636535644531,0.02019035443663597,-0.01464073732495308
1782772238994115600,0.704115478515625,-0.06933116912841797,-0.020511064678430557,-0.014580640941858292
1782772239004125200,0.714125244140625,-0.04060077667236328,-0.01332845538854599,0.014209427870810032
1782772239014135000,0.724135009765625,-0.07411956787109375,0.017796166241168976,-0.0048840902745723724
1782772239024145000,0.734144775390625,-0.05735969543457031,-0.0013574659824371338,0.007147019729018211
1782772239034124000,0.7441240234375,-0.05257129669189453,-0.0037516802549362183,-0.0024295151233673096
1782772239044134000,0.7541337890625,-0.0645437240600586,-0.0012381821870803833,-0.0024295146577060223
1782772239054143500,0.7641435546875,-0.07172584533691406,-0.0011179931461811066,0.004753090441226959
1782772239064123000,0.774122802734375,-0.04778480529785156,0.010912831872701645,-0.01918865740299225
1782772239074132500,0.784132568359375,-0.062150001525878906,0.0037302039563655853,0.002419339958578348
1782772239084142300,0.794142333984375,-0.05496788024902344,-0.0010581985116004944,-0.004703164100646973
1782772239094121500,0.80412158203125,-0.05975627899169922,-0.020091652870178223,0.00008577993139624596
1782772239104131300,0.81413134765625,-0.052573204040527344,-0.0008784011006355286,0.007328033447265625
1782772239114141200,0.82414111328125,-0.0645456314086914,-0.010335031896829605,-0.009370744228363037
1782772239124120300,0.834120361328125,-0.06933307647705078,0.011212769895792007,0.002780025592073798
1782772239134130200,0.844130126953125,-0.05496788024902344,0.018395375460386276,-0.006796780973672867
1782772239144140000,0.85414013671875,-0.06933307647705078,0.0015761330723762512,-0.009190983138978481
1782772239154119200,0.864119140625,-0.05975627899169922,0.011152919381856918,0.014751303009688854
1782772239164129000,0.87412890625,-0.06693840026855469,-0.008000697940587997,0.00044600991532206535
1782772239174138600,0.884138671875,-0.06933307647705078,-0.000818103551864624,0.002780114533379674
1782772239184118000,0.894117919921875,-0.064544677734375,0.006244830787181854,-0.013979028910398483
1782772239194127600,0.904127685546875,-0.064544677734375,0.01827574148774147,-0.002007751725614071
1782772239204137500,0.914137451171875,-0.064544677734375,-0.003272097557783127,-0.016372425481677055
1782772239214116600,0.92411669921875,-0.064544677734375,-0.01296909898519516,0.007569591514766216
1782772239224126500,0.93412646484375,-0.050179481506347656,-0.0057268403470516205,-0.004341769497841597
1782772239234136300,0.94413623046875,-0.064544677734375,0.006244156509637833,-0.0018872014479711652
1782772239244115700,0.95411572265625,-0.06693840026855469,-0.008061230182647705,-0.01140390895307064
1782772239254125300,0.964125244140625,-0.064544677734375,0.001515556126832962,0.01014444325119257
1782772239264135200,0.97413525390625,-0.07172679901123047,0.0063039399683475494,0.0054164063185453415
1782772239274144800,0.984144775390625,-0.05496788024902344,-0.008001189678907394,0.0006883686874061823
1782772239284124000,0.9941240234375,-0.04778575897216797,0.013606451451778412,0.0006886364426463842
1782772239294133800,1.0041337890625,-0.06933403015136719,-0.010275669395923615,0.007871508598327637
1782772239304143600,1.0141435546875,-0.0669393539428711,0.011212319135665894,-0.004099499434232712
1782772239314123000,1.024123046875,-0.06215190887451172,-0.0030327141284942627,0.010326072573661804
1782772239324132600,1.034132568359375,-0.07172870635986328,0.01612088829278946,-0.0016446691006422043
1782772239334142500,1.044142578125,-0.07172870635986328,-0.0054269395768642426,0.003144002053886652
1782772239344121600,1.05412158203125,-0.05736351013183594,-0.012609556317329407,-0.006372703239321709
1782772239354131500,1.06413134765625,-0.05736351013183594,0.004149843007326126,0.019963782280683517
1782772239364141000,1.07414111328125,-0.0693349838256836,0.006544038653373718,0.010327411815524101
1782772239374120400,1.084120361328125,-0.0669393539428711,0.008878149092197418,-0.008706009946763515
1782772239384130000,1.094130126953125,-0.07172775268554688,0.006483927369117737,0.0032652649097144604
1782772239394140000,1.104139892578125,-0.05736351013183594,-0.003032773733139038,-0.0039173392578959465
1782772239404119300,1.114119384765625,-0.07651710510253906,0.011392246931791306,0.0009909924119710922
1782772239414129000,1.12412890625,-0.07891178131103516,0.004269566386938095,-0.003737498540431261
1782772239424138800,1.134138671875,-0.08370018005371094,-0.005307268351316452,0.015356816351413727
1782772239434118100,1.1441181640625,-0.06215190887451172,-0.000578954815864563,-0.00607080664485693
1782772239444127700,1.154127685546875,-0.07172870635986328,-0.01021542027592659,0.017931122332811356
1782772239454137600,1.1641376953125,-0.05496978759765625,-0.000638619065284729,-0.008344733156263828
1782772239464116700,1.17411669921875,-0.07172870635986328,-0.0029729902744293213,0.006020743865519762
1782772239474126300,1.184126220703125,-0.05496978759765625,-0.005367197096347809,0.001352431601844728
1782772239484136200,1.19413623046875,-0.0669403076171875,-0.0005189701914787292,-0.0034359716810286045
1782772239494115600,1.204115478515625,-0.07412338256835938,0.01384623721241951,-0.015406712889671326
1782772239504125200,1.214125244140625,-0.06454753875732422,-0.002793889492750168,-0.003435439895838499
1782772239514135000,1.224135009765625,-0.0693359375,0.001994512975215912,-0.005829375237226486
1782772239524145000,1.234144775390625,-0.07651805877685547,0.0019945017993450165,-0.0033152461983263493
1782772239534124000,1.2441240234375,-0.0669412612915039,0.016299612820148468,0.011050230823457241
1782772239544134000,1.2541337890625,-0.07891273498535156,0.0019343942403793335,0.0038678906857967377
1782772239554143500,1.2641435546875,-0.08370113372802734,0.02108801156282425,-0.005649087019264698
1782772239564123000,1.274122802734375,-0.062152862548828125,0.004388418048620224,-0.012831160798668861
1782772239574132500,1.284132568359375,-0.07172966003417969,0.004388406872749329,0.01117111649364233
1782772239584142300,1.294142333984375,-0.07172966003417969,0.00438840314745903,-0.01271088607609272
1782772239594121500,1.30412158203125,-0.07172966003417969,-0.002854272723197937,-0.007801820058375597
1782772239604131300,1.31413134765625,-0.0693359375,0.02114741876721382,0.016199875622987747
1782772239614141200,1.32414111328125,-0.07651805877685547,0.002053871750831604,0.011411204934120178
1782772239624120600,1.33412060546875,-0.0669412612915039,-0.005188599228858948,0.01625973731279373
1782772239634130200,1.344130126953125,-0.062152862548828125,-0.007463034242391586,-0.005288077984005213
1782772239644140000,1.35414013671875,-0.07651901245117188,0.016538843512535095,0.016319865360856056
1782772239654119200,1.364119140625,-0.07412528991699219,-0.002614770084619522,0.0042890566401183605
1782772239664129000,1.37412890625,-0.06694221496582031,-0.007343500852584839,-0.0076220096088945866
1782772239674139000,1.384138916015625,-0.08370208740234375,0.011810112744569778,0.009197497740387917
1782772239684118000,1.394117919921875,-0.07651901245117188,0.018992699682712555,0.013986428268253803
1782772239694127600,1.404127685546875,-0.0693368911743164,0.01899271458387375,-0.002712806686758995
1782772239704137500,1.414137451171875,-0.0717315673828125,0.009475726634263992,-0.00031834153924137354
1782772239714116900,1.424116943359375,-0.0741262435913086,0.004747413098812103,-0.002712278626859188
1782772239724126500,1.43412646484375,-0.07651996612548828,0.004747413098812103,-0.005106480326503515
1782772239734136300,1.44413623046875,-0.06454944610595703,0.002473406493663788,-0.00037790797068737447
1782772239744115700,1.45411572265625,-0.06694316864013672,-0.002374831587076187,0.006804697215557098
1782772239754125300,1.464125244140625,-0.06215476989746094,-0.007103327661752701,0.001956908032298088
1782772239764135200,1.47413525390625,-0.0717315673828125,0.002533312886953354,-0.0027716634795069695
1782772239774144800,1.484144775390625,-0.08849239349365234,0.017018713057041168,0.00919960718601942
1782772239784124000,1.4941240234375,-0.05976295471191406,-0.01883447915315628,0.004471295978873968
1782772239794133800,1.5041337890625,-0.08131027221679688,0.005167439579963684,0.009319611825048923
1782772239804143600,1.5141435546875,-0.06694507598876953,0.0051674507558345795,-0.0050455983728170395
1782772239814123000,1.524123046875,-0.0741281509399414,-0.013986175879836082,-0.0025913030840456486
1782772239824132600,1.534132568359375,-0.054973602294921875,0.012350045144557953,-0.00013693167420569807
1782772239834142500,1.544142578125,-0.07173347473144531,-0.013926083222031593,0.021411405876278877
1782772239844121600,1.55412158203125,-0.06455135345458984,0.010075770318508148,-0.0024707738775759935
1782772239854131500,1.56413134765625,-0.0741281509399414,0.0005588605999946594,-0.002350426744669676
1782772239864141000,1.57414111328125,-0.06933975219726562,0.005347277969121933,0.007346299011260271
1782772239874120400,1.584120361328125,-0.0765218734741211,0.014924075454473495,0.002617990830913186
1782772239884130000,1.594130126953125,-0.07173347473144531,0.0077414847910404205,-0.02371796779334545
1782772239894140000,1.604139892578125,-0.07173347473144531,-0.0018954314291477203,-0.002049699891358614
1782772239904119300,1.614119384765625,-0.06455135345458984,0.012469783425331116,0.007527366280555725
1782772239914129000,1.62412890625,-0.05976295471191406,0.010015670210123062,-0.011686161160469055
1782772239924138800,1.634138671875,-0.06933975219726562,0.00995585322380066,-0.0092318682000041
1782772239934118100,1.6441181640625,-0.08370494842529297,-0.0018949732184410095,-0.0019891662523150444
1782772239944127700,1.654127685546875,-0.06455135345458984,-0.00907757505774498,0.00046494320849888027
1782772239954137600,1.6641376953125,-0.06455135345458984,0.024441249668598175,-0.004203274846076965
1782772239964116700,1.67411669921875,-0.08131027221679688,0.002893444150686264,0.015010694041848183
1782772239974126300,1.684126220703125,-0.06933975219726562,0.005227725952863693,-0.008871671743690968
1782772239984136200,1.69413623046875,-0.08131027221679688,0.007681764662265778,-0.008871151134371758
1782772239994115600,1.704115478515625,-0.06694507598876953,0.014924470335245132,-0.0016885459190234542
1782772240004125200,1.714125244140625,-0.07891654968261719,0.007741864770650864,0.0031595067121088505
1782772240014135000,1.724135009765625,-0.08370590209960938,0.007801968604326248,0.0008261814364232123
1782772240024145000,1.734144775390625,-0.07173442840576172,0.03415922820568085,0.015245901420712471
1782772240034124000,1.7441240234375,-0.0741281509399414,0.0029457248747348785,0.0033297373447567225
1782772240044133600,1.754133544921875,-0.0765218734741211,0.021997306495904922,-0.006189828738570213
1782772240054143500,1.7641435546875,-0.06694507598876953,-0.011521510779857635,0.010629677213728428
1782772240064123000,1.774122802734375,-0.0717325210571289,-0.009187139570713043,0.024995146319270134
1782772240074132500,1.784132568359375,-0.06455039978027344,0.01708916574716568,0.001113042701035738
1782772240084142300,1.794142333984375,-0.06933879852294922,0.012276358902454376,0.008279290050268173
1782772240094121500,1.80412158203125,-0.07891464233398438,0.012194652110338211,0.00826459564268589
1782772240104131300,1.81413134765625,-0.06933784484863281,0.00983121246099472,0.010697374120354652
1782772240114141200,1.82414111328125,-0.09328079223632812,-0.004492312669754028,0.008404513821005821
1782772240124120600,1.83412060546875,-0.08849239349365234,-0.011686533689498901,0.022802947089076042
1782772240134130200,1.844130126953125,-0.08609771728515625,0.009907957166433334,0.003746435744687915
1782772240144140000,1.85414013671875,-0.06455039978027344,0.00511956587433815,0.001412325887940824
1782772240154119400,1.864119384765625,-0.08131027221679688,0.005179651081562042,-0.0009818754624575377
1782772240164129000,1.87412890625,-0.08609771728515625,-0.0068509988486766815,0.01098939310759306
1782772240174139000,1.884138916015625,-0.0741281509399414,-0.0020024925470352173,-0.0009816157398745418
1782772240184118000,1.894117919921875,-0.05976295471191406,0.007634151726961136,-0.0033157258294522762
1782772240194127600,1.904127685546875,-0.0741281509399414,0.007634151726961136,-0.01289227232336998
1782772240204137500,1.914137451171875,-0.0741281509399414,0.014816775918006897,0.003807570319622755
1782772240214116900,1.924116943359375,-0.06694507598876953,0.014876872301101685,0.0062020327895879745
1782772240224126500,1.93412646484375,-0.08131027221679688,0.022096645087003708,-0.000984945334494114
1782772240234136300,1.94413623046875,-0.08370494842529297,0.0030031539499759674,0.0038640773855149746
1782772240244115700,1.95411572265625,-0.08131027221679688,0.014954637736082077,-0.008108076639473438
1782772240254125300,1.964125244140625,-0.06455230712890625,-0.0017448514699935913,0.011045796796679497
1782772240264135200,1.97413525390625,-0.06215667724609375,0.010226156562566757,0.0014091578777879477
1782772240274144800,1.984144775390625,-0.06694507598876953,0.0029834583401679993,0.0109859649091959
1782772240284124000,1.9941240234375,-0.0789175033569336,0.010225918143987656,0.0014695108402520418
1782772240294133800,2.0041337890625,-0.05497550964355469,-0.00413929671049118,0.008712024427950382
1782772240304143600,2.0141435546875,-0.06694602966308594,0.0030433200299739838,-0.0009240988874807954
1782772240314123000,2.024123046875,-0.06934070587158203,0.007831733673810959,0.011107265949249268
1782772240324132600,2.034132568359375,-0.0789175033569336,0.005437541753053665,0.02068432979285717
1782772240334142500,2.044142578125,-0.06694507598876953,0.03168131783604622,-0.005608555860817432
1782772240344121600,2.05412158203125,-0.0765218734741211,0.0077187679708004,0.003958091605454683
1782772240354131500,2.06413134765625,-0.08370494842529297,0.00536789745092392,0.011130227707326412
1782772240364141000,2.07414111328125,-0.0741281509399414,0.010194163769483566,0.0064474428072571754
1782772240374120400,2.084120361328125,-0.05976295471191406,0.007774781435728073,0.01606355980038643
1782772240384130000,2.094130126953125,-0.0765228271484375,-0.008944060653448105,0.016036653891205788
1782772240394140000,2.104139892578125,-0.08131122589111328,0.007856585085391998,0.0039826747961342335
1782772240404119300,2.114119384765625,-0.07412910461425781,0.0006739944219589233,0.004102595150470734
1782772240414129000,2.12412890625,-0.07173442840576172,0.003068201243877411,-0.0006256365450099111
1782772240424138800,2.134138671875,-0.07173347473144531,0.007796786725521088,-0.0006253774045035243
1782772240434118100,2.1441181640625,-0.08370590209960938,-0.004114117473363876,-0.0006251173326745629
1782772240444127700,2.154127685546875,-0.05976390838623047,0.015099149197340012,0.004282583016902208
1782772240454137600,2.1641376953125,-0.08849430084228516,-0.0016602501273155212,0.013919741846621037
1782772240464116700,2.17411669921875,-0.06934070587158203,0.005522351711988449,0.0043429359793663025
1782772240474126300,2.184126220703125,-0.07412910461425781,0.019867297261953354,0.009114458225667477
1782772240484136200,2.19413623046875,-0.07173442840576172,-0.0016206726431846619,-0.0052504935301840305
1782772240494115600,2.204115478515625,-0.08131122589111328,0.0032278411090373993,0.0019326297333464026
1782772240504125200,2.214125244140625,-0.06934165954589844,-0.011077720671892166,-0.005250232294201851
1782772240514135000,2.224135009765625,-0.06694698333740234,0.012924395501613617,-0.005189878866076469
1782772240524145000,2.234144775390625,-0.0813131332397461,0.02016683667898178,-0.012432058341801167
1782772240534124000,2.2441240234375,-0.07652473449707031,-0.010897677391767502,-0.0028549940325319767
1782772240544134000,2.2541337890625,-0.07413101196289062,0.017773110419511795,-0.0004605362191796303
1782772240554143500,2.2641435546875,-0.0789194107055664,0.013044815510511398,0.004328124690800905
1782772240564123000,2.274122802734375,-0.05976581573486328,-0.001260560005903244,0.006782157346606255
1782772240574132500,2.284132568359375,-0.08370780944824219,0.001073736697435379,0.006782413460314274
1782772240584142300,2.294142333984375,-0.07652473449707031,0.0010737478733062744,0.004448298364877701
1782772240594121500,2.30412158203125,-0.07413101196289062,0.015499059110879898,0.009176863357424736
1782772240604131300,2.31413134765625,-0.07652473449707031,0.02028747648000717,-0.0075229015201330185
1782772240614141200,2.32414111328125,-0.06934261322021484,0.003588162362575531,0.006782470736652613
1782772240624120600,2.33412060546875,-0.08370780944824219,0.01319883018732071,0.018679974600672722
1782772240634130200,2.344130126953125,-0.0789194107055664,0.0036220327019691467,-0.00041372585110366344
1782772240644140000,2.35414013671875,-0.0813131332397461,0.017957404255867004,0.006814979948103428
1782772240654119400,2.364119384765625,-0.0813131332397461,0.005964610725641251,-0.005102911964058876
1782772240664129000,2.37412890625,-0.06455421447753906,-0.0012179911136627197,-0.0003145085647702217
1782772240674139000,2.384138916015625,-0.07413101196289062,0.015520371496677399,0.011706995777785778
1782772240684118000,2.394117919921875,-0.06934261322021484,0.006003417074680328,-0.007387010380625725
1782772240694127600,2.404127685546875,-0.08370780944824219,0.0060633085668087006,-0.009721076115965843
1782772240704137500,2.414137451171875,-0.07173633575439453,-0.008301913738250732,0.002309539122506976
1782772240714116900,2.424116943359375,-0.08370780944824219,-0.0010592453181743622,0.0023095393553376198
1782772240724126500,2.43412646484375,-0.08610248565673828,0.001394655555486679,0.009492398239672184
1782772240734136300,2.44413623046875,-0.07652568817138672,0.0013946816325187683,0.00476456992328167
1782772240744115700,2.45411572265625,-0.07413196563720703,0.013425569981336594,-0.014328927733004093
1782772240754125300,2.464125244140625,-0.07652568817138672,0.020608175545930862,0.0025503095239400864
1782772240764135200,2.47413525390625,-0.07892036437988281,0.013545278459787369,0.012068045325577259
1782772240774144800,2.484144775390625,-0.08610248565673828,-0.0008199289441108704,0.00488543976098299
1782772240784124000,2.4941240234375,-0.0813140869140625,0.006362687796354294,0.0025513218715786934
1782772240794133800,2.5041337890625,-0.06934356689453125,0.00869699940085411,0.00015737395733594894
1782772240804143600,2.5141435546875,-0.08610248565673828,0.008637182414531708,0.002611663192510605
1782772240814123000,2.524123046875,-0.062160491943359375,0.015939999371767044,0.005066466052085161
1782772240824132600,2.534132568359375,-0.09328651428222656,0.008817065507173538,0.0003379685804247856
1782772240834142500,2.544142578125,-0.05497932434082031,0.004088737070560455,0.00764049869030714
1782772240844062200,2.554062255859375,-0.0837106704711914,0.016153350472450256,0.01480927225202322
1782772240854192400,2.5641923828125,-0.06455612182617188,0.011331595480442047,0.002763042226433754
1782772240864141000,2.57414111328125,-0.07413387298583984,0.011418096721172333,0.012380769476294518
1782772240874120200,2.5841201171875,-0.06695079803466797,-0.0005750842392444611,0.017209280282258987
1782772240884070700,2.594070556640625,-0.07413387298583984,0.016151409596204758,0.0004281282890588045
1782772240894200800,2.604200927734375,-0.083709716796875,-0.0007466599345207214,0.0028684886638075113
1782772240904119300,2.614119384765625,-0.083709716796875,-0.0030804798007011414,-0.01149672083556652
1782772240914129000,2.62412890625,-0.08610343933105469,-0.007868863642215729,-0.006708066910505295
1782772240924138800,2.634138671875,-0.06455612182617188,0.0017079748213291168,0.007717479486018419
1782772240934118100,2.6441181640625,-0.09807586669921875,0.011344898492097855,0.010111934505403042
1782772240944127700,2.654127685546875,-0.07892227172851562,0.006556510925292969,0.012566033750772476
1782772240954137600,2.6641376953125,-0.06934452056884766,0.0064964331686496735,-0.0113757299259305
1782772240964116700,2.67411669921875,-0.07413196563720703,0.01846744492650032,0.005443512462079525
1782772240974126300,2.684126220703125,-0.09089088439941406,0.01361912116408348,-0.004133294336497784
1782772240984136200,2.69413623046875,-0.06455516815185547,0.0064963698387146,0.00310939340852201
1782772240994115600,2.704115478515625,-0.0813150405883789,-0.0054145269095897675,0.005563941318541765
1782772241004125200,2.714125244140625,-0.0813150405883789,0.011404559016227722,0.00801804568618536
1782772241014135000,2.724135009765625,-0.083709716796875,0.004221953451633453,0.012926638126373291
1782772241024145000,2.734144775390625,-0.07413291931152344,0.011404573917388916,-0.0038325213827192783
1782772241034124000,2.7441240234375,-0.08610343933105469,-0.0030807815492153168,0.005804888438433409
1782772241044134000,2.7541337890625,-0.07413291931152344,0.0041614919900894165,-0.0012581709306687117
1782772241054143500,2.7641435546875,-0.08849811553955078,0.011344067752361298,0.013226975686848164
1782772241064123000,2.774122802734375,-0.07892131805419922,0.016108136624097824,0.020387638360261917
1782772241074132500,2.784132568359375,-0.0813150405883789,-0.0005913376808166504,-0.0034942144993692636
1782772241084142300,2.794142333984375,-0.06695079803466797,0.00192255899310112,-0.013010687194764614
1782772241094121500,2.80412158203125,-0.08131599426269531,0.013893578201532364,0.0038088206201791763
1782772241104131300,2.81413134765625,-0.07892227172851562,0.01634744182229042,0.006262920796871185
1782772241114141200,2.82414111328125,-0.07173919677734375,0.006770655512809753,-0.0009194333106279373
1782772241124120600,2.83412060546875,-0.083709716796875,-0.0004717521369457245,-0.000859350897371769
1782772241134130200,2.844130126953125,-0.07652759552001953,0.00677080824971199,-0.0008588484488427639
1782772241144140000,2.85414013671875,-0.07413387298583984,0.01167888194322586,-0.0007990160956978798
1782772241154119400,2.864119384765625,-0.06695079803466797,0.004496347159147263,0.013566947542130947
1782772241164129000,2.87412890625,-0.08131599426269531,0.021290767937898636,0.006494022440165281
1782772241174139000,2.884138916015625,-0.06934547424316406,0.004510063678026199,0.004090741742402315
1782772241184118000,2.894117919921875,-0.08849906921386719,0.016450699418783188,0.00653197942301631
1782772241194127600,2.904127685546875,-0.0861043930053711,0.006840147078037262,0.025658519938588142
1782772241204137500,2.914137451171875,-0.06934547424316406,-0.0028178617358207703,0.0064843082800507545
1782772241214116900,2.924116943359375,-0.0837106704711914,-0.00521203875541687,0.008938858285546303
1782772241224126500,2.93412646484375,-0.06455707550048828,-0.0003768354654312134,0.013763630762696266
1782772241234136300,2.94413623046875,-0.08849906921386719,0.0020035207271575928,0.013853931799530983
1782772241244056000,2.95405615234375,-0.083709716796875,-0.0029045194387435913,-0.00045119598507881165
1782772241254217000,2.964217041015625,-0.09807586669921875,0.013854943215847015,-0.0003312472254037857
1782772241264135200,2.97413525390625,-0.06934547424316406,0.0020050890743732452,0.009245814755558968
1782772241274144800,2.984144775390625,-0.07892227172851562,0.021083958446979523,0.014076795428991318
1782772241284124000,2.9941240234375,-0.06695079803466797,-0.01484045758843422,0.021228838711977005
1782772241294133800,3.0041337890625,-0.07173824310302734,0.0018496140837669373,0.011623633094131947
1782772241304084200,3.014084228515625,-0.07413291931152344,0.009032223373651505,-0.007470148615539074
1782772241315192600,3.025192626953125,-0.09328556060791016,0.004243846982717514,0.004561018198728561
1782772241334082800,3.044082763671875,-0.07413196563720703,0.011340666562318802,0.00692144175991416
1782772241344213200,3.054213134765625,-0.07652568817138672,0.0016901567578315735,0.014144837856292725
1782772241354131500,3.06413134765625,-0.07173728942871094,0.001750856637954712,0.0021738288924098015
1782772241364141000,3.07414111328125,-0.0813140869140625,-0.0029782578349113464,-0.007284410297870636
1782772241374120400,3.084120361328125,-0.07173824310302734,0.004264470189809799,0.007141146808862686
1782772241384130000,3.094130126953125,-0.09089183807373047,-0.0004642568528652191,0.01911240629851818
1782772241394140000,3.104139892578125,-0.07413291931152344,-0.005312755703926086,-0.007103619631379843
1782772241404119300,3.114119384765625,-0.07413196563720703,-0.005372527986764908,0.01923310197889805
1782772241414129000,3.12412890625,-0.08610343933105469,0.004264220595359802,-0.00710286432877183
1782772241424138800,3.134138671875,-0.07413291931152344,0.006658446043729782,0.007382259704172611
1782772241434118100,3.1441181640625,-0.07652664184570312,-0.007646694779396057,0.014504517428576946
1782772241444127700,3.154127685546875,-0.06934547424316406,-0.00040441006422042847,0.00977601483464241
1782772241454137600,3.1641376953125,-0.09807586669921875,0.006778251379728317,0.01701921783387661
1782772241464116700,3.17411669921875,-0.07173919677734375,0.02352875843644142,0.004974952433258295
1782772241474126300,3.184126220703125,-0.06934547424316406,0.021174509078264236,0.00016891863197088242
1782772241484136200,3.19413623046875,-0.07413387298583984,-0.005175270140171051,0.014575261622667313
1782772241494115600,3.204115478515625,-0.07173919677734375,-0.005175270140171051,-0.002184150740504265
1782772241504125200,3.214125244140625,-0.07413387298583984,0.021147046238183975,0.009832397103309631
1782772241514135000,3.224135009765625,-0.09089279174804688,-0.014765944331884384,0.014681147411465645
1782772241524145000,3.234144775390625,-0.06695079803466797,0.009235933423042297,-0.004532046150416136
1782772241534124000,3.2441240234375,-0.08849906921386719,-0.0027951374650001526,0.012347811833024025
1782772241544134000,3.2541337890625,-0.08610248565673828,-0.0004605241119861603,0.012407958507537842
1782772241554143500,3.2641435546875,-0.06694889068603516,0.013904780149459839,0.007680406328290701
1782772241564123000,3.274122802734375,-0.06216144561767578,0.009176239371299744,0.007680656388401985
1782772241574132700,3.2841328125,-0.083709716796875,0.001993659883737564,-0.00423018541187048
1782772241584142300,3.294142333984375,-0.07892036437988281,-0.0004603266716003418,0.00768124358728528
1782772241594121500,3.30412158203125,-0.08849811553955078,0.011570796370506287,0.0028930921107530594
1782772241604131300,3.31413134765625,-0.08610343933105469,0.009176623076200485,-0.006564166862517595
1782772241614141200,3.32414111328125,-0.08849811553955078,0.009176656603813171,-0.006563914939761162
1782772241624120600,3.33412060546875,-0.059767723083496094,0.0043284595012664795,-0.0017154277302324772
1782772241634130200,3.344130126953125,-0.0813140869140625,0.011391278356313705,0.01031574234366417
1782772241644140000,3.35414013671875,-0.07413196563720703,0.013785537332296371,0.007981877774000168
1782772241654119400,3.364119384765625,-0.06455516815185547,-0.005307979881763458,-0.001534832175821066
1782772241664129000,3.37412890625,-0.09568023681640625,0.009176526218652725,0.00804197508841753
1782772241674139000,3.384138916015625,-0.09089279174804688,0.002054087817668915,0.008042477071285248
1782772241684118000,3.394117919921875,-0.057374000549316406,0.00923672690987587,0.0032543237321078777
1782772241694127600,3.404127685546875,-0.07892131805419922,0.004388447850942612,0.01283138245344162
1782772241704137500,3.414137451171875,-0.06934547424316406,0.016419310122728348,-0.006262149196118116
1782772241714116900,3.424116943359375,-0.059767723083496094,0.01651889830827713,0.010607092641294003
1782772241724126500,3.43412646484375,-0.07173824310302734,-0.00026111677289009094,0.015378382988274097
1782772241734136300,3.44413623046875,-0.08849811553955078,0.014088716357946396,-0.010964350774884224
1782772241744115700,3.45411572265625,-0.0861043930053711,-0.002730444073677063,0.01531212031841278
1782772241754125300,3.464125244140625,-0.06694889068603516,0.004392281174659729,-0.0013874117285013199
1782772241764135200,3.47413525390625,-0.07652568817138672,-0.00045599043369293213,-0.0013874107971787453
1782772241774144800,3.484144775390625,-0.08849716186523438,-0.0003959238529205322,0.017766201868653297
1782772241784124000,3.4941240234375,-0.07652568817138672,-0.0003959536552429199,0.0034606042318046093
1782772241794133800,3.5041337890625,-0.06934356689453125,0.0187576524913311,0.013097293674945831
1782772241804143600,3.5141435546875,-0.07173824310302734,0.009212836623191833,0.022696394473314285
1782772241814123000,3.524123046875,-0.07892131805419922,0.006867468357086182,-0.0012576295994222164
1782772241824132600,3.534132568359375,-0.0813150405883789,0.016416233032941818,0.022711262106895447
1782772241834142500,3.544142578125,-0.0837087631225586,0.016372226178646088,0.010754507035017014
1782772241844062200,3.554062255859375,-0.07892036437988281,0.0019688233733177185,0.01076849177479744
1782772241854192400,3.5641923828125,-0.06934356689453125,0.006721880286931992,0.005999209824949503
1782772241864141000,3.57414111328125,-0.07892036437988281,-0.00048354268074035645,0.00363692594692111
1782772241874060800,3.584060791015625,-0.07892036437988281,-0.005212210118770599,0.006031126715242863
1782772241884191200,3.594191162109375,-0.07892036437988281,-0.002818051725625992,0.0012424737215042114
1782772241894140000,3.604139892578125,-0.09328556060791016,0.006758652627468109,-0.008274812251329422
1782772241904059600,3.6140595703125,-0.06934356689453125,0.01867019385099411,0.010878801345825195
1782772241915203800,3.625203857421875,-0.06694889068603516,-0.012394698336720467,0.006090397015213966
1782772241934118100,3.6441181640625,-0.07892131805419922,0.006812483072280884,0.003749349620193243
1782772241944127700,3.654127685546875,-0.07892131805419922,0.014054741710424423,-0.0009794053621590137
1782772241954137600,3.6641376953125,-0.083709716796875,0.006812039762735367,0.0014147963374853134
1782772241964116700,3.67411669921875,-0.08131599426269531,0.014114312827587128,0.015720175579190254
1782772241974126300,3.684126220703125,-0.06694984436035156,0.009303018450737,0.008518080227077007
1782772241984136200,3.69413623046875,-0.09328746795654297,0.002159561961889267,0.010950116440653801
1782772241994115600,3.704115478515625,-0.0861043930053711,-0.002583000808954239,0.01571640372276306
1782772242004125200,3.714125244140625,-0.09089279174804688,0.016544856131076813,0.022979842498898506
1782772242014135000,3.724135009765625,-0.08610343933105469,0.01406317949295044,0.006246866658329964
1782772242024145000,3.734144775390625,-0.059767723083496094,0.014085240662097931,0.01823136769235134
1782772242034124000,3.7441240234375,-0.06934452056884766,-0.0003125295042991638,0.015726784244179726
1782772242044134000,3.7541337890625,-0.06455612182617188,-0.009902462363243103,0.0013941191136837006
1782772242054143500,3.7641435546875,-0.08610343933105469,0.006783246994018555,0.0013713971711695194
1782772242064123000,3.774122802734375,-0.083709716796875,-0.005187761038541794,-0.015388013795018196
1782772242074132700,3.7841328125,-0.06694984436035156,0.021148383617401123,-0.0033575966954231262
1782772242084142300,3.794142333984375,-0.083709716796875,0.004388928413391113,0.0014903885312378407
1782772242094121500,3.80412158203125,-0.08610343933105469,0.004388898611068726,0.00873283576220274
1782772242104131300,3.81413134765625,-0.07173824310302734,0.01408495381474495,0.00394418416544795
1782772242114141200,3.82414111328125,-0.07652664184570312,0.004546180367469788,0.02792094647884369
1782772242124120600,3.83412060546875,-0.07652664184570312,0.011640552431344986,0.006285191513597965
1782772242134130200,3.844130126953125,-0.07652568817138672,0.0044912174344062805,0.02551991306245327
1782772242144140000,3.85414013671875,-0.06216144561767578,0.006855882704257965,0.013504191301763058
1782772242154119400,3.864119384765625,-0.06695079803466797,0.023697633296251297,-0.012799417600035667
1782772242164129000,3.87412890625,-0.0861043930053711,-0.0002700537443161011,0.01590491086244583
1782772242174139000,3.884138916015625,-0.0813140869140625,0.011667255312204361,0.008749628439545631
1782772242184118000,3.894117919921875,-0.09089183807373047,0.004571482539176941,-0.0007951799780130386
1782772242194068200,3.904068115234375,-0.07892036437988281,0.011661026626825333,0.008754059672355652
1782772242204198400,3.914198486328125,-0.06934452056884766,0.023592185229063034,-0.005630052648484707
1782772242214057200,3.92405712890625,-0.09089183807373047,-0.009866360574960709,-0.01041845791041851
1782772242224187600,3.934187744140625,-0.07652759552001953,0.009321685880422592,0.0230825487524271
1782772242234136300,3.94413623046875,-0.0813150405883789,0.006895024329423904,0.0206551905721426
1782772242244115700,3.95411572265625,-0.07892227172851562,0.004592001438140869,0.0062613170593976974
1782772242254125300,3.964125244140625,-0.0837106704711914,0.02370341494679451,0.015859924256801605
1782772242264135200,3.97413525390625,-0.0813150405883789,0.004389852285385132,0.01581520400941372
1782772242274144800,3.984144775390625,-0.07413291931152344,0.016373705118894577,0.018157683312892914
1782772242284124000,3.9941240234375,-0.06694984436035156,0.004424624145030975,0.006204402074217796
1782772242294074400,4.004074462890625,-0.09089183807373047,-0.012355731800198555,0.006230209954082966
1782772242304204500,4.01420458984375,-0.08610343933105469,-0.0003981851041316986,0.0038716825656592846
1782772242314122800,4.024122802734375,-0.0813140869140625,0.01633947342634201,0.011025209911167622
1782772242324073200,4.0340732421875,-0.0837087631225586,0.011527568101882935,0.008602911606431007
1782772242334203400,4.044203369140625,-0.0837087631225586,0.006772208958864212,0.013416621834039688
1782772242344121600,4.05412158203125,-0.08849716186523438,-0.0004315190017223358,0.011110050603747368
1782772242354131500,4.06413134765625,-0.09089088439941406,0.02121017500758171,-0.005611437372863293
1782772242364141000,4.07414111328125,-0.08610248565673828,0.016391847282648087,0.004004402086138725
1782772242374120400,4.084120361328125,-0.07652568817138672,0.023533258587121964,0.0017686993815004826
1782772242384070700,4.094070556640625,-0.07413196563720703,-0.00516834482550621,0.004143851343542337
1782772242394384000,4.1043837890625,-0.07413196563720703,0.0019909702241420746,0.001675464678555727
1782772242404119300,4.114119384765625,-0.0813140869140625,-0.0027974657714366913,-0.0006575128063559532
1782772242414129000,4.12412890625,-0.083709716796875,0.011684607714414597,0.006524849217385054
1782772242424138800,4.134138671875,-0.10046863555908203,0.01889963448047638,0.0017241430468857288
1782772242434118100,4.1441181640625,-0.07652568817138672,-0.0003140754997730255,0.004118346609175205
1782772242444127700,4.154127685546875,-0.07892131805419922,0.02125689759850502,0.006496292073279619
1782772242454137600,4.1641376953125,-0.0813140869140625,0.006805673241615295,0.011269651353359222
1782772242464116700,4.17411669921875,-0.10046768188476562,-0.0076193660497665405,0.013663852587342262
1782772242474126300,4.184126220703125,-0.06934356689453125,0.0018376074731349945,-0.000641445629298687
1782772242484136200,4.19413623046875,-0.08849716186523438,0.004291649907827377,0.008995194919407368
1782772242494115600,4.204115478515625,-0.06455516815185547,0.00667056068778038,0.02100423350930214
1782772242504125200,4.214125244140625,-0.0837087631225586,0.006655588746070862,0.01146499253809452
1782772242514135000,4.224135009765625,-0.0813140869140625,0.020996898412704468,0.004259421490132809
1782772242524145000,4.234144775390625,-0.07892036437988281,0.018568865954875946,-0.002945217303931713
1782772242534124000,4.2441240234375,-0.0813140869140625,-0.007724802941083908,0.01864297315478325
1782772242544134000,4.2541337890625,-0.07892036437988281,-0.0005667060613632202,0.01866256818175316
1782772242554143500,4.2641435546875,-0.0813140869140625,0.011388938874006271,-0.002842459362000227
1782772242564123000,4.274122802734375,-0.08370780944824219,0.016099389642477036,-0.0003429017961025238
1782772242574132700,4.2841328125,-0.07652473449707031,0.0017219409346580505,0.00694818003103137
1782772242584142300,4.294142333984375,-0.07173633575439453,0.01134074479341507,0.006933328229933977
1782772242594121500,4.30412158203125,-0.08849620819091797,-0.022117983549833298,-0.00497758574783802
1782772242604131300,4.31413134765625,-0.0789194107055664,0.011460449546575546,-0.00012978212907910347
1782772242614141200,4.32414111328125,-0.07413196563720703,0.00439794734120369,0.01668921858072281
1782772242624120600,4.33412060546875,-0.08849716186523438,0.0043979063630104065,0.019023340195417404
1782772242634130200,4.344130126953125,-0.08610248565673828,-0.0004637129604816437,0.02144353650510311
1782772242644140000,4.35414013671875,-0.09328556060791016,0.009154967963695526,0.0071024708449840546
1782772242654119400,4.364119384765625,-0.09328556060791016,0.013982944190502167,0.02376391366124153
1782772242664129000,4.37412890625,-0.07652568817138672,-0.005177929997444153,-0.002587278373539448
1782772242674139000,4.384138916015625,-0.09567928314208984,0.009247377514839172,-0.004921384155750275
1782772242684118000,4.394117919921875,-0.07413196563720703,-0.012240605428814888,0.011838026344776154
1782772242694068200,4.404068115234375,-0.0837087631225586,0.021268445998430252,0.007036271505057812
1782772242704139000,4.414138916015625,-0.0813140869140625,0.02841426059603691,0.004732143133878708
1782772242715189500,4.425189453125,-0.08849716186523438,-0.009893007576465607,-0.0048449160531163216
1782772242734077000,4.444076904296875,-0.1052560806274414,-0.0003161430358886719,0.00718003511428833
1782772242744147700,4.454147705078125,-0.08849716186523438,0.004472255706787109,0.016816433519124985
1782772242755056400,4.465056396484375,-0.09089088439941406,0.016382750123739243,0.0024512233212590218
1782772242774144800,4.484144775390625,-0.07652568817138672,-0.00044175609946250916,0.009568508714437485
1782772242784124000,4.4941240234375,-0.07413196563720703,0.006681066006422043,-0.0023424187675118446
1782772242794133800,4.5041337890625,-0.07413196563720703,-0.005289942026138306,0.023993801325559616
1782772242804084200,4.514084228515625,-0.09328556060791016,0.0018926635384559631,0.012022791430354118
1782772242814214400,4.52421435546875,-0.08849716186523438,0.011469513177871704,-0.0022223535925149918
1782772242824132600,4.534132568359375,-0.09328460693359375,0.01630498841404915,0.012248534709215164
1782772242834082800,4.544082763671875,-0.0789194107055664,0.01866450160741806,0.029023297131061554
1782772242844213200,4.554213134765625,-0.07652473449707031,-0.000577971339225769,0.005099622532725334
1782772242854131500,4.56413134765625,-0.09088993072509766,-0.007778152823448181,0.014697983860969543
1782772242864141000,4.57414111328125,-0.08370780944824219,0.01847454160451889,0.007539366837590933
1782772242874120200,4.5841201171875,-0.09807300567626953,-0.0006400272250175476,0.005111426115036011
1782772242884130000,4.594130126953125,-0.0813131332397461,0.001738816499710083,0.005145691800862551
1782772242894140000,4.604139892578125,-0.0813131332397461,-0.0030495859682559967,0.007539893500506878
1782772242904119000,4.614119140625,-0.07173633575439453,0.008903615176677704,0.021925287321209908
1782772242914129000,4.62412890625,-0.08370685577392578,-0.007983054965734482,0.0028655976057052612
1782772242924138800,4.634138671875,-0.0765237808227539,0.008762143552303314,0.029154036194086075
1782772242934118100,4.6441181640625,-0.0789175033569336,0.01831507682800293,0.009952761232852936
1782772242944127700,4.654127685546875,-0.08131217956542969,0.006373409181833267,0.03148622438311577
1782772242954137600,4.6641376953125,-0.08609962463378906,-0.003227364271879196,0.019495323300361633
1782772242964116700,4.67411669921875,-0.09328269958496094,0.023012593388557434,0.009847819805145264
1782772242974126300,4.684126220703125,-0.0789175033569336,0.027736231684684753,0.024116117507219315
1782772242984136200,4.69413623046875,-0.08370590209960938,-0.0009766481816768646,0.0001698797568678856
1782772242994115600,4.704115478515625,-0.09807109832763672,0.006284989416599274,0.002568210940808058
1782772243004125200,4.714125244140625,-0.08131122589111328,0.018149085342884064,0.007305023726075888
1782772243014135000,4.724135009765625,-0.08609962463378906,0.0038050860166549683,0.009653864428400993
1782772243024145000,4.734144775390625,-0.09328269958496094,-0.012912357226014137,0.000049552880227565765
1782772243034124000,4.7441240234375,-0.08370685577392578,-0.008063770830631256,0.00005006324499845505
1782772243044134000,4.7541337890625,-0.07891845703125,-0.0032753199338912964,0.012080974876880646
1782772243054143500,4.7641435546875,-0.08131122589111328,0.020596109330654144,0.01206393726170063
1782772243064123000,4.774122802734375,-0.09088802337646484,0.0014343298971652985,0.007320902775973082
1782772243074132700,4.7841328125,-0.0789175033569336,0.008666258305311203,0.009758589789271355
1782772243084142300,4.794142333984375,-0.08849430084228516,0.02061351388692856,0.012184688821434975
1782772243094121500,4.80412158203125,-0.07412910461425781,-0.003286309540271759,0.0027043400332331657
1782772243104072000,4.814072021484375,-0.09328269958496094,0.015723109245300293,0.007466407958418131
1782772243114558700,4.824558837890625,-0.10764694213867188,0.0012151896953582764,0.019403062760829926
1782772243124151000,4.834151123046875,-0.0789175033569336,0.010886777192354202,0.009848012588918209
1782772243134130200,4.844130126953125,-0.08370590209960938,-0.008285272866487503,0.012318928726017475
1782772243144140000,4.85414013671875,-0.08609867095947266,-0.0012349523603916168,0.002771385945379734
1782772243154059800,4.864059814453125,-0.07891654968261719,0.001089002937078476,0.01955891028046608
1782772243164190000,4.87418994140625,-0.0741281509399414,0.013102542608976364,0.005220256745815277
1782772243174138600,4.884138671875,-0.06694507598876953,-0.008451312780380249,0.005383600946515799
1782772243184118000,4.894117919921875,-0.09807014465332031,0.013096485286951065,0.003108329139649868
1782772243194127600,4.904127685546875,-0.1004638671875,0.003579653799533844,0.000834206584841013
1782772243204137500,4.914137451171875,-0.08609867095947266,0.010810025036334991,0.019968431442975998
1782772243214116900,4.924116943359375,-0.09567546844482422,0.01796276867389679,0.0008438141085207462
1782772243224067000,4.934067138671875,-0.08370494842529297,0.01308710128068924,0.0032742824405431747
1782772243234820600,4.944820556640625,-0.08130931854248047,0.008267581462860107,0.020059293136000633
1782772243254125300,4.964125244140625,-0.0741281509399414,0.01555856317281723,0.029553893953561783
1782772243264135200,4.97413525390625,-0.07173347473144531,0.008332628756761551,0.010349594056606293
1782772243274144800,4.984144775390625,-0.08609867095947266,-0.006057184189558029,0.00558574078604579
1782772243284124000,4.9941240234375,-0.07173347473144531,0.006008662283420563,-0.006352519616484642
1782772243294133800,5.0041337890625,-0.10764694213867188,0.00592876598238945,0.007990293204784393
1782772243304143600,5.0141435546875,-0.08849334716796875,0.015475258231163025,0.01998593844473362
1782772243314123000,5.024123046875,-0.0741281509399414,0.010711610317230225,0.01048944890499115
1782772243324132600,5.034132568359375,-0.09807014465332031,0.008284520357847214,0.010511443018913269
1782772243334142500,5.044142578125,-0.08849334716796875,-0.0012471266090869904,0.0009774151258170605
1782772243344121600,5.05412158203125,-0.07891654968261719,0.005911920219659805,0.022549379616975784
1782772243354131500,5.06413134765625,-0.08609867095947266,0.010678384453058243,-0.0014180727303028107
1782772243364141000,5.07414111328125,-0.07891559600830078,0.003350604325532913,0.005793747026473284
1782772243374120200,5.0841201171875,-0.0956735610961914,0.01762225851416588,0.00815591961145401
1782772243384130000,5.094130126953125,-0.08609676361083984,0.0151946060359478,0.015306580811738968
1782772243394140000,5.104139892578125,-0.0956735610961914,-0.013502484187483788,0.02728407084941864
1782772243404119000,5.114119140625,-0.09327983856201172,0.003174159675836563,0.015261558815836906
1782772243414069500,5.124069580078125,-0.0956735610961914,0.005543563514947891,0.03189301863312721
1782772243424199700,5.13419970703125,-0.08609676361083984,0.01993298903107643,0.005495619494467974
1782772243434118100,5.1441181640625,-0.08609676361083984,0.0007571689784526825,-0.001723344437777996
1782772243444127700,5.154127685546875,-0.08609580993652344,0.01742928847670555,0.0030916444957256317
1782772243454137600,5.1641376953125,-0.08130836486816406,0.015065725892782211,0.0030047986656427383
1782772243464116700,5.17411669921875,-0.095672607421875,-0.011288963258266449,0.022126931697130203
1782772243474126300,5.184126220703125,-0.08130836486816406,0.0006687864661216736,0.0029504746198654175
1782772243484136200,5.19413623046875,-0.09088516235351562,0.0006548427045345306,0.014831965789198875
1782772243494115600,5.204115478515625,-0.08130836486816406,0.0006438866257667542,0.002897381316870451
1782772243504065800,5.214065673828125,-0.08370304107666016,-0.008932869881391525,0.00044379010796546936
1782772243515021600,5.225021484375,-0.07651996612548828,0.012662217020988464,0.019626909866929054
1782772243534124000,5.2441240234375,-0.07891464233398438,0.010305166244506836,0.017289012670516968
1782772243544134000,5.2541337890625,-0.0741262435913086,-0.004013523459434509,0.017307111993432045
1782772243554143500,5.2641435546875,-0.07651996612548828,0.01750984415411949,0.01486206240952015
1782772243564123000,5.274122802734375,-0.08370304107666016,0.007967516779899597,0.007692803628742695
1782772243574132700,5.2841328125,-0.10046195983886719,0.010331466794013977,0.0196085087954998
1782772243584142300,5.294142333984375,-0.08609676361083984,-0.013686994090676308,0.01954774744808674
1782772243594121500,5.30412158203125,-0.08609676361083984,0.017353065311908722,-0.0020468677394092083
1782772243604131300,5.31413134765625,-0.07651901245117188,0.014879122376441956,0.009953230619430542
1782772243614141200,5.32414111328125,-0.08609580993652344,0.002948705106973648,0.017100749537348747
1782772243624120300,5.334120361328125,-0.07891464233398438,-0.0017370320856571198,0.009941983968019485
1782772243634130200,5.344130126953125,-0.09088516235351562,0.003095138818025589,0.005180441774427891
1782772243644140000,5.35414013671875,-0.0980682373046875,0.005467962473630905,0.014711709693074226
1782772243654119200,5.364119140625,-0.09327983856201172,0.015018600970506668,0.017059916630387306
1782772243664129000,5.37412890625,-0.07651996612548828,0.000637199729681015,0.002725429367274046
1782772243674138600,5.384138671875,-0.0956735610961914,0.019818972796201706,0.01943858526647091
1782772243684118000,5.394117919921875,-0.0956735610961914,-0.01126769557595253,0.014598998241126537
1782772243694127600,5.404127685546875,-0.08370304107666016,0.005411934107542038,0.004980249796062708
1782772243704137500,5.414137451171875,-0.07891464233398438,0.012700695544481277,-0.01418754830956459
1782772243714116600,5.42411669921875,-0.07891464233398438,0.010344717651605606,0.014578128233551979
1782772243724126500,5.43412646484375,-0.09327983856201172,0.01749677211046219,0.012213362380862236
1782772243734077000,5.444076904296875,-0.08849143981933594,0.005495809018611908,0.007394542917609215
1782772243744207000,5.45420703125,-0.10285663604736328,0.01742977648973465,0.012148584239184856
1782772243754125300,5.464125244140625,-0.08849048614501953,0.0005817152559757233,0.004877549130469561
1782772243764135200,5.47413525390625,-0.08849143981933594,0.010191306471824646,-0.002325223758816719
1782772243774144800,5.484144775390625,-0.08130741119384766,0.000594262033700943,0.004900410771369934
1782772243784124000,5.4941240234375,-0.08130741119384766,-0.004194051027297974,0.00011252611875534058
1782772243794133800,5.5041337890625,-0.08370208740234375,0.022112518548965454,0.01923947222530842
1782772243804143600,5.5141435546875,-0.07412528991699219,-0.004243392497301102,0.014543969184160233
1782772243814123000,5.524123046875,-0.08609580993652344,0.0005864426493644714,0.012238932773470879
1782772243824132600,5.534132568359375,-0.09088420867919922,0.0005132630467414856,0.009877514094114304
1782772243834142500,5.544142578125,-0.08849048614501953,0.007676128298044205,0.014687605202198029
1782772243844121600,5.55412158203125,-0.07891368865966797,0.005321197211742401,0.01464568730443716
1782772243854131500,5.56413134765625,-0.08130836486816406,0.012595746666193008,0.016989998519420624
1782772243864141000,5.57414111328125,-0.0980672836303711,0.005385059863328934,0.009698212146759033
1782772243874120400,5.584120361328125,-0.095672607421875,0.024499408900737762,0.0073192366398870945
1782772243884130000,5.594130126953125,-0.09327888488769531,0.005368303507566452,0.0072764563374221325
1782772243894140000,5.604139892578125,-0.08370304107666016,0.0077345408499240875,0.019210651516914368
1782772243904119300,5.614119384765625,-0.0980672836303711,-0.009111881256103516,0.026269610971212387
1782772243914129000,5.62412890625,-0.08370208740234375,0.022030610591173172,0.014230513945221901
1782772243924138800,5.634138671875,-0.09327888488769531,0.01007605716586113,-0.002583178225904703
1782772243934118100,5.6441181640625,-0.11003875732421875,-0.006639439612627029,0.004574397578835487
1782772243944127700,5.654127685546875,-0.08849048614501953,0.014818761497735977,0.011777414008975029
1782772243954137600,5.6641376953125,-0.09327888488769531,0.010004788637161255,-0.0024937805719673634
1782772243964116700,5.67411669921875,-0.08849048614501953,0.01237114891409874,0.0023911180905997753
1782772243974126300,5.684126220703125,-0.07651996612548828,0.007673870772123337,0.004762738011777401
1782772243984136200,5.69413623046875,-0.08849048614501953,0.005255885422229767,0.002410740125924349
1782772243994115600,5.704115478515625,-0.08370208740234375,-0.002005964517593384,0.01681303232908249
1782772244004125200,5.714125244140625,-0.07891273498535156,0.0028237998485565186,0.01684442162513733
1782772244014135000,5.724135009765625,-0.08370113372802734,0.01004643365740776,0.007301251403987408
1782772244024145000,5.734144775390625,-0.08370208740234375,0.022099677473306656,0.012111514806747437
1782772244034124000,5.7441240234375,-0.08848953247070312,0.010031450539827347,0.0026214071549475193
1782772244044134000,5.7541337890625,-0.08849048614501953,0.007663078606128693,0.009891562163829803
1782772244054143500,5.7641435546875,-0.08848953247070312,0.01480226218700409,0.021816540509462357
1782772244064063500,5.7740634765625,-0.08130645751953125,-0.0020480938255786896,0.007412545848637819
1782772244075019000,5.78501904296875,-0.08848953247070312,0.0027714595198631287,0.014553201384842396
1782772244094121500,5.80412158203125,-0.0932779312133789,0.00042726099491119385,0.01206553727388382
1782772244104131300,5.81413134765625,-0.08848953247070312,0.007642384618520737,0.007295250426977873
1782772244114141200,5.82414111328125,-0.08370304107666016,0.0028875917196273804,0.014431696385145187
1782772244124120300,5.834120361328125,-0.09327983856201172,0.0124894417822361,0.016829270869493484
1782772244134130200,5.844130126953125,-0.0932779312133789,0.014783371239900589,0.012043813243508339
1782772244144140000,5.85414013671875,-0.0741262435913086,0.0005047917366027832,0.007205373141914606
1782772244154119200,5.864119140625,-0.0956735610961914,0.0029397308826446533,-0.000004021916538476944
1782772244164129000,5.87412890625,-0.0980682373046875,-0.0018713399767875671,0.011986400932073593
1782772244174139000,5.884138916015625,-0.08609676361083984,0.005356580018997192,0.00005354313179850578
1782772244184118000,5.894117919921875,-0.07891464233398438,0.005274094641208649,0.024011412635445595
1782772244194127600,5.904127685546875,-0.08130645751953125,0.007585916668176651,0.009665313176810741
1782772244204137500,5.914137451171875,-0.08848953247070312,-0.011578012257814407,0.004904927685856819
1782772244214116600,5.92411669921875,-0.095672607421875,0.01480371505022049,0.01439199410378933
1782772244224126500,5.93412646484375,-0.10046100616455078,-0.00914619117975235,0.011969124898314476
1782772244234077000,5.944076904296875,-0.08609580993652344,0.0028174221515655518,0.007215618155896664
1782772244244207000,5.95420703125,-0.11003684997558594,0.00041627511382102966,0.007249752059578896
1782772244254065700,5.964065673828125,-0.08609580993652344,0.00046856701374053955,0.02390696480870247
1782772244264136700,5.97413671875,-0.11003875732421875,0.0029142163693904877,0.007174089550971985
1782772244275092500,5.985092529296875,-0.0956735610961914,0.0197727233171463,0.009527048096060753
1782772244294133800,6.0041337890625,-0.08609676361083984,0.0030598267912864685,-0.0070774145424366
1782772244304143600,6.0141435546875,-0.07651996612548828,0.010342627763748169,0.009718986228108406
1782772244314122800,6.024122802734375,-0.08609676361083984,0.010324951261281967,-0.002326659858226776
1782772244324132600,6.034132568359375,-0.09327983856201172,0.01747378706932068,0.0025005610659718513
1782772244334142500,6.044142578125,-0.08130836486816406,0.010207042098045349,-0.0022394107654690742
1782772244344062200,6.054062255859375,-0.08370304107666016,-0.0016442127525806427,0.004943711683154106
1782772244354529800,6.06452978515625,-0.0980682373046875,0.007908765226602554,0.016954585909843445
1782772244364202200,6.0742021484375,-0.11243343353271484,-0.008913125842809677,0.005046371836215258
1782772244374120400,6.084120361328125,-0.095672607421875,-0.006634846329689026,0.019411582499742508
1782772244384130000,6.094130126953125,-0.10285568237304688,-0.004240680485963821,0.012228718027472496
1782772244394140000,6.104139892578125,-0.06454944610595703,0.005396213382482529,-0.002076395321637392
1782772244404119300,6.114119384765625,-0.0956735610961914,-0.008909117430448532,0.012348904274404049
1782772244414129000,6.12412890625,-0.08849143981933594,0.0030619874596595764,0.01234942302107811
1782772244424138800,6.134138671875,-0.10046195983886719,0.012638930231332779,-0.00913778506219387
1782772244434118100,6.1441181640625,-0.09088516235351562,0.012638930231332779,0.005167331080883741
1782772244444127700,6.154127685546875,-0.08370304107666016,-0.0017262287437915802,0.01953279972076416
1782772244454137600,6.1641376953125,-0.10285663604736328,0.010228961706161499,0.022014155983924866
1782772244464116700,6.17411669921875,-0.10046195983886719,-0.013718312606215477,0.017196381464600563
1782772244474126300,6.184126220703125,-0.07651996612548828,0.005425684154033661,0.024389537051320076
1782772244484136200,6.19413623046875,-0.10285663604736328,0.02455327659845352,0.014814909547567368
1782772244494115600,6.204115478515625,-0.08130836486816406,-0.004194475710391998,0.022060688585042953
1782772244504125200,6.214125244140625,-0.07891464233398438,-0.0017558559775352478,0.019541483372449875
1782772244514135000,6.224135009765625,-0.0741262435913086,-0.004099264740943909,0.007457582745701075
1782772244524145000,6.234144775390625,-0.11003875732421875,-0.004104483872652054,0.009925005957484245
1782772244534124000,6.2441240234375,-0.09088516235351562,0.012699577957391739,0.026673492044210434
1782772244544134000,6.2541337890625,-0.08130836486816406,0.010285507887601852,0.014575501903891563
1782772244554143500,6.2641435546875,-0.09327983856201172,0.005478717386722565,0.00021992018446326256
1782772244564123000,6.274122802734375,-0.10525035858154297,0.0006777755916118622,0.002580347005277872
1782772244574132700,6.2841328125,-0.10764503479003906,0.005451180040836334,0.014631202444434166
1782772244584142300,6.294142333984375,-0.10764503479003906,0.015006724745035172,0.012255821377038956
1782772244594121500,6.30412158203125,-0.09327888488769531,0.0005599148571491241,0.016992788761854172
1782772244604131300,6.31413134765625,-0.10285568237304688,0.007784456014633179,-0.009371468797326088
1782772244614141200,6.32414111328125,-0.10046100616455078,0.007762487977743149,0.016927961260080338
1782772244624120600,6.33412060546875,-0.08609580993652344,0.012468528002500534,0.002534124068915844
1782772244634130200,6.344130126953125,-0.07412528991699219,0.005262851715087891,0.004960327409207821
1782772244644140000,6.35414013671875,-0.08609580993652344,0.0005941875278949738,-0.009404361248016357
1782772244654119400,6.364119384765625,-0.08130836486816406,0.005442731082439423,0.00017270585522055626
1782772244664129000,6.37412890625,-0.0980682373046875,-0.0016205720603466034,-0.00216184975579381
1782772244674139000,6.384138916015625,-0.11003875732421875,0.003228023648262024,0.005021274089813232
1782772244684118000,6.394117919921875,-0.09328079223632812,0.020047351717948914,-0.006949218921363354
1782772244694127600,6.404127685546875,-0.07652091979980469,0.012848280370235443,0.024224231019616127
1782772244704137500,6.414137451171875,-0.08370399475097656,-0.0015168823301792145,0.0004021315835416317
1782772244714116900,6.424116943359375,-0.08130836486816406,0.010434195399284363,0.014810286462306976
1782772244724126500,6.43412646484375,-0.09088611602783203,-0.0014964491128921509,0.01963098533451557
1782772244734136300,6.44413623046875,-0.10525131225585938,0.0008977986872196198,0.0005377251654863358
1782772244744115700,6.45411572265625,-0.08609771728515625,0.015382669866085052,-0.0017368132248520851
1782772244754125300,6.464125244140625,-0.08849239349365234,-0.006179753690958023,0.024633310735225677
1782772244764135200,6.47413525390625,-0.0980691909790039,0.005899626761674881,0.01270194724202156
1782772244774144800,6.484144775390625,-0.08370494842529297,0.013133402913808823,-0.004127212800085545
1782772244784124000,6.4941240234375,-0.09567546844482422,-0.0035660825669765472,-0.0040070414543151855
1782772244794133800,6.5041337890625,-0.08849334716796875,-0.0035061687231063843,0.012812282890081406
1782772244804143600,6.5141435546875,-0.07891654968261719,-0.0011118650436401367,0.0031761545687913895
1782772244814123000,6.524123046875,-0.0741281509399414,0.001282431185245514,0.015267867594957352
1782772244824132600,6.534132568359375,-0.08849334716796875,0.0012727044522762299,0.020140565931797028
1782772244834142500,6.544142578125,-0.10525226593017578,-0.01070043072104454,0.012984407134354115
1782772244844121600,6.55412158203125,-0.09328174591064453,0.013291478157043457,0.024969659745693207
1782772244854131500,6.56413134765625,-0.1004638671875,0.018117032945156097,0.015277335420250893
1782772244864141000,6.57414111328125,-0.09567642211914062,0.00379234179854393,0.0032638031989336014
1782772244874120400,6.584120361328125,-0.08370494842529297,0.006165370345115662,0.005677106324583292
1782772244884130000,6.594130126953125,-0.09328174591064453,0.0013088621199131012,0.008053421042859554
1782772244894140000,6.604139892578125,-0.1004648208618164,-0.0009650997817516327,-0.0014630388468503952
1782772244904119300,6.614119384765625,-0.11243629455566406,0.0014755241572856903,0.01526273787021637
1782772244914069500,6.624069580078125,-0.08849430084228516,0.011034060269594193,0.0033207256346940994
1782772244924199700,6.63419970703125,-0.08131122589111328,0.006285142153501511,0.012862908653914928
1782772244934058500,6.64405859375,-0.09567642211914062,-0.01041356846690178,-0.011079108342528343
1782772244944129300,6.65412939453125,-0.1004648208618164,0.015922751277685165,0.0033456459641456604
1782772244955115500,6.665115478515625,-0.09088802337646484,0.013528648763895035,0.005800871644169092
1782772244974126300,6.684126220703125,-0.09807109832763672,0.003940939903259277,0.02249561995267868
1782772244984136200,6.69413623046875,-0.1004648208618164,0.0015468299388885498,0.015253955498337746
1782772244994115600,6.704115478515625,-0.10764789581298828,0.011123638600111008,-0.0014453912153840065
1782772245004125200,6.714125244140625,-0.08609962463378906,0.010985750705003738,0.012900661677122116
1782772245014135000,6.724135009765625,-0.08849430084228516,0.010966513305902481,0.008094076998531818
1782772245024145000,6.734144775390625,-0.09807014465332031,0.006155740469694138,0.012858369387686253
1782772245034124000,6.7441240234375,-0.10525226593017578,-0.0010432414710521698,0.015287969261407852
1782772245044134000,6.7541337890625,-0.1028585433959961,-0.001057211309671402,0.010473676025867462
1782772245054143500,6.7641435546875,-0.08609867095947266,0.006107371300458908,0.015226971358060837
1782772245064123000,6.774122802734375,-0.09567546844482422,0.0060302987694740295,0.008072585798799992
1782772245074132700,6.7841328125,-0.10525226593017578,-0.003560967743396759,0.005645338911563158
1782772245084142300,6.794142333984375,-0.09328174591064453,0.010844849050045013,0.01045859046280384
1782772245094062000,6.80406201171875,-0.08849334716796875,0.010951656848192215,0.005591539200395346
1782772245104132900,6.8141328125,-0.09328174591064453,-0.005867075175046921,0.005651453044265509
1782772245114598000,6.824597900390625,-0.09088706970214844,0.013347100466489792,-0.006258786655962467
1782772245124151000,6.834151123046875,-0.09567546844482422,0.013327222317457199,0.015268726274371147
1782772245134070800,6.84407080078125,-0.07891654968261719,0.015697646886110306,0.012852040119469166
1782772245144201000,6.854200927734375,-0.09807109832763672,-0.003358013927936554,0.010490942746400833
1782772245154119200,6.864119140625,-0.09567642211914062,-0.0009637065231800079,0.003369554877281189
1782772245164069400,6.8740693359375,-0.09088706970214844,0.003751493990421295,0.012983016669750214
1782772245174199800,6.88419970703125,-0.1004648208618164,0.003793478012084961,0.01301067415624857
1782772245184118000,6.894117919921875,-0.0789175033569336,0.018194839358329773,0.010584941133856773
1782772245194127600,6.904127685546875,-0.1004648208618164,-0.0009200312197208405,0.01294516772031784
1782772245204137500,6.914137451171875,-0.07412910461425781,-0.0032050050795078278,0.01764959841966629
1782772245214116600,6.92411669921875,-0.09807109832763672,-0.005611535161733627,0.00809157732874155
1782772245224126500,6.93412646484375,-0.1028594970703125,-0.0008923821151256561,0.02001682110130787
1782772245234136300,6.94413623046875,-0.08131122589111328,0.011063087731599808,0.005727879237383604
1782772245244056000,6.95405615234375,-0.09328269958496094,0.006197638809680939,0.020102472975850105
1782772245254157600,6.964157470703125,-0.08609962463378906,-0.005725502967834473,0.010592890903353691
1782772245264196000,6.974196044921875,-0.09807109832763672,0.013468559831380844,0.012933646328747272
1782772245274144800,6.984144775390625,-0.09088802337646484,0.018225517123937607,0.024838604032993317
1782772245284124000,6.9941240234375,-0.08609867095947266,0.010949872434139252,0.010412132367491722
1782772245294133800,7.0041337890625,-0.09567546844482422,0.01809220016002655,-0.001548146829009056
1782772245304143600,7.0141435546875,-0.10525226593017578,0.008535534143447876,0.012767873704433441
1782772245314122800,7.024122802734375,-0.09567546844482422,-0.0057970620691776276,0.017566930502653122
1782772245324132600,7.034132568359375,-0.09088802337646484,0.008592627942562103,0.017621999606490135
1782772245334082800,7.044082763671875,-0.08609867095947266,0.0013198480010032654,0.017615441232919693
1782772245344153900,7.05415380859375,-0.0741281509399414,0.003745637834072113,0.01288147084414959
1782772245355305000,7.065304931640625,-0.09328174591064453,0.020524129271507263,0.003247368149459362
1782772245374060800,7.084060791015625,-0.09088611602783203,-0.001297231763601303,0.005575807299464941
1782772245384191200,7.094191162109375,-0.10285758972167969,-0.0013091601431369781,0.012845867313444614
1782772245394140000,7.104139892578125,-0.09567546844482422,-0.0012602433562278748,0.017593033611774445
1782772245404059600,7.1140595703125,-0.08609867095947266,0.017873156815767288,0.017607085406780243
1782772245414190000,7.124190185546875,-0.11004066467285156,-0.008415546268224716,0.0032035373151302338
1782772245424138800,7.134138671875,-0.07891654968261719,-0.010813668370246887,0.012747346423566341
1782772245434118100,7.1441181640625,-0.09088706970214844,0.00833253562450409,0.015165889635682106
1782772245444127700,7.154127685546875,-0.09328079223632812,-0.0013092346489429474,0.010404383763670921
1782772245454137600,7.1641376953125,-0.08609867095947266,-0.010766029357910156,0.00809380691498518
1782772245464116700,7.17411669921875,1.307326316833496,-0.0730493813753128,0.12293485552072525
1782772245474126300,7.184126220703125,-2.492251396179199,0.10352030396461487,-0.2472630888223648
1782772245484136200,7.19413623046875,-0.02133464813232422,-0.005351994186639786,0.028062928467988968
1782772245494115600,7.204115478515625,-0.1578197479248047,0.017758648842573166,0.025780029594898224
1782772245504125200,7.214125244140625,-0.23923397064208984,0.02122652158141136,0.028898287564516068
1782772245514135000,7.224135009765625,-0.10518264770507812,0.002022460103034973,0.013021618127822876
1782772245524145000,7.234144775390625,0.1389942169189453,-0.032754406332969666,0.013742399401962757
1782772245534124000,7.2441240234375,-0.03341388702392578,-0.010115090757608414,-0.00011019688099622726
