time,seconds_elapsed,z,y,x
1782771715724792000,0.2027919921875,-0.0006108652451075613,0.0006108652451075613,0
1782771715735368700,0.21336865234375,-0.0006108652451075613,0.0006108652451075613,0
1782771715745362000,0.22336181640625,-0.0006108652451075613,0.0006108652451075613,0
1782771715755388200,0.23338818359375,-0.0006108652451075613,0.0006108652451075613,0
1782771715765350700,0.2433505859375,0.0012217304902151227,0.0006108652451075613,-0.001832595793530345
1782771715775377400,0.25337744140625,0.0006108652451075613,0,0
1782771715785370400,0.263370361328125,-0.0012217304902151227,0.0006108652451075613,-0.0006108652451075613
1782771715795366400,0.273366455078125,-0.0006108652451075613,0.0006108652451075613,-0.0006108652451075613
1782771715805359400,0.283359375,-0.0006108652451075613,0.0006108652451075613,-0.0006108652451075613
1782771715815388000,0.293387939453125,0,0.0006108652451075613,-0.0006108652451075613
1782771715825347800,0.303347900390625,-0.0006108652451075613,0.0006108652451075613,0
1782771715835379500,0.31337939453125,-0.0006108652451075613,0.0012217304902151227,-0.0012217304902151227
1782771715845367300,0.3233671875,0.0006108652451075613,0.0006108652451075613,0.0006108652451075613
1782771715855368200,0.3333681640625,0,0.0012217304902151227,0
1782771715865356300,0.343356201171875,-0.0006108652451075613,-0.0006108652451075613,0.0006108652451075613
1782771715875388000,0.353387939453125,0,0.0006108652451075613,-0.0006108652451075613
1782771715885345300,0.36334521484375,0.0006108652451075613,0,0
1782771715895377200,0.373377197265625,-0.0006108652451075613,0,-0.0006108652451075613
1782771715905365000,0.383364990234375,0.0012217304902151227,0,-0.0012217304902151227
1782771715915366400,0.393366455078125,0,0.0006108652451075613,-0.0006108652451075613
1782771715925354200,0.403354248046875,0,0.0006108652451075613,0
1782771715935386000,0.41338623046875,-0.0006108652451075613,0,0
1782771715945343200,0.42334326171875,0,0,-0.0006108652451075613
1782771715955375400,0.433375244140625,-0.0006108652451075613,0,-0.0006108652451075613
1782771715965363000,0.443363037109375,0,-0.0006108652451075613,0
1782771715975364000,0.453364013671875,-0.0012217304902151227,0.0006108652451075613,0
1782771715985352000,0.46335205078125,-0.0006108652451075613,0,0
1782771715995383300,0.47338330078125,0,0.0006108652451075613,-0.0006108652451075613
1782771716005371600,0.48337158203125,0,0.0006108652451075613,-0.0006108652451075613
1782771716015372500,0.49337255859375,0,0.0006108652451075613,-0.0006108652451075613
1782771716025360400,0.5033603515625,0,0.0006108652451075613,-0.0006108652451075613
1782771716035392300,0.513392333984375,-0.0012217304902151227,0.0006108652451075613,-0.0012217304902151227
1782771716045349400,0.523349365234375,0,0,0.0006108652451075613
1782771716055380500,0.53338037109375,0.0006108652451075613,0,0
1782771716065369000,0.543369140625,0,-0.0006108652451075613,0
1782771716075370000,0.553369873046875,-0.0006108652451075613,0,-0.0006108652451075613
1782771716085358000,0.563358154296875,-0.0006108652451075613,0.0006108652451075613,0
1782771716095389700,0.5733896484375,-0.0006108652451075613,0,0
1782771716105347000,0.58334716796875,-0.0006108652451075613,0,-0.0006108652451075613
1782771716115378700,0.593378662109375,0,0,0
1782771716125366500,0.603366455078125,0,0.0006108652451075613,-0.0006108652451075613
1782771716135368000,0.613367919921875,0.0006108652451075613,0.0006108652451075613,-0.0006108652451075613
1782771716145355800,0.623355712890625,0,0,-0.0006108652451075613
1782771716155387400,0.633387451171875,0,0,-0.0006108652451075613
1782771716165344500,0.643344482421875,0.0006108652451075613,-0.0006108652451075613,-0.0006108652451075613
1782771716175376400,0.65337646484375,-0.0006108652451075613,0,0
1782771716185364200,0.6633642578125,-0.0012217304902151227,0,0
1782771716195365400,0.673365478515625,0,0,-0.0006108652451075613
1782771716205353200,0.683353271484375,-0.0006108652451075613,0.0006108652451075613,0.0006108652451075613
1782771716215384000,0.693384033203125,0.0006108652451075613,0,0
1782771716225342200,0.70334228515625,-0.0006108652451075613,0.0006108652451075613,0
1782771716235373300,0.713373291015625,0,0.0006108652451075613,-0.0006108652451075613
1782771716245361700,0.723361572265625,0,0.0012217304902151227,0
1782771716255393500,0.7333935546875,0.0006108652451075613,0.0006108652451075613,-0.0006108652451075613
1782771716265350700,0.7433505859375,-0.0006108652451075613,0,-0.0006108652451075613
1782771716275382500,0.753382568359375,-0.0006108652451075613,0,-0.0012217304902151227
1782771716285370400,0.763370361328125,-0.0006108652451075613,0.0006108652451075613,-0.0006108652451075613
1782771716295371300,0.773371337890625,-0.0012217304902151227,0.0006108652451075613,-0.0006108652451075613
1782771716305359400,0.783359375,-0.0006108652451075613,0,0
1782771716315391000,0.793390869140625,-0.0006108652451075613,0,-0.0012217304902151227
1782771716325348400,0.803348388671875,-0.0006108652451075613,0,-0.0006108652451075613
1782771716335380000,0.8133798828125,-0.0006108652451075613,0.0006108652451075613,-0.0012217304902151227
1782771716345367800,0.823367919921875,0,0.0006108652451075613,0
1782771716355369200,0.833369140625,0.0006108652451075613,0.0006108652451075613,-0.0012217304902151227
1782771716365356800,0.843356689453125,0,0,0
1782771716375388400,0.853388427734375,0,0,0.0006108652451075613
1782771716385345800,0.863345703125,-0.0006108652451075613,0.0006108652451075613,-0.0006108652451075613
1782771716395377000,0.873376953125,0,0.0006108652451075613,0.0006108652451075613
1782771716405365500,0.883365478515625,0.0006108652451075613,0.0006108652451075613,-0.0006108652451075613
1782771716415389400,0.893389404296875,0,0.0012217304902151227,-0.0012217304902151227
1782771716425354200,0.903354248046875,0,-0.0012217304902151227,-0.0006108652451075613
1782771716435386000,0.91338623046875,-0.0012217304902151227,0,0
1782771716445343200,0.92334326171875,-0.0012217304902151227,0.0006108652451075613,0.0006108652451075613
1782771716455375000,0.933375,-0.0006108652451075613,0.0006108652451075613,0
1782771716465363000,0.943363037109375,-0.0006108652451075613,0,0
1782771716475364000,0.953364013671875,-0.0006108652451075613,-0.0006108652451075613,-0.0006108652451075613
1782771716485352000,0.96335205078125,0,0.0006108652451075613,-0.0006108652451075613
1782771716495383600,0.973383544921875,0.0006108652451075613,0.0006108652451075613,0.0006108652451075613
1782771716505371600,0.98337158203125,-0.0006108652451075613,0,0.0006108652451075613
1782771716515372500,0.99337255859375,0,-0.0006108652451075613,0.0006108652451075613
1782771716525360400,1.0033603515625,-0.0006108652451075613,0,-0.0012217304902151227
1782771716535392300,1.013392333984375,0,0.0006108652451075613,0
1782771716545349400,1.023349365234375,0.0006108652451075613,0.0006108652451075613,-0.0006108652451075613
1782771716555381200,1.03338134765625,-0.0012217304902151227,0,0.0006108652451075613
1782771716565369000,1.043369140625,-0.0006108652451075613,0.0012217304902151227,-0.0006108652451075613
1782771716575369500,1.053369384765625,0,0.0006108652451075613,0
1782771716585358000,1.063358154296875,0,0.0012217304902151227,-0.0006108652451075613
1782771716595389700,1.0733896484375,-0.0006108652451075613,0.0012217304902151227,-0.0012217304902151227
1782771716605347000,1.08334716796875,-0.0006108652451075613,0.0006108652451075613,-0.0012217304902151227
1782771716615378700,1.093378662109375,0,-0.0006108652451075613,0
1782771716625366500,1.103366455078125,-0.0006108652451075613,0,0
1782771716635368000,1.113367919921875,0,0,-0.0006108652451075613
1782771716645355800,1.123355712890625,-0.0006108652451075613,0,0.0006108652451075613
1782771716655387400,1.133387451171875,0.0006108652451075613,0.0006108652451075613,0
1782771716665344500,1.143344482421875,0,0.0006108652451075613,0
1782771716675376400,1.15337646484375,-0.0012217304902151227,0.0006108652451075613,-0.0006108652451075613
1782771716685364200,1.1633642578125,0,0,-0.0006108652451075613
1782771716695365000,1.173365234375,-0.0012217304902151227,0.0012217304902151227,0
1782771716705353200,1.183353271484375,-0.0006108652451075613,0.0006108652451075613,0.0006108652451075613
1782771716715384600,1.193384521484375,-0.0006108652451075613,0,-0.0006108652451075613
1782771716725342200,1.20334228515625,0,-0.0006108652451075613,-0.0012217304902151227
1782771716735373800,1.213373779296875,0.0012217304902151227,0.0006108652451075613,0
1782771716745362000,1.22336181640625,0,0,-0.0012217304902151227
1782771716755393500,1.2333935546875,0.0006108652451075613,0,-0.0006108652451075613
1782771716765350700,1.2433505859375,-0.0012217304902151227,0,0
1782771716775382500,1.253382568359375,-0.0006108652451075613,0,0
1782771716785370400,1.263370361328125,0,0,-0.0006108652451075613
1782771716795385000,1.273385009765625,-0.0006108652451075613,0.0006108652451075613,0
1782771716805359400,1.283359375,-0.0006108652451075613,0.0006108652451075613,-0.0006108652451075613
1782771716815382800,1.2933828125,-0.0006108652451075613,-0.0006108652451075613,-0.0012217304902151227
1782771716825347600,1.30334765625,0,0,-0.0006108652451075613
1782771716835374300,1.313374267578125,0.0006108652451075613,0,0.0006108652451075613
1782771716845367300,1.3233671875,-0.0006108652451075613,0.0006108652451075613,-0.0006108652451075613
1782771716855363300,1.33336328125,-0.0012217304902151227,0.0006108652451075613,-0.0006108652451075613
1782771716865356300,1.343356201171875,-0.0006108652451075613,0,0
1782771716875382800,1.3533828125,-0.0012217304902151227,-0.0006108652451075613,-0.0006108652451075613
1782771716885345300,1.36334521484375,-0.0012217304902151227,0.0012217304902151227,-0.0006108652451075613
1782771716895377000,1.373376953125,-0.0012217304902151227,0.0006108652451075613,-0.0006108652451075613
1782771716905365000,1.383364990234375,0,0.0006108652451075613,-0.0006108652451075613
1782771716915366700,1.39336669921875,-0.0006108652451075613,0.0006108652451075613,-0.0012217304902151227
1782771716925354200,1.403354248046875,-0.0006108652451075613,0,0
1782771716935386000,1.41338623046875,-0.0006108652451075613,0.0006108652451075613,-0.0006108652451075613
1782771716945343200,1.42334326171875,-0.0006108652451075613,0,0
1782771716955375000,1.433375,-0.0006108652451075613,0.001832595793530345,-0.0006108652451075613
1782771716965363000,1.443363037109375,0,0.0012217304902151227,-0.0006108652451075613
1782771716975363800,1.45336376953125,-0.0006108652451075613,0.0006108652451075613,0.0006108652451075613
1782771716985352000,1.46335205078125,-0.0006108652451075613,0.0006108652451075613,-0.0006108652451075613
1782771716995383600,1.473383544921875,-0.0006108652451075613,0.0006108652451075613,-0.001832595793530345
1782771717005371600,1.48337158203125,0.0006108652451075613,0,-0.0006108652451075613
1782771717015372500,1.49337255859375,0.0006108652451075613,0.0012217304902151227,-0.0006108652451075613
1782771717025360400,1.5033603515625,-0.0006108652451075613,0,-0.0012217304902151227
1782771717035392300,1.513392333984375,-0.0012217304902151227,0,-0.0006108652451075613
1782771717045349400,1.523349365234375,-0.0006108652451075613,0.0006108652451075613,-0.0012217304902151227
1782771717055381200,1.53338134765625,0,0,-0.0012217304902151227
1782771717065368800,1.543368896484375,-0.0006108652451075613,0.0006108652451075613,0.0006108652451075613
1782771717075370200,1.553370361328125,-0.0006108652451075613,0,0
1782771717085358000,1.563358154296875,0,0.0006108652451075613,0
1782771717095389700,1.5733896484375,-0.0006108652451075613,0,-0.0006108652451075613
1782771717105347000,1.58334716796875,0,0.0006108652451075613,-0.0006108652451075613
1782771717115378700,1.593378662109375,0,0,0
1782771717125366500,1.603366455078125,0,0.0012217304902151227,0
1782771717135367700,1.61336767578125,0.0006108652451075613,0.0006108652451075613,-0.0006108652451075613
1782771717145355500,1.62335546875,0,0,0
1782771717155387400,1.633387451171875,0,0,0
1782771717165344800,1.6433447265625,0,0,0
1782771717175376400,1.65337646484375,0,0,0
1782771717185364200,1.6633642578125,0,0,0.0006108652451075613
1782771717195365000,1.673365234375,0,0,0
1782771717205353200,1.683353271484375,0,0,-0.0006108652451075613
1782771717215384800,1.693384765625,-0.0006108652451075613,0.0006108652451075613,-0.0006108652451075613
1782771717225342200,1.70334228515625,0,0.0012217304902151227,-0.0012217304902151227
1782771717235373800,1.713373779296875,0,0.0006108652451075613,-0.0006108652451075613
1782771717245361700,1.723361572265625,-0.0006108652451075613,0.0006108652451075613,-0.0012217304902151227
1782771717255393500,1.7333935546875,0,0,0.0006108652451075613
1782771717265350700,1.7433505859375,0,0,-0.0006108652451075613
1782771717275382500,1.753382568359375,-0.0006108652451075613,0.0006108652451075613,-0.0006108652451075613
1782771717285370400,1.763370361328125,0,0.0006108652451075613,-0.0012217304902151227
1782771717295371500,1.77337158203125,0,0.0006108652451075613,-0.0012217304902151227
1782771717305359400,1.783359375,0,0.0006108652451075613,-0.0006108652451075613
1782771717315391000,1.793390869140625,0,0.0006108652451075613,-0.0006108652451075613
1782771717325348400,1.803348388671875,0,0.0012217304902151227,0.0006108652451075613
1782771717335379700,1.813379638671875,0,0.0006108652451075613,-0.0012217304902151227
1782771717345367800,1.823367919921875,-0.0006108652451075613,0.0006108652451075613,-0.0012217304902151227
1782771717355369000,1.833368896484375,0,0,-0.0006108652451075613
1782771717365356800,1.843356689453125,-0.0006108652451075613,0.0006108652451075613,0
1782771717375388400,1.853388427734375,0,-0.0006108652451075613,-0.0006108652451075613
1782771717385346000,1.863345947265625,0,-0.0006108652451075613,-0.0006108652451075613
1782771717395377200,1.873377197265625,-0.0006108652451075613,0.0006108652451075613,0.0006108652451075613
1782771717405365500,1.883365478515625,0.0006108652451075613,0,0
1782771717415366400,1.893366455078125,0,0,0.0006108652451075613
1782771717425354200,1.903354248046875,0,-0.0006108652451075613,-0.0006108652451075613
1782771717435386000,1.91338623046875,0,0.0012217304902151227,-0.0006108652451075613
1782771717445343200,1.92334326171875,-0.0006108652451075613,0.0006108652451075613,0
1782771717455375400,1.933375244140625,0,0.0006108652451075613,-0.0012217304902151227
1782771717465363000,1.943363037109375,0.0006108652451075613,0.0006108652451075613,-0.0006108652451075613
1782771717475364400,1.9533642578125,-0.0006108652451075613,0,-0.0006108652451075613
1782771717485352000,1.96335205078125,0,0.0006108652451075613,0
1782771717495383600,1.973383544921875,-0.0006108652451075613,0.0006108652451075613,-0.0006108652451075613
1782771717505371600,1.98337158203125,-0.001832595793530345,0,-0.0012217304902151227
1782771717515372500,1.99337255859375,0,0,-0.0012217304902151227
1782771717525360400,2.0033603515625,0,0.0012217304902151227,0
1782771717535392300,2.013392333984375,-0.0012217304902151227,0.0012217304902151227,-0.001832595793530345
1782771717545349400,2.023349365234375,-0.0006108652451075613,0.0006108652451075613,0
1782771717555380700,2.033380615234375,0,0,-0.0006108652451075613
1782771717565369000,2.043369140625,0,0,-0.0006108652451075613
1782771717575370200,2.053370361328125,-0.0006108652451075613,0,-0.0006108652451075613
1782771717585358000,2.063358154296875,-0.0006108652451075613,0.0006108652451075613,0
1782771717595389700,2.0733896484375,-0.0006108652451075613,0,-0.0006108652451075613
1782771717605347000,2.08334716796875,-0.0006108652451075613,0,-0.0006108652451075613
1782771717615378700,2.093378662109375,0.0006108652451075613,0.0006108652451075613,0
1782771717625366500,2.103366455078125,-0.0006108652451075613,0,-0.001832595793530345
1782771717635368000,2.113367919921875,-0.0006108652451075613,0.0012217304902151227,-0.0006108652451075613
1782771717645355800,2.123355712890625,0,0.0006108652451075613,-0.0006108652451075613
1782771717655387600,2.1333876953125,-0.0006108652451075613,0,-0.0012217304902151227
1782771717665344500,2.143344482421875,0,0.0012217304902151227,-0.0012217304902151227
1782771717675376000,2.153376220703125,-0.0006108652451075613,0.0006108652451075613,0
1782771717685364200,2.1633642578125,0,0,-0.0006108652451075613
1782771717695365000,2.173365234375,0,-0.0006108652451075613,0.0006108652451075613
1782771717705353200,2.183353271484375,0,0.0006108652451075613,-0.0006108652451075613
1782771717715384800,2.193384765625,-0.0006108652451075613,0,-0.0006108652451075613
1782771717725342200,2.20334228515625,-0.0006108652451075613,-0.0006108652451075613,-0.0006108652451075613
1782771717735373800,2.213373779296875,0.0006108652451075613,0,0
1782771717745362000,2.22336181640625,0.0012217304902151227,0.0006108652451075613,0
1782771717755393500,2.2333935546875,0,0.0012217304902151227,0
1782771717765351000,2.243350830078125,-0.0006108652451075613,0.0006108652451075613,-0.0006108652451075613
1782771717775382500,2.253382568359375,0,0.0006108652451075613,-0.0006108652451075613
1782771717785370400,2.263370361328125,0,0.0012217304902151227,-0.0012217304902151227
1782771717795371300,2.273371337890625,0,0.0006108652451075613,-0.0012217304902151227
1782771717805359400,2.283359375,-0.0006108652451075613,0,0
1782771717815388000,2.293387939453125,0,0,-0.0006108652451075613
1782771717825347800,2.303347900390625,0,0.0006108652451075613,-0.0006108652451075613
1782771717835379500,2.31337939453125,0,0,-0.0006108652451075613
1782771717845367300,2.3233671875,-0.0006108652451075613,0,-0.0006108652451075613
1782771717855368400,2.333368408203125,-0.0006108652451075613,0,-0.0006108652451075613
1782771717865356300,2.343356201171875,0,0.0006108652451075613,0
1782771717875401200,2.353401123046875,0,0.0006108652451075613,-0.0006108652451075613
1782771717885345500,2.363345458984375,-0.0006108652451075613,0,-0.0012217304902151227
1782771717895371800,2.373371826171875,0,0,0
1782771717905365000,2.383364990234375,0,0.0006108652451075613,0
1782771717915361500,2.393361572265625,-0.0006108652451075613,0.0012217304902151227,0.0006108652451075613
1782771717925354500,2.4033544921875,-0.0006108652451075613,0.0006108652451075613,-0.0006108652451075613
1782771717935380700,2.413380615234375,-0.0006108652451075613,0.0006108652451075613,-0.0006108652451075613
1782771717945343200,2.42334326171875,0.0006108652451075613,0.0006108652451075613,0
1782771717955369700,2.43336962890625,-0.0006108652451075613,0.0006108652451075613,-0.0006108652451075613
1782771717965363000,2.443363037109375,0,0.0006108652451075613,0
1782771717975363800,2.45336376953125,-0.0006108652451075613,0,-0.0006108652451075613
1782771717985352000,2.46335205078125,-0.0006108652451075613,0.0006108652451075613,-0.0006108652451075613
1782771717995383600,2.473383544921875,-0.0006108652451075613,0,-0.0012217304902151227
1782771718005371600,2.48337158203125,-0.0006108652451075613,0,0.0006108652451075613
1782771718015372500,2.49337255859375,0.0006108652451075613,0.0006108652451075613,0.0006108652451075613
1782771718025360400,2.5033603515625,0,0.0006108652451075613,-0.0006108652451075613
1782771718035392300,2.513392333984375,-0.0006108652451075613,0.0006108652451075613,0
1782771718045349400,2.523349365234375,0,0.0006108652451075613,-0.0012217304902151227
1782771718055381200,2.53338134765625,0,0.0006108652451075613,-0.0006108652451075613
1782771718065369000,2.543369140625,-0.0006108652451075613,0.0006108652451075613,0
1782771718075370200,2.553370361328125,-0.0006108652451075613,0.0006108652451075613,-0.0006108652451075613
1782771718085358000,2.563358154296875,-0.0006108652451075613,0,-0.0006108652451075613
1782771718095389700,2.5733896484375,-0.0006108652451075613,0,-0.0006108652451075613
1782771718105347300,2.583347412109375,0,-0.0006108652451075613,-0.0006108652451075613
1782771718115378700,2.593378662109375,-0.001832595793530345,0.0006108652451075613,-0.0006108652451075613
1782771718125366500,2.603366455078125,-0.0006108652451075613,-0.0006108652451075613,0.0006108652451075613
1782771718135367700,2.61336767578125,0,0.0012217304902151227,-0.0006108652451075613
1782771718145355500,2.62335546875,-0.0006108652451075613,0.0006108652451075613,0
1782771718155387400,2.633387451171875,-0.0006108652451075613,0.0006108652451075613,0.0006108652451075613
1782771718165344500,2.643344482421875,0.0012217304902151227,0.0006108652451075613,-0.0006108652451075613
1782771718175376400,2.65337646484375,0.0006108652451075613,0,0
1782771718185364200,2.6633642578125,0,0.0006108652451075613,0
1782771718195365400,2.673365478515625,0,0,-0.0006108652451075613
1782771718205313000,2.68331298828125,0,0,-0.0006108652451075613
1782771718215445800,2.69344580078125,-0.0012217304902151227,0,0
1782771718225342200,2.70334228515625,-0.0012217304902151227,0.0006108652451075613,0
1782771718235373800,2.713373779296875,-0.0006108652451075613,0.0006108652451075613,-0.0006108652451075613
1782771718245321700,2.72332177734375,-0.0012217304902151227,0.0006108652451075613,0
1782771718255454500,2.733454345703125,0,0.0006108652451075613,-0.001832595793530345
1782771718265350700,2.7433505859375,0.0006108652451075613,0,0
1782771718275382500,2.753382568359375,0,0,-0.0006108652451075613
1782771718285370400,2.763370361328125,0,0.0006108652451075613,-0.0012217304902151227
1782771718295370800,2.773370849609375,-0.0006108652451075613,-0.0012217304902151227,0
1782771718305359400,2.783359375,0,0.0012217304902151227,-0.0006108652451075613
1782771718315390700,2.793390625,-0.0006108652451075613,0.0006108652451075613,0
1782771718325348400,2.803348388671875,-0.0006108652451075613,-0.0006108652451075613,0
1782771718335380000,2.8133798828125,-0.0006108652451075613,0,-0.0006108652451075613
1782771718345367800,2.823367919921875,-0.0012217304902151227,0.0006108652451075613,-0.0006108652451075613
1782771718355369000,2.833368896484375,0,0.0006108652451075613,0
1782771718365356800,2.843356689453125,-0.0006108652451075613,-0.0006108652451075613,-0.0006108652451075613
1782771718375384800,2.853384765625,-0.0006108652451075613,0,0
1782771718385345800,2.863345703125,-0.0012217304902151227,0.0006108652451075613,0
1782771718395377400,2.87337744140625,0,0,0
1782771718405325300,2.8833251953125,-0.0006108652451075613,0,-0.0012217304902151227
1782771718415426600,2.893426513671875,-0.0012217304902151227,0,-0.0006108652451075613
1782771718425415700,2.903415771484375,-0.001832595793530345,0.0006108652451075613,-0.0012217304902151227
1782771718435386000,2.91338623046875,0,0.0006108652451075613,0
1782771718445303300,2.92330322265625,0,0,0
1782771718455436300,2.933436279296875,-0.0006108652451075613,0,0
1782771718465363000,2.943363037109375,-0.0006108652451075613,0.0006108652451075613,0
1782771718475363800,2.95336376953125,-0.0006108652451075613,0.0006108652451075613,-0.0006108652451075613
1782771718485352000,2.96335205078125,0,-0.0006108652451075613,0.0006108652451075613
1782771718495383600,2.973383544921875,0,0.0006108652451075613,0
1782771718505371400,2.983371337890625,-0.0006108652451075613,0.0006108652451075613,0
1782771718515372500,2.99337255859375,-0.0006108652451075613,0.0012217304902151227,-0.0006108652451075613
1782771718525360400,3.0033603515625,0,0.0006108652451075613,0
1782771718535391500,3.0133916015625,0,0,-0.0006108652451075613
1782771718545349400,3.023349365234375,0,-0.0006108652451075613,0
1782771718555381200,3.03338134765625,0.0006108652451075613,-0.0012217304902151227,-0.0006108652451075613
1782771718565369000,3.043369140625,0,0.0006108652451075613,0
1782771718575370000,3.053369873046875,-0.0006108652451075613,0.0006108652451075613,0
1782771718585358000,3.063358154296875,0,-0.0006108652451075613,-0.0012217304902151227
1782771718595389700,3.0733896484375,0,0.0006108652451075613,0
1782771718605347300,3.083347412109375,-0.0012217304902151227,0.0006108652451075613,0
1782771718615378700,3.093378662109375,0,0,-0.0012217304902151227
1782771718625366500,3.103366455078125,0,0,-0.0006108652451075613
1782771718635368000,3.113367919921875,-0.0006108652451075613,0.0006108652451075613,0
1782771718645355800,3.123355712890625,0,0.0006108652451075613,-0.0012217304902151227
1782771718655387600,3.1333876953125,-0.0006108652451075613,0.0006108652451075613,0
1782771718665344800,3.1433447265625,0,0.0012217304902151227,0
1782771718675376400,3.15337646484375,-0.0006108652451075613,0.0006108652451075613,-0.0006108652451075613
1782771718685364200,3.1633642578125,0.0006108652451075613,0,0
1782771718695365400,3.173365478515625,-0.0006108652451075613,0,0.0006108652451075613
1782771718705313000,3.18331298828125,-0.0012217304902151227,0.0006108652451075613,-0.0012217304902151227
1782771718716558300,3.194558349609375,0,0.0006108652451075613,0
1782771718735373800,3.213373779296875,0,-0.0012217304902151227,0
1782771718745361700,3.223361572265625,-0.0006108652451075613,-0.0006108652451075613,0
1782771718755393500,3.2333935546875,-0.0006108652451075613,0.0006108652451075613,0
1782771718765350700,3.2433505859375,0,0.0006108652451075613,-0.0006108652451075613
1782771718775382500,3.253382568359375,-0.0006108652451075613,0,-0.0006108652451075613
1782771718785370400,3.263370361328125,-0.0006108652451075613,0,0.0006108652451075613
1782771718795371000,3.27337109375,0,0.0012217304902151227,-0.0006108652451075613
1782771718805359400,3.283359375,0,0.0006108652451075613,0
1782771718815388000,3.293387939453125,-0.0012217304902151227,0,0.0006108652451075613
1782771718825347600,3.30334765625,-0.0006108652451075613,-0.0006108652451075613,-0.0006108652451075613
1782771718835379500,3.31337939453125,-0.0012217304902151227,0.0006108652451075613,-0.0006108652451075613
1782771718845367300,3.3233671875,-0.0006108652451075613,0.0006108652451075613,0
1782771718855368000,3.333367919921875,0,-0.0006108652451075613,-0.0006108652451075613
1782771718865356300,3.343356201171875,-0.0006108652451075613,0,0.0006108652451075613
1782771718875387400,3.353387451171875,-0.0006108652451075613,0,0
1782771718885345300,3.36334521484375,-0.0012217304902151227,0.0012217304902151227,0.0006108652451075613
1782771718895376100,3.373376220703125,-0.0012217304902151227,0,-0.0012217304902151227
1782771718905365000,3.383364990234375,-0.0006108652451075613,0.0006108652451075613,-0.0006108652451075613
1782771718915366700,3.39336669921875,-0.0006108652451075613,0.0006108652451075613,0
1782771718925354200,3.403354248046875,-0.0006108652451075613,0,0
1782771718935385600,3.413385498046875,-0.0012217304902151227,0,0
1782771718945343200,3.42334326171875,-0.0006108652451075613,-0.0006108652451075613,-0.0006108652451075613
1782771718955389000,3.433388916015625,0,0.0006108652451075613,0.0006108652451075613
1782771718965363000,3.443363037109375,0,0,0
1782771718975359000,3.45335888671875,-0.0006108652451075613,0.0006108652451075613,-0.0006108652451075613
1782771718985352000,3.46335205078125,0.0006108652451075613,-0.0006108652451075613,0
1782771718995378700,3.473378662109375,-0.0006108652451075613,0.0006108652451075613,0.0006108652451075613
1782771719005371600,3.48337158203125,0,0,-0.0006108652451075613
1782771719015367400,3.493367431640625,-0.0006108652451075613,0.0006108652451075613,-0.0006108652451075613
1782771719025360400,3.5033603515625,-0.0006108652451075613,0,-0.0006108652451075613
1782771719035386400,3.513386474609375,-0.0006108652451075613,0.0006108652451075613,-0.0012217304902151227
1782771719045349400,3.523349365234375,0.0006108652451075613,0.0012217304902151227,0.0006108652451075613
1782771719055381000,3.533381103515625,-0.0006108652451075613,0.0006108652451075613,-0.0012217304902151227
1782771719065368800,3.543368896484375,-0.0012217304902151227,0,0
1782771719075370200,3.553370361328125,-0.0006108652451075613,0.0006108652451075613,0
1782771719085358000,3.563358154296875,0,0,-0.0006108652451075613
1782771719095389700,3.5733896484375,-0.0006108652451075613,-0.0006108652451075613,-0.0006108652451075613
1782771719105347000,3.58334716796875,0.0006108652451075613,0,-0.0006108652451075613
1782771719115378700,3.593378662109375,-0.0006108652451075613,0.0006108652451075613,-0.0006108652451075613
1782771719125366800,3.60336669921875,-0.0006108652451075613,0.0006108652451075613,0.0006108652451075613
1782771719135367700,3.61336767578125,0,0.0006108652451075613,0.0006108652451075613
1782771719145355800,3.623355712890625,0,0.0006108652451075613,-0.0006108652451075613
1782771719155387400,3.633387451171875,0,0.0006108652451075613,-0.0006108652451075613
1782771719165344500,3.643344482421875,-0.0012217304902151227,0.0006108652451075613,-0.0006108652451075613
1782771719175376400,3.65337646484375,0,0,-0.0012217304902151227
1782771719185364200,3.6633642578125,0,0.0006108652451075613,-0.0012217304902151227
1782771719195365400,3.673365478515625,0,-0.0006108652451075613,0
1782771719205353200,3.683353271484375,-0.0006108652451075613,0,-0.0006108652451075613
1782771719215384800,3.693384765625,-0.0012217304902151227,0.0006108652451075613,0
1782771719225342200,3.70334228515625,-0.0012217304902151227,0.0006108652451075613,-0.0006108652451075613
1782771719235374000,3.7133740234375,0,0.0006108652451075613,0
1782771719245361700,3.723361572265625,-0.0006108652451075613,0,-0.0006108652451075613
1782771719255393500,3.7333935546875,0,0.0006108652451075613,-0.0006108652451075613
1782771719265310700,3.743310791015625,-0.0006108652451075613,0.0006108652451075613,0
1782771719276215800,3.7542158203125,0.0006108652451075613,0.0006108652451075613,-0.0006108652451075613
1782771719295371300,3.773371337890625,0,0,0
1782771719305359400,3.783359375,-0.0006108652451075613,0.0012217304902151227,-0.0006108652451075613
1782771719315391000,3.793390869140625,-0.0012217304902151227,0,-0.0006108652451075613
1782771719325348400,3.803348388671875,0,0.0006108652451075613,-0.0006108652451075613
1782771719335380000,3.8133798828125,-0.0006108652451075613,0,0
1782771719345367600,3.823367431640625,-0.0006108652451075613,-0.0006108652451075613,-0.0012217304902151227
1782771719355369200,3.833369140625,-0.0006108652451075613,0.0006108652451075613,0
1782771719365356800,3.843356689453125,0,0,-0.0006108652451075613
1782771719375388000,3.853387939453125,-0.0012217304902151227,0,0
1782771719385345800,3.863345703125,0,0,-0.0012217304902151227
1782771719395377400,3.87337744140625,-0.0006108652451075613,0.0006108652451075613,0
1782771719405365500,3.883365478515625,0,0,-0.0006108652451075613
1782771719415366700,3.89336669921875,0,0,-0.0006108652451075613
1782771719425354200,3.903354248046875,0.0006108652451075613,0,-0.0012217304902151227
1782771719435386000,3.91338623046875,-0.0012217304902151227,0,0
1782771719445343200,3.92334326171875,0,0.0012217304902151227,-0.0006108652451075613
1782771719455375000,3.933375,-0.0006108652451075613,0,-0.0012217304902151227
1782771719465363000,3.943363037109375,-0.0012217304902151227,0.0006108652451075613,-0.0012217304902151227
1782771719475364000,3.953364013671875,-0.0012217304902151227,0,-0.0012217304902151227
1782771719485352000,3.96335205078125,-0.0006108652451075613,0.0006108652451075613,-0.0006108652451075613
1782771719495383600,3.973383544921875,-0.0006108652451075613,0,0
1782771719505371600,3.98337158203125,-0.0006108652451075613,0.0012217304902151227,-0.0006108652451075613
1782771719515372500,3.99337255859375,-0.0006108652451075613,-0.0006108652451075613,0
1782771719525360400,4.0033603515625,0,0,-0.0006108652451075613
1782771719535392300,4.013392333984375,-0.0012217304902151227,0.0012217304902151227,0.0006108652451075613
1782771719545349600,4.023349609375,-0.0006108652451075613,0.0006108652451075613,0.0006108652451075613
1782771719555381200,4.03338134765625,-0.0006108652451075613,-0.0006108652451075613,-0.0006108652451075613
1782771719565369000,4.043369140625,0,0,0
1782771719575370200,4.053370361328125,0.0006108652451075613,0.0006108652451075613,-0.0006108652451075613
1782771719585358000,4.063358154296875,0,0.0006108652451075613,0
1782771719595389700,4.0733896484375,-0.0006108652451075613,0,0
1782771719605307100,4.08330712890625,-0.0006108652451075613,0.0006108652451075613,0
1782771719615439600,4.093439697265625,-0.0006108652451075613,0.0006108652451075613,-0.0006108652451075613
1782771719625326600,4.10332666015625,0.0006108652451075613,0.0006108652451075613,-0.0012217304902151227
1782771719635828700,4.113828857421875,0.0006108652451075613,0,-0.0006108652451075613
1782771719645355500,4.12335546875,-0.0012217304902151227,0.0006108652451075613,0
1782771719655387400,4.133387451171875,0,0.0006108652451075613,0
1782771719665344500,4.143344482421875,0,0,-0.0006108652451075613
1782771719675376400,4.15337646484375,0,0,-0.0006108652451075613
1782771719685364200,4.1633642578125,0,0,-0.0006108652451075613
1782771719695365000,4.173365234375,-0.0006108652451075613,0,0
1782771719705353200,4.183353271484375,0,0,-0.0006108652451075613
1782771719715384800,4.193384765625,-0.0006108652451075613,0,-0.0006108652451075613
1782771719725302000,4.203302001953125,0,0,-0.0012217304902151227
1782771719735434000,4.21343408203125,0,0,-0.0006108652451075613
1782771719745422800,4.2234228515625,0,0.0006108652451075613,-0.0006108652451075613
1782771719755393500,4.2333935546875,-0.0006108652451075613,0.0006108652451075613,-0.0006108652451075613
1782771719765350700,4.2433505859375,0,0.0006108652451075613,-0.0006108652451075613
1782771719775382300,4.25338232421875,-0.0006108652451075613,0.0006108652451075613,-0.0006108652451075613
1782771719785370400,4.263370361328125,-0.0006108652451075613,0,-0.0006108652451075613
1782771719795371500,4.27337158203125,-0.0006108652451075613,0.0006108652451075613,-0.0006108652451075613
1782771719805359400,4.283359375,0,0,-0.0006108652451075613
1782771719815388000,4.293387939453125,-0.0006108652451075613,0.0006108652451075613,-0.0012217304902151227
1782771719825347600,4.30334765625,0,0.0006108652451075613,0
1782771719835379500,4.31337939453125,0,-0.0006108652451075613,-0.0006108652451075613
1782771719845367300,4.3233671875,-0.0012217304902151227,-0.0006108652451075613,0
1782771719855368700,4.33336865234375,-0.0006108652451075613,0,0
1782771719865356500,4.3433564453125,0,0.0006108652451075613,0.0006108652451075613
1782771719875388000,4.353387939453125,0,0.0012217304902151227,-0.0006108652451075613
1782771719885345500,4.363345458984375,0,-0.0006108652451075613,0.0006108652451075613
1782771719895376400,4.37337646484375,0,0,0
1782771719905364700,4.38336474609375,0,0,0
1782771719915366400,4.393366455078125,-0.0006108652451075613,-0.0006108652451075613,0
1782771719925314300,4.403314208984375,0,0,0
1782771719935415600,4.41341552734375,-0.0006108652451075613,0,-0.0006108652451075613
1782771719945435000,4.423434814453125,0,0.0006108652451075613,-0.0006108652451075613
1782771719955375000,4.433375,0.0006108652451075613,0,0.0006108652451075613
1782771719965362700,4.44336279296875,-0.0006108652451075613,-0.0006108652451075613,0
1782771719975364000,4.453364013671875,0.0006108652451075613,0,0
1782771719985352000,4.46335205078125,0,0.0006108652451075613,-0.0006108652451075613
1782771719995383600,4.473383544921875,0,0,0
1782771720005371600,4.48337158203125,0.0006108652451075613,0.0006108652451075613,-0.0006108652451075613
1782771720015372000,4.4933720703125,-0.0012217304902151227,0.0006108652451075613,0.0006108652451075613
1782771720025360400,4.5033603515625,-0.0006108652451075613,0,0
1782771720035406000,4.513406005859375,0,0,-0.0006108652451075613
1782771720045349600,4.523349609375,-0.0006108652451075613,0.0006108652451075613,0.0006108652451075613
1782771720055376000,4.5333759765625,-0.001832595793530345,0,0
1782771720065369000,4.543369140625,0,0,-0.0012217304902151227
1782771720075364900,4.55336474609375,-0.0006108652451075613,0,-0.0006108652451075613
1782771720085358000,4.563358154296875,-0.0006108652451075613,0,-0.0006108652451075613
1782771720095384600,4.573384521484375,0,0.0006108652451075613,0
1782771720105347300,4.583347412109375,0,0,-0.0006108652451075613
1782771720115373000,4.593373046875,-0.0012217304902151227,0.0006108652451075613,-0.0006108652451075613
1782771720125366800,4.60336669921875,-0.0006108652451075613,0.0006108652451075613,-0.0006108652451075613
1782771720135367700,4.61336767578125,-0.0006108652451075613,0,-0.0006108652451075613
1782771720145355500,4.62335546875,-0.0006108652451075613,0,-0.0012217304902151227
1782771720155386600,4.63338671875,0.0006108652451075613,0,-0.0006108652451075613
1782771720165344800,4.6433447265625,0,0,0.0006108652451075613
1782771720175376100,4.653376220703125,-0.0012217304902151227,0,-0.0012217304902151227
1782771720185364200,4.6633642578125,0,0.0006108652451075613,0.0006108652451075613
1782771720195365000,4.673365234375,-0.0006108652451075613,-0.0006108652451075613,-0.0006108652451075613
1782771720205353200,4.683353271484375,0,0,0.0006108652451075613
1782771720215384800,4.693384765625,0,0,0
1782771720225302000,4.703302001953125,0,-0.0006108652451075613,0
1782771720235740000,4.713739990234375,-0.0006108652451075613,0.0012217304902151227,0
1782771720245361700,4.723361572265625,-0.0012217304902151227,0.0006108652451075613,0
1782771720255393500,4.7333935546875,-0.0006108652451075613,0.0012217304902151227,0
1782771720265310700,4.743310791015625,0.0006108652451075613,0.0006108652451075613,0.0006108652451075613
1782771720275722800,4.75372265625,-0.0012217304902151227,0.0006108652451075613,0
1782771720285370400,4.763370361328125,-0.0012217304902151227,0,-0.0006108652451075613
1782771720295371500,4.77337158203125,-0.0012217304902151227,0,-0.0012217304902151227
1782771720305359400,4.783359375,0,-0.0012217304902151227,0
1782771720315391000,4.793390869140625,-0.0006108652451075613,0,0
1782771720325308200,4.80330810546875,0,0.0012217304902151227,-0.0012217304902151227
1782771720335441000,4.81344091796875,-0.0012217304902151227,0.0012217304902151227,-0.0006108652451075613
1782771720345327900,4.823327880859375,0,0,-0.0006108652451075613
1782771720356001500,4.83400146484375,0.0006108652451075613,-0.0006108652451075613,-0.0012217304902151227
1782771720375357200,4.853357177734375,0.0006108652451075613,0,-0.0006108652451075613
1782771720385437400,4.8634375,-0.0006108652451075613,0.0012217304902151227,-0.0006108652451075613
1782771720395377000,4.873376953125,-0.0006108652451075613,0,-0.0012217304902151227
1782771720405365500,4.883365478515625,-0.0012217304902151227,0.0012217304902151227,0.0006108652451075613
1782771720415389200,4.89338916015625,-0.0012217304902151227,0.0006108652451075613,0
1782771720425354200,4.903354248046875,0,0.0006108652451075613,0
1782771720435386400,4.913386474609375,-0.0006108652451075613,0,-0.0012217304902151227
1782771720445303300,4.92330322265625,-0.0006108652451075613,0,-0.0012217304902151227
1782771720455435500,4.933435546875,0,-0.0006108652451075613,-0.0006108652451075613
1782771720465323000,4.943322998046875,-0.0012217304902151227,0.0006108652451075613,-0.0006108652451075613
1782771720475967000,4.953967041015625,0,0.0006108652451075613,-0.0006108652451075613
1782771720495383600,4.973383544921875,0,0.0006108652451075613,-0.0006108652451075613
1782771720505371600,4.98337158203125,-0.0006108652451075613,0.0012217304902151227,-0.0006108652451075613
1782771720515372500,4.99337255859375,0,0.0012217304902151227,-0.0006108652451075613
1782771720525360600,5.003360595703125,-0.0006108652451075613,0.0006108652451075613,-0.0012217304902151227
1782771720535392300,5.013392333984375,0,0.0006108652451075613,-0.0006108652451075613
1782771720545349400,5.023349365234375,0,0,0
1782771720555381200,5.03338134765625,-0.0006108652451075613,0.0006108652451075613,-0.0006108652451075613
1782771720565369000,5.043369140625,0.0006108652451075613,0,-0.0012217304902151227
1782771720575370200,5.053370361328125,-0.0006108652451075613,0,-0.001832595793530345
1782771720585358000,5.063358154296875,0,0,0.0006108652451075613
1782771720595389400,5.073389404296875,-0.0006108652451075613,0.0006108652451075613,-0.0012217304902151227
1782771720605347000,5.08334716796875,-0.0012217304902151227,0,0
1782771720615378700,5.093378662109375,-0.0006108652451075613,0,-0.0006108652451075613
1782771720625366800,5.10336669921875,-0.0012217304902151227,0,0
1782771720635368000,5.113367919921875,-0.0006108652451075613,0.0006108652451075613,-0.0012217304902151227
1782771720645355800,5.123355712890625,-0.0012217304902151227,-0.0006108652451075613,-0.0006108652451075613
1782771720655387400,5.133387451171875,-0.0006108652451075613,0.0006108652451075613,-0.0006108652451075613
1782771720665344500,5.143344482421875,-0.0012217304902151227,0,-0.0006108652451075613
1782771720675376400,5.15337646484375,-0.0006108652451075613,0.0006108652451075613,0
1782771720685364200,5.1633642578125,-0.0006108652451075613,-0.0006108652451075613,0
1782771720695365000,5.173365234375,0,0.0006108652451075613,-0.0006108652451075613
1782771720705353200,5.183353271484375,-0.0006108652451075613,0,0
1782771720715384800,5.193384765625,0,0,0
1782771720725342200,5.20334228515625,0,0.0006108652451075613,-0.0006108652451075613
1782771720735373800,5.213373779296875,-0.0012217304902151227,0,-0.0006108652451075613
1782771720745361700,5.223361572265625,-0.0006108652451075613,-0.0006108652451075613,0
1782771720755393500,5.2333935546875,0.0006108652451075613,0.0006108652451075613,-0.0006108652451075613
1782771720765350700,5.2433505859375,-0.0012217304902151227,0.0006108652451075613,0.0006108652451075613
1782771720775382300,5.25338232421875,-0.0006108652451075613,0.0012217304902151227,-0.0006108652451075613
1782771720785370400,5.263370361328125,0,-0.0006108652451075613,0
1782771720795371300,5.273371337890625,0,0,0
1782771720805359400,5.283359375,0,0,-0.0006108652451075613
1782771720815388200,5.29338818359375,-0.0006108652451075613,0.0006108652451075613,0.0006108652451075613
1782771720825347600,5.30334765625,-0.0006108652451075613,0,0
1782771720835379700,5.313379638671875,0,0,-0.0006108652451075613
1782771720845367300,5.3233671875,0.0006108652451075613,0.0012217304902151227,-0.0012217304902151227
1782771720855368400,5.333368408203125,0.0006108652451075613,0.0006108652451075613,0
1782771720865356300,5.343356201171875,-0.0006108652451075613,0,-0.0006108652451075613
1782771720875388000,5.353387939453125,0.0006108652451075613,0,0
1782771720885345500,5.363345458984375,0,0.0006108652451075613,-0.0006108652451075613
1782771720895377000,5.373376953125,0,0.0006108652451075613,-0.0006108652451075613
1782771720905364700,5.38336474609375,0,0,-0.0006108652451075613
1782771720915366400,5.393366455078125,0,0,-0.0012217304902151227
1782771720925354200,5.403354248046875,0,0,-0.0006108652451075613
1782771720935386000,5.41338623046875,0.0012217304902151227,0.0006108652451075613,-0.0006108652451075613
1782771720945343200,5.42334326171875,-0.0006108652451075613,0,0
1782771720955375000,5.433375,-0.0006108652451075613,-0.0006108652451075613,0
1782771720965363000,5.443363037109375,-0.001832595793530345,0,-0.0012217304902151227
1782771720975363800,5.45336376953125,-0.0006108652451075613,-0.0006108652451075613,0
1782771720985352000,5.46335205078125,0,0,0
1782771720995383600,5.473383544921875,-0.0006108652451075613,0.0006108652451075613,0.0006108652451075613
1782771721005371600,5.48337158203125,-0.0006108652451075613,0.0006108652451075613,-0.0012217304902151227
1782771721015372500,5.49337255859375,0,0.0006108652451075613,0.0012217304902151227
1782771721025360400,5.5033603515625,-0.0006108652451075613,0,0
1782771721035392300,5.513392333984375,-0.0006108652451075613,0.0006108652451075613,0
1782771721045349600,5.523349609375,0.0006108652451075613,0.0012217304902151227,0
1782771721055381200,5.53338134765625,-0.001832595793530345,0.0006108652451075613,-0.0006108652451075613
1782771721065369000,5.543369140625,-0.0006108652451075613,0.0012217304902151227,-0.0012217304902151227
1782771721075370200,5.553370361328125,-0.0006108652451075613,0,0.0006108652451075613
1782771721085358000,5.563358154296875,-0.0006108652451075613,0.0006108652451075613,0
1782771721095389200,5.57338916015625,-0.0006108652451075613,0,-0.0006108652451075613
1782771721105347000,5.58334716796875,-0.0006108652451075613,0,0
1782771721115392500,5.593392578125,0,0,-0.0006108652451075613
1782771721125366800,5.60336669921875,0,0.0006108652451075613,-0.0006108652451075613
1782771721135362000,5.613362060546875,-0.0006108652451075613,0,0.0012217304902151227
1782771721145315600,5.623315673828125,-0.0006108652451075613,0,-0.0012217304902151227
1782771721155905300,5.6339052734375,-0.0012217304902151227,0,-0.0006108652451075613
1782771721165436200,5.643436279296875,-0.0006108652451075613,0.0006108652451075613,-0.0006108652451075613
1782771721175371000,5.65337109375,0,0.0012217304902151227,0.0006108652451075613
1782771721185364200,5.6633642578125,0,0,-0.0012217304902151227
1782771721195360300,5.6733603515625,-0.0006108652451075613,0,0
1782771721205353200,5.683353271484375,-0.0006108652451075613,-0.0006108652451075613,0
1782771721215384800,5.693384765625,0,0,0
1782771721225342200,5.70334228515625,0,0.0006108652451075613,-0.0006108652451075613
1782771721235374000,5.7133740234375,-0.0012217304902151227,0.0006108652451075613,0
1782771721245362000,5.72336181640625,-0.0006108652451075613,0,-0.0012217304902151227
1782771721255393500,5.7333935546875,-0.0006108652451075613,0,-0.0012217304902151227
1782771721265350700,5.7433505859375,0.0006108652451075613,0.0006108652451075613,0
1782771721275381800,5.7533818359375,0,0,-0.0006108652451075613
1782771721285370400,5.763370361328125,0,0.0006108652451075613,-0.0006108652451075613
1782771721295370800,5.773370849609375,0,-0.0006108652451075613,-0.0006108652451075613
1782771721305359400,5.783359375,-0.0006108652451075613,0,0
1782771721315391000,5.793390869140625,-0.0006108652451075613,0,0.0006108652451075613
1782771721325308200,5.80330810546875,-0.0006108652451075613,0.0006108652451075613,-0.0006108652451075613
1782771721335441000,5.81344091796875,-0.0012217304902151227,0,-0.0006108652451075613
1782771721345367800,5.823367919921875,-0.0006108652451075613,0,-0.0012217304902151227
1782771721355369000,5.833368896484375,-0.0006108652451075613,0.0006108652451075613,0
1782771721365356800,5.843356689453125,0,0.0006108652451075613,0.0006108652451075613
1782771721375388200,5.85338818359375,0,-0.0006108652451075613,-0.0012217304902151227
1782771721385345800,5.863345703125,-0.0006108652451075613,0.0012217304902151227,0
1782771721395377400,5.87337744140625,0,0,0
1782771721405365500,5.883365478515625,-0.0006108652451075613,0.0012217304902151227,-0.0012217304902151227
1782771721415366400,5.893366455078125,0,-0.0006108652451075613,-0.0006108652451075613
1782771721425354200,5.903354248046875,-0.0006108652451075613,0.0006108652451075613,-0.0012217304902151227
1782771721435377200,5.913377197265625,-0.0006108652451075613,0.0006108652451075613,0
1782771721445343200,5.92334326171875,0,0.0012217304902151227,-0.0012217304902151227
1782771721455374800,5.933374755859375,-0.0006108652451075613,0,-0.0006108652451075613
1782771721465363000,5.943363037109375,-0.0006108652451075613,0.0012217304902151227,-0.0006108652451075613
1782771721475363300,5.95336328125,-0.0012217304902151227,0.0012217304902151227,0
1782771721485352000,5.96335205078125,-0.0006108652451075613,0.0006108652451075613,0
1782771721495383600,5.973383544921875,0.0006108652451075613,0,-0.0006108652451075613
1782771721505371600,5.98337158203125,-0.0006108652451075613,0,-0.0006108652451075613
1782771721515372500,5.99337255859375,0,0,-0.0006108652451075613
1782771721525360400,6.0033603515625,-0.0006108652451075613,0.0012217304902151227,0
1782771721535392000,6.01339208984375,0,0.0006108652451075613,0.0006108652451075613
1782771721545349600,6.023349609375,-0.0006108652451075613,0,0.0006108652451075613
1782771721555381200,6.03338134765625,0,-0.0006108652451075613,0
1782771721565369000,6.043369140625,0,0.0006108652451075613,0
1782771721575369500,6.053369384765625,-0.0006108652451075613,0.0006108652451075613,-0.0006108652451075613
1782771721585358000,6.063358154296875,-0.0006108652451075613,0,-0.0006108652451075613
1782771721595358500,6.0733583984375,-0.0006108652451075613,0,-0.0006108652451075613
1782771721605438700,6.083438720703125,-0.0006108652451075613,0.0012217304902151227,-0.0012217304902151227
1782771721615378700,6.093378662109375,-0.0012217304902151227,0,0
1782771721625366800,6.10336669921875,-0.0006108652451075613,0,-0.0006108652451075613
1782771721635368000,6.113367919921875,-0.0012217304902151227,0.0006108652451075613,-0.0006108652451075613
1782771721645355500,6.12335546875,-0.0012217304902151227,0,0
1782771721655387400,6.133387451171875,0.0006108652451075613,0.0006108652451075613,-0.0012217304902151227
1782771721665344800,6.1433447265625,-0.0006108652451075613,0.0006108652451075613,0.0006108652451075613
1782771721675345000,6.153344970703125,-0.0006108652451075613,0.0012217304902151227,-0.0012217304902151227
1782771721685425200,6.163425048828125,-0.0006108652451075613,0,-0.0012217304902151227
1782771721695365400,6.173365478515625,0,0,-0.0006108652451075613
1782771721705353200,6.183353271484375,-0.001832595793530345,0,-0.0006108652451075613
1782771721715384800,6.193384765625,-0.0012217304902151227,0.0012217304902151227,0.0006108652451075613
1782771721725342500,6.203342529296875,-0.0012217304902151227,0,0
1782771721735373800,6.213373779296875,0,0,-0.0006108652451075613
1782771721745361700,6.223361572265625,0,0,0
1782771721755393500,6.2333935546875,-0.0012217304902151227,0,0
1782771721765350700,6.2433505859375,-0.0012217304902151227,0.0006108652451075613,0
1782771721775382500,6.253382568359375,-0.0012217304902151227,0,0
1782771721785370400,6.263370361328125,-0.0012217304902151227,0.0006108652451075613,0
1782771721795371300,6.273371337890625,-0.0006108652451075613,0.0012217304902151227,0.0006108652451075613
1782771721805359400,6.283359375,-0.0006108652451075613,0,0
1782771721815388200,6.29338818359375,-0.0006108652451075613,0.0006108652451075613,0
1782771721825347600,6.30334765625,0.0006108652451075613,0,-0.0012217304902151227
1782771721835379700,6.313379638671875,-0.0006108652451075613,0.0006108652451075613,-0.0012217304902151227
1782771721845367300,6.3233671875,0,-0.0006108652451075613,-0.0006108652451075613
1782771721855368400,6.333368408203125,-0.0006108652451075613,0,-0.0006108652451075613
1782771721865356300,6.343356201171875,-0.0006108652451075613,0.0006108652451075613,-0.0006108652451075613
1782771721875388200,6.35338818359375,-0.0006108652451075613,0.0006108652451075613,0.0006108652451075613
1782771721885345300,6.36334521484375,0,0,-0.0012217304902151227
1782771721895377000,6.373376953125,0,0.0006108652451075613,0
1782771721905365000,6.383364990234375,-0.0012217304902151227,0.0006108652451075613,0
1782771721915366400,6.393366455078125,-0.0006108652451075613,0.0006108652451075613,-0.0012217304902151227
1782771721925354200,6.403354248046875,-0.0006108652451075613,0,-0.0012217304902151227
1782771721935386000,6.41338623046875,0.0006108652451075613,0,-0.0006108652451075613
1782771721945343200,6.42334326171875,-0.0006108652451075613,0.0012217304902151227,0
1782771721955374800,6.433374755859375,0,0.0006108652451075613,0
1782771721965363000,6.443363037109375,-0.0012217304902151227,0.0006108652451075613,-0.0006108652451075613
1782771721975364000,6.453364013671875,-0.0006108652451075613,0.0006108652451075613,-0.0012217304902151227
1782771721985352000,6.46335205078125,-0.0006108652451075613,0.0006108652451075613,0
1782771721995383600,6.473383544921875,-0.0006108652451075613,-0.0006108652451075613,0.0006108652451075613
1782771722005371600,6.48337158203125,-0.0006108652451075613,0,-0.0006108652451075613
1782771722015372500,6.49337255859375,0,0.0006108652451075613,-0.0006108652451075613
1782771722025360400,6.5033603515625,0,0,-0.0006108652451075613
1782771722035392300,6.513392333984375,0,0.0012217304902151227,-0.0006108652451075613
1782771722045349400,6.523349365234375,0,0.0006108652451075613,-0.0006108652451075613
1782771722055381200,6.53338134765625,-0.0006108652451075613,0,0
1782771722065368800,6.543368896484375,-0.0006108652451075613,0.0006108652451075613,-0.0012217304902151227
1782771722075370200,6.553370361328125,0.0006108652451075613,0.0006108652451075613,-0.0012217304902151227
1782771722085358000,6.563358154296875,-0.0006108652451075613,0.0006108652451075613,0.0006108652451075613
1782771722095389000,6.573388916015625,0.0012217304902151227,0,-0.0012217304902151227
1782771722105347000,6.58334716796875,0,0,0
1782771722115393000,6.59339306640625,0,0.0006108652451075613,-0.0006108652451075613
1782771722125381000,6.603381103515625,-0.0006108652451075613,0,0
1782771722135382000,6.613382080078125,0,0.0006108652451075613,0
1782771722145370000,6.6233701171875,-0.0006108652451075613,0,0.0006108652451075613
1782771722155401000,6.63340087890625,0,-0.0006108652451075613,-0.0006108652451075613
1782771722165358800,6.64335888671875,-0.0006108652451075613,0.0012217304902151227,0
1782771722175390500,6.653390380859375,0,0,0
1782771722185378600,6.663378662109375,0,0.0006108652451075613,-0.0006108652451075613
1782771722195393500,6.6733935546875,-0.0006108652451075613,-0.0006108652451075613,-0.0006108652451075613
1782771722205367600,6.683367431640625,-0.0006108652451075613,0.0006108652451075613,-0.0006108652451075613
1782771722215394000,6.69339404296875,0,-0.0006108652451075613,0
1782771722225356500,6.7033564453125,-0.0006108652451075613,0,0.0012217304902151227
1782771722235383000,6.713383056640625,-0.0006108652451075613,0,0.0006108652451075613
1782771722245376000,6.7233759765625,-0.0012217304902151227,-0.0006108652451075613,-0.0012217304902151227
1782771722255402500,6.733402587890625,-0.0006108652451075613,0.0006108652451075613,-0.0006108652451075613
1782771722265365000,6.743364990234375,-0.0006108652451075613,0,-0.0006108652451075613
1782771722275391500,6.7533916015625,0,0.0006108652451075613,-0.0012217304902151227
1782771722285384700,6.763384765625,-0.0012217304902151227,0,0
1782771722295385600,6.773385498046875,-0.0006108652451075613,0,-0.0006108652451075613
1782771722305373700,6.783373779296875,-0.0006108652451075613,0,-0.0006108652451075613
1782771722315405000,6.793405029296875,0,0.0012217304902151227,0.0006108652451075613
1782771722325362700,6.80336279296875,-0.0006108652451075613,0,0.0006108652451075613
1782771722335394300,6.813394287109375,-0.0012217304902151227,0.0012217304902151227,-0.0006108652451075613
1782771722345382100,6.823382080078125,0,0,0.0006108652451075613
1782771722355383300,6.83338330078125,0.0006108652451075613,0,0
1782771722365371100,6.84337109375,0,0.0006108652451075613,-0.0006108652451075613
1782771722375402800,6.85340283203125,0,0,-0.0006108652451075613
1782771722385360100,6.863360107421875,-0.0006108652451075613,0.0012217304902151227,0
1782771722395391700,6.873391845703125,-0.0006108652451075613,0,-0.0006108652451075613
1782771722405379800,6.8833798828125,-0.0012217304902151227,0,-0.0006108652451075613
1782771722415403300,6.8934033203125,-0.0012217304902151227,0.0006108652451075613,0
1782771722425368800,6.903368896484375,-0.0012217304902151227,0.0006108652451075613,0
1782771722435400400,6.913400390625,-0.0006108652451075613,0.0006108652451075613,0
1782771722445357800,6.92335791015625,-0.0006108652451075613,0.0006108652451075613,-0.0012217304902151227
1782771722455389400,6.933389404296875,-0.0006108652451075613,0.0006108652451075613,0
1782771722465377000,6.943376953125,-0.0006108652451075613,0.0006108652451075613,-0.0006108652451075613
1782771722475378000,6.9533779296875,-0.0006108652451075613,0.0006108652451075613,-0.0012217304902151227
1782771722485366300,6.9633662109375,-0.0006108652451075613,0,0
1782771722495398100,6.973398193359375,-0.0006108652451075613,0.0006108652451075613,0.0006108652451075613
1782771722505386000,6.983385986328125,0,0.0006108652451075613,0.0012217304902151227
1782771722515386400,6.993386474609375,0,-0.0006108652451075613,-0.0006108652451075613
1782771722525334800,7.003334716796875,-0.0012217304902151227,0,0
1782771722535467500,7.013467529296875,0,0.0012217304902151227,0.0006108652451075613
1782771722545363700,7.02336376953125,0.0006108652451075613,0.0012217304902151227,0
1782771722555394800,7.033394775390625,-0.0006108652451075613,0,0.0006108652451075613
1782771722565383700,7.0433837890625,-0.0006108652451075613,0,0
1782771722575384600,7.053384521484375,-0.0006108652451075613,0,-0.0006108652451075613
1782771722585372400,7.063372314453125,0.0006108652451075613,0,-0.0006108652451075613
1782771722595404300,7.073404296875,0,-0.0006108652451075613,0
1782771722605361400,7.083361328125,0,0.0006108652451075613,0
1782771722615393000,7.09339306640625,-0.0006108652451075613,0,-0.0006108652451075613
1782771722625341000,7.1033408203125,0,0,0
1782771722635840800,7.1138408203125,-0.0006108652451075613,0,0
1782771722655462700,7.133462646484375,-0.0006108652451075613,0,0.0006108652451075613
1782771722665359000,7.143359130859375,0.0006108652451075613,0.0006108652451075613,0
1782771722675359200,7.153359130859375,0,0,-0.0006108652451075613
1782771722685439700,7.163439697265625,-0.0006108652451075613,0,0
1782771722695379700,7.173379638671875,-0.0006108652451075613,0,-0.0012217304902151227
1782771722705367600,7.183367431640625,0.0006108652451075613,0.0012217304902151227,-0.0006108652451075613
1782771722715399200,7.193399169921875,-0.0006108652451075613,-0.0006108652451075613,-0.0012217304902151227
1782771722725356500,7.2033564453125,0.0012217304902151227,0.0012217304902151227,0
1782771722735387600,7.2133876953125,0,0.0006108652451075613,-0.0006108652451075613
1782771722745376300,7.223376220703125,0.0006108652451075613,0.024434609338641167,0.012828170321881771
1782771722755407600,7.23340771484375,-0.001832595793530345,0.0806342139840126,0.04948008432984352
1782771722765365000,7.243364990234375,0,0.01038470957428217,0.006108652334660292
1782771722775396900,7.25339697265625,0,-0.003054326167330146,-0.0024434609804302454
1782771722785384700,7.263384765625,0,-0.005497787147760391,-0.005497787147760391
1782771722795385600,7.273385498046875,0,-0.004886921960860491,-0.00366519158706069
1782771722805373700,7.283373779296875,0.0006108652451075613,-0.004886921960860491,-0.004886921960860491
1782771722815402500,7.293402587890625,-0.0012217304902151227,-0.012828170321881771,-0.007941247895359993
1782771722825362000,7.30336181640625,0,-0.028099801391363144,-0.01466076634824276
1782771722835393500,7.3133935546875,-0.0006108652451075613,-0.05925392732024193,-0.030543262138962746
1782771722845381600,7.323381591796875,0,-0.001832595793530345,-0.0024434609804302454
