time,seconds_elapsed,z,y,x
1782771741917084700,0.204084716796875,-0.0006108652451075613,0.005497787147760391,0.0024434609804302454
1782771741927661600,0.21466162109375,-0.0006108652451075613,0.005497787147760391,0.0024434609804302454
1782771741937654500,0.224654541015625,-0.0006108652451075613,0.005497787147760391,0.0024434609804302454
1782771741947681000,0.234680908203125,-0.0006108652451075613,0.005497787147760391,0.0024434609804302454
1782771741957643800,0.244643798828125,-0.0006108652451075613,0.0006108652451075613,-0.0012217304902151227
1782771741967670300,0.254670166015625,-0.0006108652451075613,0,0.0006108652451075613
1782771741977663000,0.2646630859375,-0.001832595793530345,0,-0.0006108652451075613
1782771741987659000,0.274658935546875,0,0,0.0006108652451075613
1782771741997652000,0.28465185546875,0.0006108652451075613,-0.0006108652451075613,-0.0006108652451075613
1782771742007684000,0.29468408203125,0,0.0006108652451075613,0
1782771742017641000,0.304640869140625,0,0,0
1782771742027672800,0.3146728515625,-0.0012217304902151227,0.0006108652451075613,0
1782771742037660700,0.32466064453125,0,0,0
1782771742047661800,0.334661865234375,-0.0012217304902151227,0.0006108652451075613,0
1782771742057649700,0.344649658203125,-0.0006108652451075613,-0.0006108652451075613,0
1782771742067681300,0.354681396484375,-0.0006108652451075613,0.0006108652451075613,-0.0006108652451075613
1782771742077638700,0.364638671875,-0.0006108652451075613,0,-0.0006108652451075613
1782771742087670500,0.37467041015625,-0.0006108652451075613,-0.0006108652451075613,-0.0006108652451075613
1782771742097658000,0.384658203125,-0.0006108652451075613,-0.0006108652451075613,0
1782771742107659500,0.394659423828125,0,0.0006108652451075613,0
1782771742117647000,0.404647216796875,-0.0012217304902151227,0.0006108652451075613,-0.0006108652451075613
1782771742127679200,0.41467919921875,0,0.0012217304902151227,-0.001832595793530345
1782771742137636400,0.42463623046875,-0.0006108652451075613,0,-0.0006108652451075613
1782771742147668200,0.434668212890625,0,0.0006108652451075613,0
1782771742157655800,0.44465576171875,-0.0006108652451075613,0.0006108652451075613,-0.0006108652451075613
1782771742167656400,0.454656494140625,0,0,-0.0012217304902151227
1782771742177644500,0.46464453125,-0.0006108652451075613,0,0
1782771742187676700,0.4746767578125,0,0,-0.0006108652451075613
1782771742197664300,0.484664306640625,-0.0012217304902151227,0,-0.0012217304902151227
1782771742207665700,0.494665771484375,0,0,0.0006108652451075613
1782771742217653200,0.5046533203125,-0.0006108652451075613,0,0
1782771742227685000,0.51468505859375,-0.0006108652451075613,0.0006108652451075613,0
1782771742237642200,0.524642333984375,0,0,-0.0006108652451075613
1782771742247674000,0.534674072265625,0,0.0006108652451075613,0
1782771742257662000,0.544661865234375,-0.0006108652451075613,0.0012217304902151227,0
1782771742267663000,0.5546630859375,-0.0006108652451075613,0.0006108652451075613,-0.0006108652451075613
1782771742277651000,0.56465087890625,-0.0006108652451075613,0.0006108652451075613,0.0006108652451075613
1782771742287682600,0.5746826171875,0,0,-0.0012217304902151227
1782771742297639700,0.5846396484375,0.0006108652451075613,0,-0.0006108652451075613
1782771742307671800,0.594671875,-0.0006108652451075613,0,0.0006108652451075613
1782771742317659400,0.604659423828125,0,0.0006108652451075613,0
1782771742327660800,0.614660888671875,-0.0006108652451075613,0.0006108652451075613,0.0006108652451075613
1782771742337648400,0.6246484375,-0.0006108652451075613,0.0006108652451075613,0
1782771742347680000,0.634679931640625,-0.0006108652451075613,-0.0006108652451075613,0
1782771742357660400,0.644660400390625,-0.0006108652451075613,0,0.0006108652451075613
1782771742367669200,0.654669189453125,-0.0006108652451075613,0,-0.0006108652451075613
1782771742377656800,0.66465673828125,0.0006108652451075613,0.0012217304902151227,-0.0006108652451075613
1782771742387658200,0.674658203125,-0.0012217304902151227,0.0012217304902151227,-0.0006108652451075613
1782771742397645800,0.684645751953125,-0.0006108652451075613,0,0
1782771742407678000,0.694677978515625,0,0.0006108652451075613,-0.0006108652451075613
1782771742417634800,0.704634765625,0,0.0012217304902151227,-0.0012217304902151227
1782771742427666700,0.714666748046875,-0.0006108652451075613,0.0006108652451075613,0
1782771742437654500,0.724654541015625,0,0,-0.0012217304902151227
1782771742447686100,0.73468603515625,-0.0006108652451075613,0.0006108652451075613,0.0006108652451075613
1782771742457643500,0.7446435546875,0,0.0012217304902151227,0.0006108652451075613
1782771742467675100,0.754675048828125,-0.0006108652451075613,0.0006108652451075613,-0.0006108652451075613
1782771742477663000,0.7646630859375,0.0006108652451075613,0,0
1782771742487664400,0.774664306640625,0,0,-0.0006108652451075613
1782771742497652000,0.78465185546875,0,0,0.0006108652451075613
1782771742507683800,0.794683837890625,-0.0006108652451075613,0,0
1782771742517641200,0.80464111328125,0.0006108652451075613,0,-0.0006108652451075613
1782771742527673000,0.814673095703125,0,0,-0.0012217304902151227
1782771742537660700,0.82466064453125,-0.0006108652451075613,0,-0.0012217304902151227
1782771742547661800,0.834661865234375,0,0,0
1782771742557649700,0.844649658203125,-0.0006108652451075613,0.0006108652451075613,0
1782771742567681300,0.854681396484375,0,0,0.0006108652451075613
1782771742577638700,0.864638671875,0,0,-0.0006108652451075613
1782771742587670500,0.87467041015625,0.0006108652451075613,0,0
1782771742597658000,0.884658203125,0,-0.0006108652451075613,-0.0006108652451075613
1782771742607659500,0.894659423828125,-0.0006108652451075613,0,0
1782771742617647000,0.904647216796875,-0.0006108652451075613,0.0006108652451075613,-0.0006108652451075613
1782771742627679000,0.914678955078125,-0.0006108652451075613,0,0.0006108652451075613
1782771742637636000,0.924635986328125,-0.0006108652451075613,0,-0.0012217304902151227
1782771742647668000,0.93466796875,0,0,0.0006108652451075613
1782771742657655800,0.94465576171875,-0.0006108652451075613,0,-0.0012217304902151227
1782771742667657000,0.954656982421875,0,0.001832595793530345,0.0006108652451075613
1782771742677644800,0.964644775390625,-0.0006108652451075613,0.0006108652451075613,0.0006108652451075613
1782771742687676400,0.974676513671875,-0.0006108652451075613,0.0006108652451075613,0.0006108652451075613
1782771742697664300,0.984664306640625,-0.0006108652451075613,0,-0.0006108652451075613
1782771742707665700,0.994665771484375,-0.0012217304902151227,0.0006108652451075613,0
1782771742717653200,1.0046533203125,0,0.0006108652451075613,-0.0006108652451075613
1782771742727685400,1.014685302734375,-0.001832595793530345,-0.0006108652451075613,-0.0006108652451075613
1782771742737642200,1.024642333984375,0,0.0006108652451075613,0.0006108652451075613
1782771742747674000,1.034674072265625,-0.0006108652451075613,-0.0006108652451075613,0
1782771742757662000,1.044661865234375,0,0,-0.0006108652451075613
1782771742767663000,1.0546630859375,0,0.0006108652451075613,-0.0006108652451075613
1782771742777650700,1.064650634765625,0,0.0006108652451075613,0
1782771742787682600,1.0746826171875,-0.0006108652451075613,-0.0006108652451075613,0
1782771742797639700,1.0846396484375,-0.0006108652451075613,0,0.0006108652451075613
1782771742807671800,1.094671875,-0.0006108652451075613,0,-0.0012217304902151227
1782771742817658400,1.104658447265625,0,0,0
1782771742827660000,1.114659912109375,0,0.0006108652451075613,0.0012217304902151227
1782771742837648000,1.12464794921875,0,0,-0.0006108652451075613
1782771742847679700,1.1346796875,-0.0006108652451075613,0,-0.0006108652451075613
1782771742857636600,1.14463671875,-0.0006108652451075613,0,-0.0006108652451075613
1782771742867668700,1.154668701171875,0,0,-0.0006108652451075613
1782771742877656300,1.16465625,-0.0006108652451075613,0.0006108652451075613,0
1782771742887657700,1.17465771484375,0,0.0006108652451075613,-0.0012217304902151227
1782771742897645600,1.1846455078125,0,0.0006108652451075613,-0.0006108652451075613
1782771742907677400,1.194677490234375,-0.0006108652451075613,0,0.0006108652451075613
1782771742917634800,1.204634765625,0,0,-0.0006108652451075613
1782771742927666700,1.214666748046875,-0.0006108652451075613,0.0012217304902151227,0.0006108652451075613
1782771742937654300,1.224654296875,0,0.0006108652451075613,0
1782771742947686100,1.23468603515625,0,0,0
1782771742957643500,1.2446435546875,-0.0006108652451075613,0.0012217304902151227,-0.0006108652451075613
1782771742967675100,1.254675048828125,0,0.0006108652451075613,0.0006108652451075613
1782771742977663000,1.2646630859375,0.0006108652451075613,0.0006108652451075613,-0.0006108652451075613
1782771742987678200,1.27467822265625,-0.0006108652451075613,0.0006108652451075613,0.0006108652451075613
1782771742997652200,1.28465234375,0.0006108652451075613,0,0
1782771743007678500,1.294678466796875,0.0006108652451075613,0.0012217304902151227,0
1782771743017641000,1.304640869140625,0,0.0012217304902151227,-0.0006108652451075613
1782771743027667500,1.31466748046875,-0.0012217304902151227,0.0006108652451075613,-0.0012217304902151227
1782771743037660700,1.32466064453125,0,0,-0.0006108652451075613
1782771743047656000,1.334656005859375,0,0,-0.0006108652451075613
1782771743057649700,1.344649658203125,-0.0012217304902151227,0.0006108652451075613,0.0006108652451075613
1782771743067675400,1.35467529296875,-0.0006108652451075613,0,-0.0012217304902151227
1782771743077638700,1.364638671875,0,0.0006108652451075613,0
1782771743087670500,1.37467041015625,-0.0006108652451075613,0,0
1782771743097658000,1.384658203125,-0.0006108652451075613,0,-0.0006108652451075613
1782771743107659500,1.394659423828125,-0.0006108652451075613,0.0006108652451075613,-0.0006108652451075613
1782771743117647000,1.404647216796875,-0.0012217304902151227,-0.0006108652451075613,0
1782771743127678500,1.414678466796875,0,0,0.0006108652451075613
1782771743137636000,1.424635986328125,-0.0006108652451075613,0.0006108652451075613,-0.0012217304902151227
1782771743147668200,1.434668212890625,-0.0006108652451075613,0,-0.0006108652451075613
1782771743157655800,1.44465576171875,-0.0006108652451075613,0.0012217304902151227,0
1782771743167657000,1.454656982421875,-0.0006108652451075613,-0.0006108652451075613,0.0006108652451075613
1782771743177644800,1.464644775390625,0,0.0006108652451075613,-0.0006108652451075613
1782771743187676700,1.4746767578125,-0.0006108652451075613,0.0006108652451075613,0.0006108652451075613
1782771743197664000,1.4846640625,0.0006108652451075613,0.001832595793530345,0.0006108652451075613
1782771743207665700,1.494665771484375,0,0.0006108652451075613,0
1782771743217653200,1.5046533203125,0.0006108652451075613,0.0006108652451075613,-0.0012217304902151227
1782771743227685000,1.51468505859375,0.0006108652451075613,0.0006108652451075613,-0.0006108652451075613
1782771743237642200,1.524642333984375,0,-0.0006108652451075613,0.0012217304902151227
1782771743247673600,1.534673583984375,0,0.0006108652451075613,0
1782771743257661700,1.54466162109375,-0.0012217304902151227,0,-0.0012217304902151227
1782771743267663000,1.5546630859375,-0.0006108652451075613,0.0006108652451075613,-0.0006108652451075613
1782771743277650700,1.564650634765625,-0.0012217304902151227,0.0006108652451075613,0
1782771743287682600,1.5746826171875,-0.0006108652451075613,0,0.0006108652451075613
1782771743297639700,1.5846396484375,-0.0012217304902151227,0.0012217304902151227,0
1782771743307671600,1.594671630859375,-0.0012217304902151227,0.0006108652451075613,-0.0006108652451075613
1782771743317659400,1.604659423828125,0.0006108652451075613,0.0006108652451075613,0
1782771743327660800,1.614660888671875,0,0.0012217304902151227,0
1782771743337648400,1.6246484375,0,0.0006108652451075613,0
1782771743347680300,1.63468017578125,0,0,-0.0006108652451075613
1782771743357637400,1.644637451171875,-0.0012217304902151227,0,0.0006108652451075613
1782771743367669000,1.6546689453125,0,0.0006108652451075613,0
1782771743377656800,1.66465673828125,0,0,-0.0012217304902151227
1782771743387658200,1.674658203125,0,0.0006108652451075613,0.0006108652451075613
1782771743397645800,1.684645751953125,-0.0006108652451075613,0.0006108652451075613,-0.0006108652451075613
1782771743407678000,1.694677978515625,0,0.0006108652451075613,0
1782771743417634800,1.704634765625,0,0.0006108652451075613,0.0006108652451075613
1782771743427666700,1.714666748046875,-0.0006108652451075613,0.0006108652451075613,-0.0006108652451075613
1782771743437654500,1.724654541015625,-0.0006108652451075613,0.0006108652451075613,0
1782771743447686400,1.734686279296875,0,0.0006108652451075613,0
1782771743457643500,1.7446435546875,-0.0006108652451075613,0.0006108652451075613,0.0006108652451075613
1782771743467674600,1.754674560546875,0.0006108652451075613,0,0
1782771743477663200,1.764663330078125,0,0,0
1782771743487664400,1.774664306640625,0.0006108652451075613,0.0012217304902151227,-0.0012217304902151227
1782771743497652000,1.78465185546875,-0.0006108652451075613,0,-0.0006108652451075613
1782771743507684000,1.79468408203125,-0.0006108652451075613,0.0006108652451075613,-0.0006108652451075613
1782771743517641000,1.804640869140625,0,0,0.0006108652451075613
1782771743527672800,1.8146728515625,0,0.0012217304902151227,0
1782771743537660700,1.82466064453125,0,0.0006108652451075613,0
1782771743547661800,1.834661865234375,-0.0006108652451075613,0.0012217304902151227,-0.0006108652451075613
1782771743557649700,1.844649658203125,-0.0006108652451075613,0.0012217304902151227,-0.0006108652451075613
1782771743567681300,1.854681396484375,0.0006108652451075613,0.0006108652451075613,-0.0006108652451075613
1782771743577638400,1.864638427734375,0,0.0006108652451075613,-0.0012217304902151227
1782771743587670300,1.874670166015625,0.0006108652451075613,0.0006108652451075613,-0.0012217304902151227
1782771743597658000,1.884658203125,-0.0006108652451075613,0.0012217304902151227,0
1782771743607659500,1.894659423828125,-0.0012217304902151227,0.0006108652451075613,0.0006108652451075613
1782771743617647000,1.904647216796875,0,0.0006108652451075613,0
1782771743627679200,1.91467919921875,-0.0006108652451075613,0.0006108652451075613,-0.0006108652451075613
1782771743637636400,1.92463623046875,-0.0006108652451075613,0.0006108652451075613,0
1782771743647668000,1.93466796875,-0.0006108652451075613,0.0006108652451075613,-0.0006108652451075613
1782771743657655800,1.94465576171875,0,0.0006108652451075613,-0.0006108652451075613
1782771743667657000,1.954656982421875,-0.0012217304902151227,0.0006108652451075613,0.0006108652451075613
1782771743677644800,1.964644775390625,-0.0012217304902151227,0,0
1782771743687676700,1.9746767578125,-0.0006108652451075613,-0.0006108652451075613,0
1782771743697664300,1.984664306640625,-0.0006108652451075613,0.0006108652451075613,-0.0006108652451075613
1782771743707665700,1.994665771484375,0.0006108652451075613,0.0006108652451075613,-0.0006108652451075613
1782771743717653200,2.0046533203125,-0.0006108652451075613,0,0
1782771743727685400,2.014685302734375,0,0.0012217304902151227,-0.0006108652451075613
1782771743737642200,2.024642333984375,-0.0006108652451075613,0,0
1782771743747674400,2.03467431640625,-0.0006108652451075613,0.0006108652451075613,0
1782771743757662000,2.044661865234375,-0.0006108652451075613,-0.0006108652451075613,0.0006108652451075613
1782771743767663000,2.0546630859375,-0.0012217304902151227,0.0006108652451075613,-0.0012217304902151227
1782771743777651000,2.06465087890625,0,0.0006108652451075613,0
1782771743787682600,2.0746826171875,-0.0006108652451075613,0.0006108652451075613,0
1782771743797639700,2.0846396484375,0,0,-0.0006108652451075613
1782771743807671800,2.094671875,-0.0006108652451075613,0.0006108652451075613,-0.0012217304902151227
1782771743817658400,2.104658447265625,0.0006108652451075613,0,-0.0012217304902151227
1782771743827660000,2.114659912109375,-0.0006108652451075613,-0.0006108652451075613,0
1782771743837648000,2.12464794921875,-0.0006108652451075613,0,-0.0012217304902151227
1782771743847679700,2.1346796875,-0.0006108652451075613,0,0
1782771743857636900,2.144636962890625,-0.0006108652451075613,0,0.0006108652451075613
1782771743867668700,2.154668701171875,0,-0.0006108652451075613,0
1782771743877656300,2.16465625,0.0006108652451075613,0,-0.0006108652451075613
1782771743887657700,2.17465771484375,0,0.0012217304902151227,0.0006108652451075613
1782771743897645600,2.1846455078125,0,0,-0.0006108652451075613
1782771743907677400,2.194677490234375,-0.0006108652451075613,0.0006108652451075613,-0.0006108652451075613
1782771743917634800,2.204634765625,-0.0006108652451075613,0,-0.0006108652451075613
1782771743927667000,2.2146669921875,-0.0006108652451075613,0.0006108652451075613,-0.0006108652451075613
1782771743937654500,2.224654541015625,-0.0012217304902151227,0.0006108652451075613,-0.001832595793530345
1782771743947686100,2.23468603515625,0,0.0012217304902151227,0
1782771743957643500,2.2446435546875,0,0.0012217304902151227,0.0006108652451075613
1782771743967675100,2.254675048828125,-0.0012217304902151227,0.0006108652451075613,-0.0012217304902151227
1782771743977663200,2.264663330078125,-0.0006108652451075613,0.0006108652451075613,0
1782771743987664400,2.274664306640625,0,0.0006108652451075613,0
1782771743997652000,2.28465185546875,0,0,0
1782771744007683800,2.294683837890625,-0.0006108652451075613,0.0006108652451075613,0
1782771744017641000,2.304640869140625,-0.0006108652451075613,0.0006108652451075613,-0.0006108652451075613
1782771744027672800,2.3146728515625,-0.0006108652451075613,0.0006108652451075613,0
1782771744037660700,2.32466064453125,-0.0006108652451075613,0,0
1782771744047662000,2.334662109375,-0.0012217304902151227,-0.0006108652451075613,-0.0006108652451075613
1782771744057649700,2.344649658203125,0,0.0006108652451075613,-0.0006108652451075613
1782771744067695000,2.354695068359375,0,0.0012217304902151227,0
1782771744077638400,2.364638427734375,0,0.0012217304902151227,-0.0006108652451075613
1782771744087665200,2.3746650390625,-0.0012217304902151227,0,-0.0006108652451075613
1782771744097658000,2.384658203125,0,0.0006108652451075613,-0.0006108652451075613
1782771744107653600,2.394653564453125,-0.0006108652451075613,-0.0006108652451075613,-0.0006108652451075613
1782771744117647000,2.404647216796875,-0.0006108652451075613,0,0.0006108652451075613
1782771744127673600,2.414673583984375,0,0,-0.0006108652451075613
1782771744137636000,2.424635986328125,0,0.0006108652451075613,0
1782771744147662800,2.434662841796875,-0.0012217304902151227,0.0006108652451075613,-0.0006108652451075613
1782771744157655800,2.44465576171875,-0.0012217304902151227,0.0006108652451075613,-0.0006108652451075613
1782771744167657000,2.454656982421875,-0.0012217304902151227,0.0012217304902151227,-0.0012217304902151227
1782771744177644500,2.46464453125,-0.0012217304902151227,0,-0.0006108652451075613
1782771744187676700,2.4746767578125,-0.0006108652451075613,0.0012217304902151227,-0.0012217304902151227
1782771744197664300,2.484664306640625,-0.0006108652451075613,0,0.0006108652451075613
1782771744207665400,2.49466552734375,-0.0006108652451075613,0,-0.0012217304902151227
1782771744217613300,2.50461328125,-0.0006108652451075613,0.0006108652451075613,-0.0012217304902151227
1782771744227746300,2.514746337890625,-0.0006108652451075613,0.0012217304902151227,-0.0006108652451075613
1782771744237642200,2.524642333984375,-0.0006108652451075613,0,0
1782771744247673900,2.534673828125,-0.0012217304902151227,0,-0.0012217304902151227
1782771744257662000,2.544661865234375,-0.0012217304902151227,0.0006108652451075613,0.0006108652451075613
1782771744267662800,2.554662841796875,-0.0006108652451075613,0.0006108652451075613,-0.0006108652451075613
1782771744277651000,2.56465087890625,-0.0006108652451075613,0.0006108652451075613,0
1782771744287682600,2.5746826171875,0,0.0006108652451075613,0
1782771744297639700,2.5846396484375,0.0012217304902151227,0,-0.0006108652451075613
1782771744307671800,2.594671875,-0.0006108652451075613,0,0
1782771744318697200,2.605697265625,0,0.0006108652451075613,0.0006108652451075613
1782771744337648400,2.6246484375,-0.0006108652451075613,0,0
1782771744347680300,2.63468017578125,0,0.0012217304902151227,0
1782771744357660700,2.64466064453125,-0.0006108652451075613,0.0006108652451075613,0.0006108652451075613
1782771744367669000,2.6546689453125,-0.0006108652451075613,0.0006108652451075613,-0.0012217304902151227
1782771744377617000,2.664616943359375,-0.0006108652451075613,0.0006108652451075613,-0.0006108652451075613
1782771744387718100,2.67471826171875,0,0,-0.0006108652451075613
1782771744398808300,2.685808349609375,-0.0012217304902151227,0.0012217304902151227,0
1782771744417595000,2.704594970703125,0,0,-0.001832595793530345
1782771744427758300,2.71475830078125,0,0.0006108652451075613,0.0006108652451075613
1782771744437654500,2.724654541015625,0,0.0006108652451075613,0.0006108652451075613
1782771744447686100,2.73468603515625,-0.0012217304902151227,0.0006108652451075613,-0.0006108652451075613
1782771744457643500,2.7446435546875,-0.0006108652451075613,-0.0006108652451075613,0
1782771744467675400,2.75467529296875,-0.0012217304902151227,0.0006108652451075613,-0.0006108652451075613
1782771744477663200,2.764663330078125,-0.0012217304902151227,-0.0006108652451075613,0.0006108652451075613
1782771744487664000,2.7746640625,-0.0006108652451075613,-0.0006108652451075613,0
1782771744497652000,2.78465185546875,0,0,0
1782771744507652400,2.79465234375,-0.0012217304902151227,0.0006108652451075613,-0.0006108652451075613
1782771744518868500,2.805868408203125,-0.0012217304902151227,0.0006108652451075613,-0.0006108652451075613
1782771744537660400,2.824660400390625,-0.0006108652451075613,0,-0.0012217304902151227
1782771744547661000,2.8346611328125,-0.001832595793530345,0.0012217304902151227,-0.0012217304902151227
1782771744558403000,2.845403076171875,0.0006108652451075613,0.0012217304902151227,-0.0012217304902151227
1782771744577638700,2.864638671875,-0.0006108652451075613,0.0006108652451075613,0
1782771744587638800,2.874638671875,-0.0012217304902151227,0.0006108652451075613,0
1782771744598431700,2.885431640625,-0.0012217304902151227,0,0
1782771744617607200,2.904607177734375,0.0006108652451075613,0.0012217304902151227,0
1782771744627740000,2.914739990234375,0,0,-0.0006108652451075613
1782771744637636000,2.924635986328125,0,0,-0.0006108652451075613
1782771744647668000,2.93466796875,0.0006108652451075613,0.0012217304902151227,0
1782771744657655800,2.94465576171875,-0.0012217304902151227,0,-0.0006108652451075613
1782771744667657000,2.954656982421875,0,0,0
1782771744677644800,2.964644775390625,0.0006108652451075613,0.0012217304902151227,0.0006108652451075613
1782771744687645000,2.97464501953125,-0.0012217304902151227,0,0.0006108652451075613
1782771744697725400,2.984725341796875,-0.0006108652451075613,0,-0.0006108652451075613
1782771744707665700,2.994665771484375,-0.0006108652451075613,0.0006108652451075613,0
1782771744717653200,3.0046533203125,0,0.0006108652451075613,0
1782771744727685000,3.01468505859375,-0.0006108652451075613,0,-0.0006108652451075613
1782771744737642500,3.024642578125,0,0.0006108652451075613,0
1782771744747674000,3.034674072265625,-0.0006108652451075613,0,-0.0006108652451075613
1782771744757662000,3.044661865234375,-0.001832595793530345,0,-0.0012217304902151227
1782771744767662800,3.054662841796875,-0.0006108652451075613,0.0006108652451075613,0
1782771744777651000,3.06465087890625,-0.0006108652451075613,0.0006108652451075613,0.0006108652451075613
1782771744787682600,3.0746826171875,0,0,0
1782771744797599700,3.084599853515625,-0.0012217304902151227,0.0006108652451075613,0
1782771744807732700,3.094732666015625,0,0.0012217304902151227,0.0006108652451075613
1782771744817619500,3.104619384765625,-0.0006108652451075613,-0.0006108652451075613,-0.0006108652451075613
1782771744827720700,3.114720703125,0,0,-0.0012217304902151227
1782771744838768000,3.12576806640625,-0.0006108652451075613,0,0.0006108652451075613
1782771744857636900,3.144636962890625,-0.0006108652451075613,0.0006108652451075613,0
1782771744867668700,3.154668701171875,-0.0006108652451075613,0.0012217304902151227,0
1782771744877656300,3.16465625,-0.0006108652451075613,0,0
1782771744887658000,3.174657958984375,0,0,0
1782771744897645300,3.184645263671875,-0.0006108652451075613,0.0006108652451075613,0.0006108652451075613
1782771744907677000,3.194677001953125,-0.0012217304902151227,0,0.0006108652451075613
1782771744917635000,3.204635009765625,-0.0012217304902151227,0,0
1782771744927666700,3.214666748046875,-0.0006108652451075613,0.0006108652451075613,-0.0006108652451075613
1782771744937654300,3.224654296875,-0.0006108652451075613,0.0006108652451075613,0
1782771744947686100,3.23468603515625,-0.0006108652451075613,0.0006108652451075613,0
1782771744957643500,3.2446435546875,-0.0006108652451075613,0.0006108652451075613,0
1782771744967675100,3.254675048828125,-0.0006108652451075613,0.0006108652451075613,-0.0012217304902151227
1782771744977663200,3.264663330078125,0,0.0012217304902151227,-0.0006108652451075613
1782771744987664400,3.274664306640625,0,0,-0.0006108652451075613
1782771744997652200,3.28465234375,0,0,0
1782771745007684000,3.29468408203125,-0.0006108652451075613,-0.0006108652451075613,0.0006108652451075613
1782771745017641000,3.304640869140625,0,0,0
1782771745027672800,3.3146728515625,-0.0012217304902151227,0,-0.0006108652451075613
1782771745037660700,3.32466064453125,0,-0.0006108652451075613,-0.0006108652451075613
1782771745047661800,3.334661865234375,-0.001832595793530345,0,0.0006108652451075613
1782771745057649700,3.344649658203125,-0.0012217304902151227,0.0006108652451075613,-0.0006108652451075613
1782771745067681500,3.354681640625,-0.0012217304902151227,0.0006108652451075613,-0.0006108652451075613
1782771745077638700,3.364638671875,0,0.0006108652451075613,0.0006108652451075613
1782771745087670300,3.374670166015625,-0.0006108652451075613,0.0006108652451075613,0.0006108652451075613
1782771745097658000,3.384658203125,-0.0006108652451075613,0,0
1782771745107659500,3.394659423828125,-0.0006108652451075613,0.0006108652451075613,-0.0006108652451075613
1782771745117647000,3.404647216796875,-0.0012217304902151227,0,-0.0006108652451075613
1782771745127678500,3.414678466796875,0,0,0
1782771745137636000,3.424635986328125,-0.0012217304902151227,-0.0006108652451075613,-0.0006108652451075613
1782771745147681800,3.434681884765625,-0.0006108652451075613,0.0012217304902151227,0
1782771745157655800,3.44465576171875,-0.001832595793530345,0.0006108652451075613,0.0006108652451075613
1782771745167651600,3.454651611328125,-0.0012217304902151227,0.0012217304902151227,-0.0006108652451075613
1782771745177644500,3.46464453125,0.0006108652451075613,0,0.0006108652451075613
1782771745187671300,3.47467138671875,0,0,0
1782771745197664000,3.4846640625,-0.0006108652451075613,0,-0.0006108652451075613
1782771745207660500,3.49466064453125,-0.0006108652451075613,-0.0006108652451075613,0
1782771745217653200,3.5046533203125,-0.0006108652451075613,0,0
1782771745227679700,3.5146796875,-0.0012217304902151227,0,-0.0006108652451075613
1782771745237642200,3.524642333984375,-0.0006108652451075613,0,0.0006108652451075613
1782771745247673300,3.53467333984375,0,0,0.0006108652451075613
1782771745257662000,3.544661865234375,-0.0006108652451075613,0,-0.0006108652451075613
1782771745267663000,3.5546630859375,-0.0012217304902151227,0.0006108652451075613,-0.0006108652451075613
1782771745277651000,3.56465087890625,-0.0012217304902151227,0.0006108652451075613,0
1782771745287682600,3.5746826171875,0.0012217304902151227,0.0006108652451075613,0
1782771745297639700,3.5846396484375,0,0,0
1782771745307671800,3.594671875,-0.0006108652451075613,-0.0006108652451075613,-0.0006108652451075613
1782771745317659400,3.604659423828125,0,0,0
1782771745327660500,3.61466064453125,-0.0006108652451075613,-0.0006108652451075613,0
1782771745337648400,3.6246484375,0,0.0006108652451075613,0.0006108652451075613
1782771745347679500,3.634679443359375,-0.0006108652451075613,-0.0006108652451075613,0
1782771745357637400,3.644637451171875,-0.0006108652451075613,0.0006108652451075613,0
1782771745367669200,3.654669189453125,0,0.0012217304902151227,0
1782771745377656800,3.66465673828125,-0.0006108652451075613,0.0006108652451075613,0
1782771745387658200,3.674658203125,-0.0006108652451075613,0.0006108652451075613,-0.0006108652451075613
1782771745397646000,3.68464599609375,-0.0006108652451075613,0.0006108652451075613,0
1782771745407677700,3.694677734375,-0.0006108652451075613,0.0006108652451075613,-0.0006108652451075613
1782771745417634800,3.704634765625,0,0,-0.0006108652451075613
1782771745427666700,3.714666748046875,0,0,0
1782771745437654500,3.724654541015625,-0.001832595793530345,0.0012217304902151227,-0.0006108652451075613
1782771745447686000,3.734685791015625,-0.0012217304902151227,0.0006108652451075613,-0.0006108652451075613
1782771745457643500,3.7446435546875,-0.0006108652451075613,0,-0.0006108652451075613
1782771745467675100,3.754675048828125,-0.0006108652451075613,0,-0.0006108652451075613
1782771745477663200,3.764663330078125,0,0.0012217304902151227,-0.0006108652451075613
1782771745487664400,3.774664306640625,0,0.0006108652451075613,0
1782771745497652000,3.78465185546875,-0.0006108652451075613,0,0
1782771745507683800,3.794683837890625,-0.0006108652451075613,0.0006108652451075613,-0.0006108652451075613
1782771745517641000,3.804640869140625,-0.0012217304902151227,0,0
1782771745527672800,3.8146728515625,-0.0006108652451075613,0,-0.0012217304902151227
1782771745537660700,3.82466064453125,0,-0.0006108652451075613,0.0006108652451075613
1782771745547661600,3.83466162109375,0,0,-0.0006108652451075613
1782771745557649700,3.844649658203125,0,0,-0.0006108652451075613
1782771745567681300,3.854681396484375,0,0,-0.001832595793530345
1782771745577638400,3.864638427734375,-0.0006108652451075613,0.0006108652451075613,-0.0012217304902151227
1782771745587670300,3.874670166015625,-0.0006108652451075613,0.0006108652451075613,-0.0012217304902151227
1782771745597657900,3.884657958984375,0,0.0006108652451075613,0
1782771745607659500,3.894659423828125,-0.0006108652451075613,0.0012217304902151227,-0.0006108652451075613
1782771745617647000,3.904647216796875,-0.0006108652451075613,0,-0.0006108652451075613
1782771745627679200,3.91467919921875,-0.0006108652451075613,0.0006108652451075613,-0.0006108652451075613
1782771745637636400,3.92463623046875,-0.0006108652451075613,0.0006108652451075613,0.0006108652451075613
1782771745647667700,3.934667724609375,-0.0012217304902151227,0,0
1782771745657655800,3.94465576171875,-0.001832595793530345,-0.0006108652451075613,-0.0006108652451075613
1782771745667657000,3.954656982421875,-0.0006108652451075613,0.0006108652451075613,-0.0006108652451075613
1782771745677644500,3.96464453125,-0.0006108652451075613,0,0.0006108652451075613
1782771745687676400,3.974676513671875,0,0.0006108652451075613,0
1782771745697664300,3.984664306640625,-0.001832595793530345,0.0006108652451075613,0.0012217304902151227
1782771745707665400,3.99466552734375,-0.0006108652451075613,0.0006108652451075613,-0.0006108652451075613
1782771745717653200,4.0046533203125,0,0.0012217304902151227,0
1782771745727685400,4.014685302734375,-0.0012217304902151227,0.0006108652451075613,0
1782771745737642200,4.024642333984375,0,0,0
1782771745747674000,4.034674072265625,0,0.0006108652451075613,0
1782771745757662000,4.044661865234375,-0.0006108652451075613,0.0006108652451075613,0.0006108652451075613
1782771745767662800,4.054662841796875,-0.001832595793530345,0.0006108652451075613,-0.0006108652451075613
1782771745777651000,4.06465087890625,-0.0006108652451075613,0,-0.0006108652451075613
1782771745787682800,4.074682861328125,0.0006108652451075613,0.0012217304902151227,-0.0006108652451075613
1782771745797639700,4.0846396484375,-0.0012217304902151227,0.0006108652451075613,-0.0006108652451075613
1782771745807671800,4.094671875,-0.0006108652451075613,0.0006108652451075613,0
1782771745817658400,4.104658447265625,0,0.0006108652451075613,-0.0006108652451075613
1782771745827660000,4.114659912109375,-0.001832595793530345,0,-0.0006108652451075613
1782771745837648000,4.12464794921875,-0.0006108652451075613,0,-0.0006108652451075613
1782771745847679700,4.1346796875,-0.0006108652451075613,0,-0.0006108652451075613
1782771745857636900,4.144636962890625,0,0.0006108652451075613,-0.0006108652451075613
1782771745867668700,4.154668701171875,-0.0012217304902151227,0.0006108652451075613,0.0006108652451075613
1782771745877656300,4.16465625,0,0.0006108652451075613,0
1782771745887657700,4.17465771484375,0,0.0006108652451075613,0
1782771745897645300,4.184645263671875,-0.0006108652451075613,0,-0.0012217304902151227
1782771745907677400,4.194677490234375,-0.0006108652451075613,0,-0.0006108652451075613
1782771745917634800,4.204634765625,-0.0006108652451075613,0.0006108652451075613,0.0006108652451075613
1782771745927666700,4.214666748046875,-0.0006108652451075613,0,0
1782771745937654500,4.224654541015625,0.0006108652451075613,0.0006108652451075613,0.0006108652451075613
1782771745947686100,4.23468603515625,-0.0012217304902151227,0.0006108652451075613,-0.0012217304902151227
1782771745957643500,4.2446435546875,0,0.0006108652451075613,-0.0012217304902151227
1782771745967675400,4.25467529296875,0,0.0006108652451075613,-0.0006108652451075613
1782771745977663000,4.2646630859375,0,0.0006108652451075613,0
1782771745987664400,4.274664306640625,0,0,-0.0006108652451075613
1782771745997652200,4.28465234375,-0.0012217304902151227,0,-0.0006108652451075613
1782771746007683800,4.294683837890625,-0.001832595793530345,0,-0.0012217304902151227
1782771746017641000,4.304640869140625,0,0.0006108652451075613,-0.0006108652451075613
1782771746027672800,4.3146728515625,-0.0012217304902151227,0.0006108652451075613,0
1782771746037660700,4.32466064453125,0,0.0006108652451075613,-0.0012217304902151227
1782771746047662000,4.334662109375,-0.0006108652451075613,0.0006108652451075613,0.0012217304902151227
1782771746057649700,4.344649658203125,0.0006108652451075613,0.0006108652451075613,-0.0006108652451075613
1782771746067681300,4.354681396484375,-0.0006108652451075613,0,0
1782771746077638700,4.364638671875,-0.0006108652451075613,-0.0006108652451075613,0
1782771746087670500,4.37467041015625,-0.0006108652451075613,0.0006108652451075613,-0.0006108652451075613
1782771746097657900,4.384657958984375,-0.0012217304902151227,0.0006108652451075613,0
1782771746107659500,4.394659423828125,-0.0006108652451075613,0.0006108652451075613,-0.0012217304902151227
1782771746117647000,4.404647216796875,-0.0006108652451075613,0.0006108652451075613,-0.0006108652451075613
1782771746127679200,4.41467919921875,-0.0006108652451075613,0.0006108652451075613,-0.0006108652451075613
1782771746137636000,4.424635986328125,-0.0006108652451075613,0,0
1782771746147636500,4.434636474609375,0,0.0012217304902151227,0
1782771746158755800,4.445755859375,-0.0006108652451075613,0,-0.0006108652451075613
1782771746177644800,4.464644775390625,0.0006108652451075613,0.0006108652451075613,-0.0006108652451075613
1782771746187676700,4.4746767578125,0,0,0
1782771746197664300,4.484664306640625,-0.0012217304902151227,0,-0.0006108652451075613
1782771746207665700,4.494665771484375,0,0.0012217304902151227,-0.0006108652451075613
1782771746217653200,4.5046533203125,-0.0012217304902151227,0.0012217304902151227,-0.0012217304902151227
1782771746227698700,4.51469873046875,0,0,-0.0006108652451075613
1782771746237642200,4.524642333984375,-0.0012217304902151227,0.0006108652451075613,-0.0012217304902151227
1782771746247668700,4.534668701171875,-0.0012217304902151227,-0.0006108652451075613,0
1782771746257662000,4.544661865234375,0,0.0006108652451075613,-0.0006108652451075613
1782771746267657500,4.554657470703125,-0.0006108652451075613,0,0
1782771746277651000,4.56465087890625,0,0,-0.0006108652451075613
1782771746287677400,4.574677490234375,-0.0006108652451075613,0.0006108652451075613,0
1782771746297639700,4.5846396484375,0,0.0006108652451075613,-0.0012217304902151227
1782771746307666400,4.59466650390625,0,0,-0.0006108652451075613
1782771746317659100,4.6046591796875,-0.0006108652451075613,0.0006108652451075613,0
1782771746327660800,4.614660888671875,0,0.0006108652451075613,0
1782771746337648400,4.6246484375,0,0,0
1782771746347680300,4.63468017578125,-0.0006108652451075613,0.0006108652451075613,-0.0006108652451075613
1782771746357660400,4.644660400390625,0,0.0006108652451075613,-0.0012217304902151227
1782771746367669200,4.654669189453125,-0.0006108652451075613,0,-0.0006108652451075613
1782771746377656800,4.66465673828125,-0.0006108652451075613,0.0012217304902151227,-0.0006108652451075613
1782771746387658200,4.674658203125,-0.0006108652451075613,0,-0.0012217304902151227
1782771746397646000,4.68464599609375,-0.0006108652451075613,-0.0006108652451075613,0
1782771746407677700,4.694677734375,-0.0012217304902151227,0.0006108652451075613,0.0006108652451075613
1782771746417634800,4.704634765625,-0.001832595793530345,0.0006108652451075613,0.0006108652451075613
1782771746427666000,4.714666015625,-0.0012217304902151227,0.0012217304902151227,0
1782771746437654500,4.724654541015625,-0.0006108652451075613,0.0006108652451075613,-0.0006108652451075613
1782771746447686100,4.73468603515625,-0.0006108652451075613,0,-0.0006108652451075613
1782771746457643500,4.7446435546875,0,0,-0.0006108652451075613
1782771746467675100,4.754675048828125,0,0.0012217304902151227,-0.0012217304902151227
1782771746477623000,4.764623046875,0,0.0012217304902151227,0
1782771746487755800,4.774755859375,0,0,-0.0006108652451075613
1782771746497612000,4.784612060546875,-0.001832595793530345,0.0006108652451075613,-0.0006108652451075613
1782771746507713300,4.79471337890625,0,0,0.0006108652451075613
1782771746518881000,4.805881103515625,0,0.0006108652451075613,0.0006108652451075613
1782771746537660700,4.82466064453125,-0.0006108652451075613,-0.0006108652451075613,-0.0006108652451075613
1782771746547661600,4.83466162109375,-0.0012217304902151227,0,-0.0006108652451075613
1782771746557649700,4.844649658203125,0,0,0
1782771746567681500,4.854681640625,0,0,0
1782771746577638700,4.864638671875,-0.0006108652451075613,0.0006108652451075613,0
1782771746587670500,4.87467041015625,-0.0006108652451075613,0,0.0006108652451075613
1782771746597658000,4.884658203125,0,0.0006108652451075613,-0.0006108652451075613
1782771746607659500,4.894659423828125,0,0.0012217304902151227,-0.0006108652451075613
1782771746617647000,4.904647216796875,-0.0006108652451075613,0,0
1782771746627679200,4.91467919921875,-0.0006108652451075613,0.0006108652451075613,0
1782771746637636000,4.924635986328125,-0.0006108652451075613,0,0
1782771746647668000,4.93466796875,0,0.0006108652451075613,-0.0006108652451075613
1782771746657655800,4.94465576171875,-0.0006108652451075613,0.0006108652451075613,0.0006108652451075613
1782771746667656400,4.954656494140625,-0.0006108652451075613,0.0012217304902151227,0.0006108652451075613
1782771746677644800,4.964644775390625,-0.0012217304902151227,0,-0.0012217304902151227
1782771746687676700,4.9746767578125,-0.0006108652451075613,0.0006108652451075613,0
1782771746697664300,4.984664306640625,-0.0012217304902151227,0,-0.0006108652451075613
1782771746707665700,4.994665771484375,-0.0006108652451075613,0.0006108652451075613,0
1782771746717653200,5.0046533203125,-0.0006108652451075613,0.0006108652451075613,-0.0006108652451075613
1782771746727685000,5.01468505859375,-0.0006108652451075613,0,0
1782771746737642200,5.024642333984375,0,0.0006108652451075613,0
1782771746747642600,5.034642578125,0,-0.0006108652451075613,0
1782771746758731500,5.0457314453125,0.0006108652451075613,0.0006108652451075613,-0.0006108652451075613
1782771746777650700,5.064650634765625,0,0.0006108652451075613,0
1782771746787682600,5.0746826171875,-0.0006108652451075613,0.0006108652451075613,-0.0006108652451075613
1782771746797639700,5.0846396484375,-0.0006108652451075613,0,-0.0006108652451075613
1782771746807671800,5.094671875,-0.0006108652451075613,0,0
1782771746817658400,5.104658447265625,0,0,-0.0006108652451075613
1782771746827660000,5.114659912109375,-0.0006108652451075613,0.0012217304902151227,0
1782771746837648000,5.12464794921875,-0.0006108652451075613,0.0006108652451075613,-0.0006108652451075613
1782771746847679700,5.1346796875,-0.0012217304902151227,0,0.0006108652451075613
1782771746857636600,5.14463671875,-0.0006108652451075613,0,-0.0012217304902151227
1782771746867668700,5.154668701171875,0,0,-0.0006108652451075613
1782771746877656300,5.16465625,-0.0006108652451075613,0.0006108652451075613,0.0006108652451075613
1782771746887657000,5.174656982421875,-0.0006108652451075613,0.0006108652451075613,-0.0006108652451075613
1782771746897645600,5.1846455078125,0,0.0012217304902151227,0
1782771746907677000,5.194677001953125,-0.0006108652451075613,0.0012217304902151227,-0.0006108652451075613
1782771746917595000,5.204594970703125,-0.0006108652451075613,0.0006108652451075613,-0.0006108652451075613
1782771746927758600,5.214758544921875,0,0.0012217304902151227,-0.0006108652451075613
1782771746937654500,5.224654541015625,-0.0006108652451075613,0.0012217304902151227,-0.0006108652451075613
1782771746947686100,5.23468603515625,-0.0006108652451075613,0.0006108652451075613,0
1782771746957643500,5.2446435546875,-0.0012217304902151227,0,0
1782771746967675100,5.254675048828125,0,0.0006108652451075613,0
1782771746977663200,5.264663330078125,-0.0012217304902151227,0,-0.0012217304902151227
1782771746987664400,5.274664306640625,0.0006108652451075613,0.0006108652451075613,-0.0006108652451075613
1782771746997652000,5.28465185546875,-0.0006108652451075613,0.0006108652451075613,0
1782771747007683800,5.294683837890625,-0.0012217304902151227,0,0
1782771747017641000,5.304640869140625,-0.0006108652451075613,0.0006108652451075613,-0.0006108652451075613
1782771747027672800,5.3146728515625,-0.0006108652451075613,0.0006108652451075613,-0.0006108652451075613
1782771747037660400,5.324660400390625,0,0.0006108652451075613,0
1782771747047662000,5.334662109375,0,0.0006108652451075613,0
1782771747057649700,5.344649658203125,-0.0006108652451075613,-0.0006108652451075613,-0.0006108652451075613
1782771747067681300,5.354681396484375,-0.0012217304902151227,0,0
1782771747077639000,5.364638916015625,-0.0006108652451075613,0.0012217304902151227,-0.0012217304902151227
1782771747087670300,5.374670166015625,-0.0012217304902151227,0,-0.0006108652451075613
1782771747097658000,5.384658203125,-0.0006108652451075613,0,0.0006108652451075613
1782771747107659500,5.394659423828125,-0.0006108652451075613,0.0006108652451075613,0.0006108652451075613
1782771747117647000,5.404647216796875,-0.0012217304902151227,0.0006108652451075613,0
1782771747127679000,5.414678955078125,-0.0006108652451075613,0,-0.0006108652451075613
1782771747137636000,5.424635986328125,-0.0006108652451075613,0.0006108652451075613,-0.0012217304902151227
1782771747147668000,5.43466796875,0,0.0006108652451075613,0
1782771747157655800,5.44465576171875,-0.0006108652451075613,0.0006108652451075613,0.0006108652451075613
1782771747167657000,5.454656982421875,0,0,-0.0012217304902151227
1782771747177644500,5.46464453125,-0.0012217304902151227,0.0006108652451075613,0
1782771747187676400,5.474676513671875,-0.0012217304902151227,0,0.0006108652451075613
1782771747197664000,5.4846640625,0,0,-0.0006108652451075613
1782771747207665700,5.494665771484375,-0.0006108652451075613,0,0
1782771747217653200,5.5046533203125,0,0.0006108652451075613,-0.0006108652451075613
1782771747227685000,5.51468505859375,-0.001832595793530345,0,0
1782771747237642200,5.524642333984375,-0.0006108652451075613,0.0006108652451075613,0
1782771747247674000,5.534674072265625,0,0,-0.0006108652451075613
1782771747257662000,5.544661865234375,-0.0006108652451075613,0.0006108652451075613,-0.0012217304902151227
1782771747267663000,5.5546630859375,-0.001832595793530345,0,-0.0006108652451075613
1782771747277650700,5.564650634765625,-0.0006108652451075613,0.0006108652451075613,0.0006108652451075613
1782771747287682600,5.5746826171875,-0.0012217304902151227,0.0006108652451075613,0
1782771747297639700,5.5846396484375,0,0,-0.0012217304902151227
1782771747307685400,5.594685302734375,0,0.0006108652451075613,0
1782771747317659400,5.604659423828125,-0.0012217304902151227,0,0.0006108652451075613
1782771747327655400,5.614655517578125,-0.0006108652451075613,0.0006108652451075613,0
1782771747337648400,5.6246484375,-0.0012217304902151227,0,-0.0006108652451075613
1782771747347675000,5.6346748046875,0,-0.0006108652451075613,-0.0006108652451075613
1782771747357637400,5.644637451171875,0,0,-0.0012217304902151227
1782771747367664000,5.6546640625,-0.0006108652451075613,0,0.0006108652451075613
1782771747377656800,5.66465673828125,0,-0.0006108652451075613,0
1782771747387653000,5.674653076171875,0,0.0006108652451075613,-0.0006108652451075613
1782771747397646000,5.68464599609375,-0.0006108652451075613,0.0006108652451075613,0
1782771747407678000,5.694677978515625,-0.0006108652451075613,-0.0006108652451075613,0
1782771747417634800,5.704634765625,-0.0012217304902151227,-0.001832595793530345,-0.001832595793530345
1782771747427666700,5.714666748046875,-0.0006108652451075613,0,-0.0006108652451075613
1782771747437654500,5.724654541015625,-0.0012217304902151227,-0.0006108652451075613,-0.0006108652451075613
1782771747447686100,5.73468603515625,-0.0012217304902151227,0.0006108652451075613,-0.0006108652451075613
1782771747457643500,5.7446435546875,0.0006108652451075613,0.0006108652451075613,-0.0006108652451075613
1782771747467675400,5.75467529296875,-0.0012217304902151227,0.0006108652451075613,0.0006108652451075613
1782771747477663200,5.764663330078125,0,0.0006108652451075613,0
1782771747487664400,5.774664306640625,0,0.0006108652451075613,-0.0012217304902151227
1782771747497652000,5.78465185546875,0,0,0
1782771747507684000,5.79468408203125,-0.0012217304902151227,0.0006108652451075613,-0.0006108652451075613
1782771747517641000,5.804640869140625,-0.0006108652451075613,0,-0.0006108652451075613
1782771747527672300,5.81467236328125,-0.0006108652451075613,0,0
1782771747537660400,5.824660400390625,0,0.0006108652451075613,-0.0006108652451075613
1782771747547661800,5.834661865234375,0,0.0006108652451075613,-0.0006108652451075613
1782771747557649700,5.844649658203125,-0.0006108652451075613,0.0006108652451075613,0.0006108652451075613
1782771747567680800,5.8546806640625,-0.0012217304902151227,0.0006108652451075613,-0.0006108652451075613
1782771747577638700,5.864638671875,-0.0006108652451075613,0,0.0006108652451075613
1782771747587670300,5.874670166015625,0,0.0006108652451075613,-0.0012217304902151227
1782771747597658000,5.884658203125,-0.0006108652451075613,0,-0.0006108652451075613
1782771747607659500,5.894659423828125,-0.0006108652451075613,0,-0.0006108652451075613
1782771747617647000,5.904647216796875,-0.0006108652451075613,0.0006108652451075613,0.0006108652451075613
1782771747627678200,5.91467822265625,-0.0012217304902151227,0.0006108652451075613,-0.0012217304902151227
1782771747637636400,5.92463623046875,0,0,0
1782771747647667500,5.93466748046875,0,-0.0006108652451075613,-0.0012217304902151227
1782771747657655800,5.94465576171875,-0.0012217304902151227,0.0012217304902151227,-0.0006108652451075613
1782771747667657000,5.954656982421875,0,0,0.0006108652451075613
1782771747677644800,5.964644775390625,0,0.0006108652451075613,-0.0006108652451075613
1782771747687676700,5.9746767578125,-0.0006108652451075613,0,-0.0006108652451075613
1782771747697664300,5.984664306640625,-0.0006108652451075613,-0.0006108652451075613,-0.0006108652451075613
1782771747707665700,5.994665771484375,-0.0006108652451075613,0,0
1782771747717653200,6.0046533203125,0,0.0006108652451075613,-0.0012217304902151227
1782771747727685000,6.01468505859375,-0.0006108652451075613,0.0006108652451075613,0
1782771747737642200,6.024642333984375,-0.001832595793530345,0.0006108652451075613,-0.0006108652451075613
1782771747747674000,6.034674072265625,0,0,-0.0006108652451075613
1782771747757662000,6.044661865234375,0.0006108652451075613,-0.0006108652451075613,0
1782771747767663000,6.0546630859375,-0.0012217304902151227,0.0006108652451075613,-0.0006108652451075613
1782771747777651000,6.06465087890625,-0.0006108652451075613,0.0006108652451075613,-0.0006108652451075613
1782771747787682800,6.074682861328125,-0.0006108652451075613,0.0006108652451075613,0
1782771747797640000,6.084639892578125,-0.0006108652451075613,0,-0.0006108652451075613
1782771747807671800,6.094671875,-0.0006108652451075613,0,-0.0006108652451075613
1782771747817658400,6.104658447265625,0,0.0006108652451075613,-0.0006108652451075613
1782771747827660300,6.114660400390625,0,0,-0.0006108652451075613
1782771747837648000,6.12464794921875,-0.0012217304902151227,0.0006108652451075613,0
1782771747847679700,6.1346796875,-0.0012217304902151227,0.0006108652451075613,0
1782771747857636900,6.144636962890625,-0.001832595793530345,0.0006108652451075613,-0.0006108652451075613
1782771747867668700,6.154668701171875,-0.0006108652451075613,0,-0.0012217304902151227
1782771747877656300,6.16465625,0,0.0006108652451075613,-0.0006108652451075613
1782771747887658000,6.174657958984375,0,0.0006108652451075613,0.0006108652451075613
1782771747897645300,6.184645263671875,0,0.0006108652451075613,0
1782771747907677200,6.19467724609375,0,0,-0.0006108652451075613
1782771747917634800,6.204634765625,-0.0006108652451075613,0,0.0006108652451075613
1782771747927666700,6.214666748046875,-0.0006108652451075613,0.0006108652451075613,-0.0012217304902151227
1782771747937654500,6.224654541015625,0,0.0006108652451075613,-0.0006108652451075613
1782771747947686400,6.234686279296875,0.0006108652451075613,0,0.0006108652451075613
1782771747957643500,6.2446435546875,-0.0006108652451075613,0.0006108652451075613,-0.0012217304902151227
1782771747967675100,6.254675048828125,-0.0012217304902151227,0.0006108652451075613,0.0006108652451075613
1782771747977663200,6.264663330078125,-0.0012217304902151227,0.0006108652451075613,-0.0006108652451075613
1782771747987664400,6.274664306640625,0,-0.0006108652451075613,-0.0006108652451075613
1782771747997652000,6.28465185546875,-0.0006108652451075613,0.0012217304902151227,0
1782771748007683800,6.294683837890625,-0.0006108652451075613,0,0
1782771748017641000,6.304640869140625,-0.0012217304902151227,0.0006108652451075613,0
1782771748027672800,6.3146728515625,0,0,-0.0012217304902151227
1782771748037660700,6.32466064453125,0,0.0006108652451075613,-0.0006108652451075613
1782771748047661300,6.334661376953125,-0.0012217304902151227,0.0006108652451075613,-0.0006108652451075613
1782771748057649700,6.344649658203125,-0.0006108652451075613,0.0006108652451075613,0.0006108652451075613
1782771748067681300,6.354681396484375,0,0,-0.0006108652451075613
1782771748077638700,6.364638671875,-0.0006108652451075613,-0.0006108652451075613,-0.0006108652451075613
1782771748087670500,6.37467041015625,-0.0006108652451075613,0.0006108652451075613,0
1782771748097658000,6.384658203125,0.0006108652451075613,0,-0.0006108652451075613
1782771748107659500,6.394659423828125,-0.0012217304902151227,0.0006108652451075613,-0.0006108652451075613
1782771748117647000,6.404647216796875,-0.0006108652451075613,0.0006108652451075613,-0.0012217304902151227
1782771748127679200,6.41467919921875,-0.0006108652451075613,0.0012217304902151227,0
1782771748137636000,6.424635986328125,-0.0006108652451075613,0.0006108652451075613,0.0012217304902151227
1782771748147668000,6.43466796875,0,0,0.0006108652451075613
1782771748157655800,6.44465576171875,0,0,-0.0006108652451075613
1782771748167657000,6.454656982421875,-0.0006108652451075613,-0.0012217304902151227,0.0012217304902151227
1782771748177644500,6.46464453125,0,0.0006108652451075613,-0.0006108652451075613
1782771748187676700,6.4746767578125,0.0006108652451075613,0.0006108652451075613,-0.0006108652451075613
1782771748197664300,6.484664306640625,0,0.0006108652451075613,-0.0006108652451075613
1782771748207665700,6.494665771484375,-0.0006108652451075613,0,0
1782771748217653200,6.5046533203125,-0.0012217304902151227,0.0006108652451075613,0
1782771748227653600,6.514653564453125,-0.0006108652451075613,0.0012217304902151227,-0.0006108652451075613
1782771748238773800,6.525773681640625,-0.0012217304902151227,0.0006108652451075613,0
1782771748257723000,6.544722900390625,-0.0012217304902151227,0.0006108652451075613,-0.0006108652451075613
1782771748267662800,6.554662841796875,-0.0006108652451075613,0,0
1782771748277651000,6.56465087890625,-0.0006108652451075613,0.001832595793530345,0.0006108652451075613
1782771748287682600,6.5746826171875,0,0.0006108652451075613,0
1782771748297640000,6.584639892578125,-0.0012217304902151227,0.0006108652451075613,0
1782771748307671800,6.594671875,-0.0006108652451075613,0.0006108652451075613,0
1782771748317659100,6.6046591796875,-0.0006108652451075613,0.0006108652451075613,-0.0006108652451075613
1782771748327660300,6.614660400390625,-0.0012217304902151227,0.0006108652451075613,0
1782771748337648400,6.6246484375,0,0.0006108652451075613,-0.0012217304902151227
1782771748347679500,6.634679443359375,-0.0006108652451075613,0.0006108652451075613,0
1782771748357660400,6.644660400390625,0,0,-0.0006108652451075613
1782771748367669200,6.654669189453125,-0.0006108652451075613,0.0006108652451075613,0.0006108652451075613
1782771748377657000,6.664656982421875,-0.0006108652451075613,0.0006108652451075613,-0.0006108652451075613
1782771748387672000,6.674672119140625,-0.0012217304902151227,0,0
1782771748397646000,6.68464599609375,0,0,-0.0012217304902151227
1782771748407672600,6.694672607421875,-0.0012217304902151227,0,0
1782771748417634800,6.704634765625,-0.0006108652451075613,0.0006108652451075613,-0.0006108652451075613
1782771748427661600,6.71466162109375,-0.0006108652451075613,0,0.0006108652451075613
1782771748437654500,6.724654541015625,0,0.0012217304902151227,0
1782771748447681000,6.734680908203125,-0.0006108652451075613,0.0006108652451075613,-0.0006108652451075613
1782771748457643500,6.7446435546875,-0.0006108652451075613,0.0006108652451075613,0
1782771748467670300,6.754670166015625,-0.0006108652451075613,0,-0.0006108652451075613
1782771748477663200,6.764663330078125,-0.0012217304902151227,0.0006108652451075613,0
1782771748487664400,6.774664306640625,0,0.0006108652451075613,0.0006108652451075613
1782771748497652000,6.78465185546875,-0.0012217304902151227,0.0006108652451075613,0
1782771748507683800,6.794683837890625,-0.0012217304902151227,0,-0.0006108652451075613
1782771748517641000,6.804640869140625,-0.0006108652451075613,0.0006108652451075613,-0.0006108652451075613
1782771748527673000,6.814673095703125,-0.0006108652451075613,0,0
1782771748537620700,6.824620849609375,-0.0006108652451075613,0,-0.0006108652451075613
1782771748547722000,6.834721923828125,-0.0006108652451075613,0.0006108652451075613,-0.0006108652451075613
1782771748558901800,6.84590185546875,-0.0006108652451075613,0.0006108652451075613,-0.0006108652451075613
1782771748577638700,6.864638671875,-0.0012217304902151227,0.0006108652451075613,0
1782771748587670500,6.87467041015625,0,0.0006108652451075613,-0.0006108652451075613
1782771748597658000,6.884658203125,0,0.0012217304902151227,0
1782771748607659500,6.894659423828125,-0.0006108652451075613,0.0012217304902151227,0
1782771748617647000,6.904647216796875,-0.001832595793530345,0.0006108652451075613,0
1782771748627679000,6.914678955078125,-0.0012217304902151227,0.0012217304902151227,0
1782771748637636400,6.92463623046875,-0.0006108652451075613,0.0006108652451075613,0
1782771748647668000,6.93466796875,-0.0006108652451075613,0.0006108652451075613,-0.0012217304902151227
1782771748657655800,6.94465576171875,-0.0006108652451075613,0.0006108652451075613,-0.0006108652451075613
1782771748667657000,6.954656982421875,-0.0006108652451075613,0.0006108652451075613,-0.0006108652451075613
1782771748677644800,6.964644775390625,0,0.0006108652451075613,0.0006108652451075613
1782771748687676400,6.974676513671875,0,0,-0.0006108652451075613
1782771748697664300,6.984664306640625,0,0,0
1782771748707665700,6.994665771484375,0,0.0012217304902151227,0
1782771748717653200,7.0046533203125,0,0.0006108652451075613,0
1782771748727685000,7.01468505859375,-0.0012217304902151227,0.0006108652451075613,0.0006108652451075613
1782771748737642200,7.024642333984375,-0.001832595793530345,0.19425514340400696,0.10201449692249298
1782771748747673900,7.034673828125,-0.003054326167330146,-0.006108652334660292,-0.006108652334660292
1782771748757662000,7.044661865234375,0,-0.00855211354792118,-0.00733038317412138
1782771748767662800,7.054662841796875,-0.0006108652451075613,-0.009773843921720982,-0.00733038317412138
1782771748777651000,7.06465087890625,0,-0.015271631069481373,-0.010995574295520782
1782771748787682300,7.074682373046875,0.0012217304902151227,-0.021991148591041565,-0.012828170321881771
1782771748797640000,7.084639892578125,0,-0.036041051149368286,-0.019547687843441963
1782771748807671600,7.094671630859375,0,-0.031154127791523933,-0.015882495790719986
1782771748817658400,7.104658447265625,0.0006108652451075613,0.0012217304902151227,0.0006108652451075613
