time,seconds_elapsed,z,y,x
1782771619793166300,0.201166259765625,0,-0.0006108652451075613,-0.001832595793530345
1782771619803743000,0.211742919921875,0,-0.0006108652451075613,-0.001832595793530345
1782771619813736000,0.22173583984375,0,-0.0006108652451075613,-0.001832595793530345
1782771619823761400,0.231761474609375,0,-0.0006108652451075613,-0.001832595793530345
1782771619833724200,0.24172412109375,-0.0006108652451075613,0.0006108652451075613,-0.0012217304902151227
1782771619843750400,0.25175048828125,-0.0006108652451075613,0.0012217304902151227,-0.0006108652451075613
1782771619853743900,0.261743896484375,0.001832595793530345,0.0006108652451075613,-0.0012217304902151227
1782771619863739400,0.271739501953125,0.0006108652451075613,0.0012217304902151227,0
1782771619873733000,0.281733154296875,0.0006108652451075613,0.0006108652451075613,0
1782771619883764700,0.2917646484375,-0.0006108652451075613,0,-0.0006108652451075613
1782771619893721900,0.301721923828125,-0.0012217304902151227,0,0.0006108652451075613
1782771619903753700,0.311753662109375,0,0,0.0006108652451075613
1782771619913741300,0.3217412109375,-0.0006108652451075613,0.0006108652451075613,0.0006108652451075613
1782771619923743000,0.331742919921875,-0.0006108652451075613,0,0
1782771619933730800,0.341730712890625,0,0.0006108652451075613,0
1782771619943762700,0.3517626953125,-0.0012217304902151227,0.0006108652451075613,0
1782771619953720000,0.361719970703125,-0.0006108652451075613,0.0006108652451075613,-0.0006108652451075613
1782771619963752000,0.371751953125,-0.0006108652451075613,0,-0.0006108652451075613
1782771619973739500,0.381739501953125,-0.0006108652451075613,0,0
1782771619983740700,0.39174072265625,0,0.0006108652451075613,0
1782771619993728500,0.401728515625,0,0,-0.0006108652451075613
1782771620003760000,0.411760009765625,0,0,0
1782771620013717500,0.421717529296875,-0.0006108652451075613,0.0006108652451075613,-0.0006108652451075613
1782771620023749600,0.43174951171875,-0.0006108652451075613,0.0006108652451075613,0
1782771620033737000,0.441737060546875,-0.0006108652451075613,0.0006108652451075613,-0.0006108652451075613
1782771620043738600,0.451738525390625,0,0.0012217304902151227,0
1782771620053726000,0.461725830078125,0,0.0012217304902151227,0
1782771620063757800,0.4717578125,-0.0006108652451075613,0,0
1782771620073745400,0.481745361328125,-0.0012217304902151227,0.0006108652451075613,0
1782771620083746800,0.491746826171875,-0.0006108652451075613,0.0006108652451075613,0
1782771620093734700,0.501734619140625,-0.0006108652451075613,0.0006108652451075613,0
1782771620103766300,0.511766357421875,-0.0006108652451075613,0.0006108652451075613,-0.0006108652451075613
1782771620113724000,0.521723876953125,-0.0006108652451075613,0.0006108652451075613,-0.0006108652451075613
1782771620123755500,0.531755615234375,-0.0006108652451075613,0.0006108652451075613,0
1782771620133743400,0.541743408203125,-0.0012217304902151227,0.0012217304902151227,-0.0006108652451075613
1782771620143744500,0.55174462890625,-0.0006108652451075613,0.0006108652451075613,-0.0006108652451075613
1782771620153732000,0.561732177734375,-0.0006108652451075613,0,-0.0006108652451075613
1782771620163764000,0.571763916015625,-0.0006108652451075613,-0.0012217304902151227,0
1782771620173721000,0.58172119140625,-0.0006108652451075613,0,0
1782771620183753000,0.5917529296875,0,0.0006108652451075613,-0.0006108652451075613
1782771620193740800,0.60174072265625,-0.001832595793530345,0,0.0006108652451075613
1782771620203741700,0.61174169921875,-0.0006108652451075613,0,0.0006108652451075613
1782771620213729500,0.6217294921875,-0.0012217304902151227,0.0006108652451075613,0.0006108652451075613
1782771620223761700,0.63176171875,0.0006108652451075613,0.0006108652451075613,0.0006108652451075613
1782771620233718500,0.641718505859375,0.0006108652451075613,0.0006108652451075613,0
1782771620243750700,0.651750732421875,-0.0012217304902151227,0.0006108652451075613,0
1782771620253738200,0.66173828125,-0.0006108652451075613,0.0006108652451075613,0.0006108652451075613
1782771620263739600,0.67173974609375,-0.0006108652451075613,0.0006108652451075613,-0.0006108652451075613
1782771620273727200,0.681727294921875,-0.0006108652451075613,0.0006108652451075613,-0.0006108652451075613
1782771620283759000,0.691759033203125,0,0.0006108652451075613,0
1782771620293716200,0.70171630859375,0,0,-0.0006108652451075613
1782771620303748000,0.711748046875,0,0.0006108652451075613,-0.0006108652451075613
1782771620313735700,0.721735595703125,-0.0006108652451075613,0.0012217304902151227,0.0006108652451075613
1782771620323767600,0.731767578125,0,0.0006108652451075613,-0.0006108652451075613
1782771620333724700,0.741724609375,0,0,-0.001832595793530345
1782771620343756800,0.7517568359375,-0.0006108652451075613,0,0.0006108652451075613
1782771620353744400,0.761744384765625,-0.0006108652451075613,0.0012217304902151227,0
1782771620363745500,0.77174560546875,-0.0006108652451075613,0,0.0012217304902151227
1782771620373733400,0.7817333984375,-0.0006108652451075613,0,0
1782771620383765200,0.79176513671875,0,0.0006108652451075613,-0.0006108652451075613
1782771620393722400,0.801722412109375,-0.0006108652451075613,0.0012217304902151227,0.0006108652451075613
1782771620403754000,0.81175390625,0.0006108652451075613,0.0006108652451075613,0.0012217304902151227
1782771620413741800,0.821741943359375,-0.0006108652451075613,0.0006108652451075613,0
1782771620423742700,0.83174267578125,0,0.0006108652451075613,0
1782771620433730800,0.841730712890625,-0.0006108652451075613,0.0006108652451075613,-0.0012217304902151227
1782771620443763000,0.851762939453125,-0.0006108652451075613,0.0006108652451075613,0
1782771620453719800,0.8617197265625,-0.0006108652451075613,0,0.0006108652451075613
1782771620463751700,0.871751708984375,-0.0006108652451075613,0,0.0006108652451075613
1782771620473739500,0.881739501953125,-0.0006108652451075613,0,0
1782771620483740700,0.89174072265625,-0.0006108652451075613,0.0006108652451075613,0
1782771620493728500,0.901728515625,-0.0006108652451075613,0.0006108652451075613,-0.0006108652451075613
1782771620503760400,0.911760498046875,0.0006108652451075613,0,-0.0006108652451075613
1782771620513717800,0.9217177734375,-0.0006108652451075613,0.0006108652451075613,0
1782771620523749400,0.931749267578125,-0.0012217304902151227,0,0.0006108652451075613
1782771620533737000,0.941737060546875,-0.001832595793530345,-0.0006108652451075613,0
1782771620543738000,0.951738037109375,0.0006108652451075613,0,-0.0006108652451075613
1782771620553726000,0.961725830078125,-0.0006108652451075613,0,0.0012217304902151227
1782771620563757800,0.9717578125,-0.0006108652451075613,-0.0006108652451075613,-0.0006108652451075613
1782771620573745700,0.98174560546875,-0.0006108652451075613,0.0006108652451075613,0
1782771620583746800,0.991746826171875,0,0.0006108652451075613,0.0012217304902151227
1782771620593734700,1.001734619140625,0,0.0006108652451075613,0
1782771620603765800,1.011765869140625,-0.0012217304902151227,0,0
1782771620613723600,1.0217236328125,-0.0006108652451075613,0.0006108652451075613,0.0006108652451075613
1782771620623755500,1.031755615234375,-0.0006108652451075613,0.0006108652451075613,-0.0006108652451075613
1782771620633743000,1.0417431640625,-0.0006108652451075613,-0.0006108652451075613,0
1782771620643744500,1.05174462890625,0,0,0
1782771620653732000,1.061732177734375,-0.0006108652451075613,0,0
1782771620663764200,1.07176416015625,0,0.0006108652451075613,-0.0006108652451075613
1782771620673721300,1.081721435546875,0.0006108652451075613,0,0
1782771620683752400,1.09175244140625,0,0,0
1782771620693740800,1.10174072265625,-0.0006108652451075613,-0.0006108652451075613,0.0006108652451075613
1782771620703742000,1.111741943359375,0,0.0006108652451075613,0.0006108652451075613
1782771620713729500,1.1217294921875,-0.0012217304902151227,0.0006108652451075613,0.0006108652451075613
1782771620723761400,1.131761474609375,-0.0012217304902151227,-0.0006108652451075613,0
1782771620733718500,1.141718505859375,-0.0006108652451075613,0.0006108652451075613,-0.0012217304902151227
1782771620743750700,1.151750732421875,-0.0006108652451075613,0,0
1782771620753738200,1.16173828125,-0.0006108652451075613,0,0
1782771620763739600,1.17173974609375,-0.0012217304902151227,0,0.0006108652451075613
1782771620773727200,1.181727294921875,-0.0006108652451075613,0.0012217304902151227,-0.0006108652451075613
1782771620783758800,1.1917587890625,0,0.0006108652451075613,0.0006108652451075613
1782771620793716200,1.20171630859375,-0.0006108652451075613,0,0.0006108652451075613
1782771620803748000,1.211748046875,-0.0012217304902151227,0.0006108652451075613,0.0006108652451075613
1782771620813736000,1.22173583984375,0.0006108652451075613,0,0.0006108652451075613
1782771620823766500,1.2317666015625,0,0.0006108652451075613,-0.0006108652451075613
1782771620833724400,1.241724365234375,0.0006108652451075613,-0.0006108652451075613,-0.0006108652451075613
1782771620843756000,1.251756103515625,0,0,0
1782771620853743900,1.261743896484375,-0.0006108652451075613,0,-0.0012217304902151227
1782771620863758800,1.2717587890625,0.0006108652451075613,0.0012217304902151227,0
1782771620873732900,1.28173291015625,-0.0012217304902151227,0,0.0006108652451075613
1782771620883759400,1.29175927734375,0,0.0006108652451075613,0
1782771620893721900,1.301721923828125,-0.0012217304902151227,0,0.0006108652451075613
1782771620903748400,1.311748291015625,0,0.0006108652451075613,0
1782771620913741300,1.3217412109375,-0.0006108652451075613,0.0006108652451075613,0
1782771620923738000,1.331738037109375,-0.0006108652451075613,0,0
1782771620933730800,1.341730712890625,-0.0006108652451075613,0,-0.0006108652451075613
1782771620943757600,1.351757568359375,0,-0.0006108652451075613,0
1782771620953719800,1.3617197265625,0,0,0
1782771620963751700,1.371751708984375,-0.0006108652451075613,0,-0.0006108652451075613
1782771620973739500,1.381739501953125,-0.0006108652451075613,0,-0.0006108652451075613
1782771620983740700,1.39174072265625,0.0006108652451075613,0.0006108652451075613,-0.0006108652451075613
1782771620993728500,1.401728515625,-0.0012217304902151227,0,0
1782771621003759600,1.411759521484375,-0.0012217304902151227,0.0006108652451075613,-0.0006108652451075613
1782771621013717500,1.421717529296875,0,0.0006108652451075613,0
1782771621023749400,1.431749267578125,-0.0006108652451075613,0.0006108652451075613,-0.0006108652451075613
1782771621033737000,1.441737060546875,0.0012217304902151227,0.0012217304902151227,0
1782771621043738400,1.45173828125,0,0.0006108652451075613,0.0006108652451075613
1782771621053726000,1.461725830078125,0,0.0006108652451075613,-0.0006108652451075613
1782771621063758000,1.471758056640625,-0.0006108652451075613,0,0
1782771621073745700,1.48174560546875,0,0.0006108652451075613,0.0012217304902151227
1782771621083746800,1.491746826171875,0,0,0
1782771621093734700,1.501734619140625,-0.0006108652451075613,0.0006108652451075613,0
1782771621103766500,1.5117666015625,0.0006108652451075613,0.0012217304902151227,-0.0006108652451075613
1782771621113723600,1.5217236328125,-0.0006108652451075613,0,0
1782771621123755500,1.531755615234375,0,0.0012217304902151227,-0.0006108652451075613
1782771621133743000,1.5417431640625,0,0.0006108652451075613,0
1782771621143744500,1.55174462890625,0,0,-0.0006108652451075613
1782771621153732000,1.561732177734375,-0.0006108652451075613,0,0
1782771621163764200,1.57176416015625,0,0,-0.0006108652451075613
1782771621173721000,1.58172119140625,-0.0012217304902151227,0.0006108652451075613,-0.0006108652451075613
1782771621183753000,1.5917529296875,0,0.0006108652451075613,-0.0006108652451075613
1782771621193740800,1.60174072265625,0.0006108652451075613,0.0012217304902151227,-0.0006108652451075613
1782771621203741700,1.61174169921875,-0.0006108652451075613,0,0
1782771621213729500,1.6217294921875,-0.0006108652451075613,0.001832595793530345,0
1782771621223761700,1.63176171875,0,0.0006108652451075613,0.0012217304902151227
1782771621233718500,1.641718505859375,0,0,0
1782771621243750400,1.65175048828125,0,0.0006108652451075613,0.0006108652451075613
1782771621253738200,1.66173828125,0,0,0
1782771621263739600,1.67173974609375,0.0006108652451075613,0.0006108652451075613,0.0012217304902151227
1782771621273727200,1.681727294921875,0,0,0
1782771621283759000,1.691759033203125,-0.0006108652451075613,0.0012217304902151227,0
1782771621293716200,1.70171630859375,0,0,0
1782771621303748000,1.711748046875,0,0,-0.0012217304902151227
1782771621313736000,1.72173583984375,-0.0006108652451075613,0,0.0006108652451075613
1782771621323767600,1.731767578125,0,0.0006108652451075613,0
1782771621333724700,1.741724609375,0.0006108652451075613,0,0.0006108652451075613
1782771621343756800,1.7517568359375,-0.0012217304902151227,0.0006108652451075613,0
1782771621353744400,1.761744384765625,-0.0012217304902151227,0.0006108652451075613,-0.0006108652451075613
1782771621363745500,1.77174560546875,0,0.0006108652451075613,0
1782771621373733400,1.7817333984375,0,0.0006108652451075613,0
1782771621383765000,1.791764892578125,-0.0006108652451075613,0,0.0006108652451075613
1782771621393722400,1.801722412109375,0,0.0006108652451075613,0
1782771621403754200,1.811754150390625,0.0006108652451075613,0.0006108652451075613,0
1782771621413741800,1.821741943359375,-0.0012217304902151227,0.0012217304902151227,-0.0006108652451075613
1782771621423742500,1.831742431640625,0.0006108652451075613,0.0006108652451075613,-0.001832595793530345
1782771621433730800,1.841730712890625,0,0,-0.0006108652451075613
1782771621443763000,1.851762939453125,-0.0006108652451075613,-0.0006108652451075613,0
1782771621453719800,1.8617197265625,-0.0012217304902151227,0,0
1782771621463752000,1.871751953125,-0.0006108652451075613,0,0.0006108652451075613
1782771621473739500,1.881739501953125,0,0.0006108652451075613,0
1782771621483740700,1.89174072265625,-0.0006108652451075613,0.0006108652451075613,-0.0012217304902151227
1782771621493728500,1.901728515625,-0.0006108652451075613,0.0006108652451075613,-0.0006108652451075613
1782771621503760400,1.911760498046875,0,0.0012217304902151227,0.0006108652451075613
1782771621513717500,1.921717529296875,-0.0012217304902151227,0.0006108652451075613,0
1782771621523749400,1.931749267578125,0,0.0006108652451075613,0
1782771621533737000,1.941737060546875,0,0,0
1782771621543738400,1.95173828125,-0.0006108652451075613,0.0006108652451075613,0.0012217304902151227
1782771621553726000,1.961725830078125,-0.001832595793530345,0,0
1782771621563757800,1.9717578125,-0.0006108652451075613,0.0006108652451075613,0.0006108652451075613
1782771621573745700,1.98174560546875,0,0.0006108652451075613,0.0006108652451075613
1782771621583746800,1.991746826171875,-0.0006108652451075613,0.0006108652451075613,-0.0006108652451075613
1782771621593734700,2.001734619140625,0,0.0006108652451075613,0.0012217304902151227
1782771621603766300,2.011766357421875,-0.0006108652451075613,0.0006108652451075613,0
1782771621613723600,2.0217236328125,0,0.0006108652451075613,-0.0006108652451075613
1782771621623755500,2.031755615234375,0,0.0006108652451075613,0
1782771621633743400,2.041743408203125,0,-0.0006108652451075613,0
1782771621643744800,2.051744873046875,-0.0012217304902151227,0.0006108652451075613,0
1782771621653732000,2.061732177734375,-0.0006108652451075613,0,0
1782771621663764200,2.07176416015625,-0.0006108652451075613,0.0006108652451075613,-0.0006108652451075613
1782771621673721000,2.08172119140625,-0.0006108652451075613,0,0
1782771621683753000,2.0917529296875,-0.0006108652451075613,0,-0.0006108652451075613
1782771621693740800,2.10174072265625,-0.0006108652451075613,0,-0.0012217304902151227
1782771621703742200,2.1117421875,-0.0006108652451075613,0.0006108652451075613,-0.0006108652451075613
1782771621713752800,2.1217529296875,-0.0006108652451075613,0.0006108652451075613,0
1782771621723761700,2.13176171875,0,0.0006108652451075613,0
1782771621733718500,2.141718505859375,0,0,-0.0012217304902151227
1782771621743750700,2.151750732421875,0,0.0006108652451075613,-0.0006108652451075613
1782771621753738200,2.16173828125,-0.0006108652451075613,0,-0.0006108652451075613
1782771621763739600,2.17173974609375,-0.0012217304902151227,0.0012217304902151227,0
1782771621773727200,2.181727294921875,0,0.0006108652451075613,0
1782771621783759000,2.191759033203125,-0.0006108652451075613,0.0006108652451075613,-0.0006108652451075613
1782771621793716500,2.201716552734375,-0.0006108652451075613,0,0
1782771621803748000,2.211748046875,0,0.0006108652451075613,-0.0006108652451075613
1782771621813736000,2.22173583984375,-0.0006108652451075613,0.0006108652451075613,-0.0012217304902151227
1782771621823766500,2.2317666015625,0,0.0012217304902151227,0.0006108652451075613
1782771621833724200,2.24172412109375,-0.0006108652451075613,0.0006108652451075613,0
1782771621843756000,2.251756103515625,0,0.0012217304902151227,-0.0006108652451075613
1782771621853743900,2.261743896484375,-0.0012217304902151227,0.0012217304902151227,0.0006108652451075613
1782771621863744800,2.271744873046875,0,0.0006108652451075613,0
1782771621873732900,2.28173291015625,0.0012217304902151227,0.0012217304902151227,0
1782771621883764700,2.2917646484375,-0.0006108652451075613,0,0
1782771621893721900,2.301721923828125,-0.0006108652451075613,0,0
1782771621903753700,2.311753662109375,-0.0006108652451075613,0,-0.0006108652451075613
1782771621913741300,2.3217412109375,-0.0006108652451075613,0.0012217304902151227,-0.0012217304902151227
1782771621923743000,2.331742919921875,0.0006108652451075613,0.0006108652451075613,0
1782771621933730800,2.341730712890625,-0.0006108652451075613,0,0
1782771621943776500,2.351776611328125,0,0.0006108652451075613,0
1782771621953720000,2.361719970703125,-0.0006108652451075613,0.0006108652451075613,0
1782771621963746600,2.37174658203125,-0.0012217304902151227,0.0006108652451075613,0
1782771621973739500,2.381739501953125,0,0.0012217304902151227,0.0006108652451075613
1782771621983735300,2.3917353515625,0,0.0006108652451075613,0
1782771621993728500,2.401728515625,0,0.0006108652451075613,-0.0006108652451075613
1782771622003755300,2.41175537109375,0,0,0.0006108652451075613
1782771622013717500,2.421717529296875,-0.0012217304902151227,0.0006108652451075613,0
1782771622023744000,2.431743896484375,0,0.0006108652451075613,-0.0006108652451075613
1782771622033737000,2.441737060546875,0,0.0006108652451075613,0
1782771622043738400,2.45173828125,0,0.0006108652451075613,0.0012217304902151227
1782771622053726000,2.461725830078125,-0.0006108652451075613,0.0012217304902151227,0.0012217304902151227
1782771622063757800,2.4717578125,-0.0006108652451075613,0.0006108652451075613,0
1782771622073745400,2.481745361328125,-0.0006108652451075613,0.0012217304902151227,0.0006108652451075613
1782771622083746600,2.49174658203125,0,0.0012217304902151227,0.0006108652451075613
1782771622093734700,2.501734619140625,0,-0.0006108652451075613,-0.0006108652451075613
1782771622103765800,2.511765869140625,-0.0006108652451075613,0.0006108652451075613,-0.0006108652451075613
1782771622113723600,2.5217236328125,-0.0006108652451075613,0.0006108652451075613,0
1782771622123755500,2.531755615234375,0,0.0012217304902151227,-0.0006108652451075613
1782771622133743000,2.5417431640625,0,0.0006108652451075613,0
1782771622143744500,2.55174462890625,-0.0006108652451075613,0.0006108652451075613,-0.0006108652451075613
1782771622153732000,2.561732177734375,0,0.0006108652451075613,-0.0006108652451075613
1782771622163764200,2.57176416015625,0,-0.0006108652451075613,0.0006108652451075613
1782771622173721000,2.58172119140625,0,0,0
1782771622183752400,2.59175244140625,-0.0006108652451075613,0.0012217304902151227,0
1782771622193740800,2.60174072265625,0.0006108652451075613,0.0012217304902151227,0
1782771622203741400,2.611741455078125,-0.0006108652451075613,0.0012217304902151227,0
1782771622213729500,2.6217294921875,0,0.0006108652451075613,-0.0006108652451075613
1782771622223761400,2.631761474609375,-0.0006108652451075613,0.0006108652451075613,-0.0006108652451075613
1782771622233718500,2.641718505859375,-0.0006108652451075613,0.0006108652451075613,0.0006108652451075613
1782771622243750700,2.651750732421875,-0.0006108652451075613,0.0006108652451075613,0
1782771622253738200,2.66173828125,-0.0012217304902151227,0,-0.0006108652451075613
1782771622263739000,2.67173876953125,0.0006108652451075613,0.0006108652451075613,0
1782771622273727200,2.681727294921875,0,0.0006108652451075613,0
1782771622283759400,2.69175927734375,-0.0006108652451075613,0.0006108652451075613,-0.0006108652451075613
1782771622293716200,2.70171630859375,-0.0006108652451075613,0,0.0006108652451075613
1782771622303748000,2.711748046875,0,0.0006108652451075613,0
1782771622313735700,2.721735595703125,0,0.0006108652451075613,-0.0006108652451075613
1782771622323767600,2.731767578125,-0.0006108652451075613,0.0006108652451075613,-0.0012217304902151227
1782771622333724700,2.741724609375,-0.0006108652451075613,0,0
1782771622343756800,2.7517568359375,-0.0006108652451075613,0.0006108652451075613,-0.0012217304902151227
1782771622353744400,2.761744384765625,-0.0006108652451075613,0,-0.0006108652451075613
1782771622363745800,2.771745849609375,0,0.0012217304902151227,0
1782771622373733400,2.7817333984375,-0.0012217304902151227,0.0006108652451075613,0.0006108652451075613
1782771622383765000,2.791764892578125,0,0.0006108652451075613,0
1782771622393722400,2.801722412109375,-0.0006108652451075613,0.0012217304902151227,0.0006108652451075613
1782771622403753500,2.81175341796875,-0.0006108652451075613,0.0006108652451075613,-0.0006108652451075613
1782771622413741800,2.821741943359375,-0.001832595793530345,0.0006108652451075613,0.0006108652451075613
1782771622423743000,2.831742919921875,-0.0012217304902151227,0,0.0006108652451075613
1782771622433731000,2.84173095703125,-0.001832595793530345,0,0
1782771622443762700,2.8517626953125,0,0,-0.0006108652451075613
1782771622453719800,2.8617197265625,0,0.0006108652451075613,0.0006108652451075613
1782771622463751700,2.871751708984375,-0.0012217304902151227,0.0006108652451075613,0.0006108652451075613
1782771622473739500,2.881739501953125,0.0006108652451075613,0.0012217304902151227,0.0006108652451075613
1782771622483740700,2.89174072265625,0,0.0006108652451075613,-0.0006108652451075613
1782771622493728500,2.901728515625,0,-0.0006108652451075613,0
1782771622503760400,2.911760498046875,-0.0006108652451075613,0.0012217304902151227,0.0006108652451075613
1782771622513717800,2.9217177734375,0,0.0006108652451075613,0
1782771622523749400,2.931749267578125,-0.0006108652451075613,0.0006108652451075613,0.0012217304902151227
1782771622533737000,2.941737060546875,-0.0006108652451075613,0.0012217304902151227,0.0012217304902151227
1782771622543738400,2.95173828125,-0.0006108652451075613,0,0.0006108652451075613
1782771622553726200,2.961726318359375,0.0006108652451075613,0.0006108652451075613,-0.0012217304902151227
1782771622563757800,2.9717578125,-0.0006108652451075613,0.0006108652451075613,-0.0006108652451075613
1782771622573745700,2.98174560546875,-0.0006108652451075613,0,0
1782771622583746800,2.991746826171875,0,0,0
1782771622593734700,3.001734619140625,-0.0006108652451075613,0,-0.0012217304902151227
1782771622603766500,3.0117666015625,0,0.0012217304902151227,-0.0006108652451075613
1782771622613723600,3.0217236328125,-0.0012217304902151227,0.0006108652451075613,0.0006108652451075613
1782771622623755300,3.03175537109375,-0.0006108652451075613,0.0006108652451075613,0.0006108652451075613
1782771622633743000,3.0417431640625,-0.0012217304902151227,0,-0.0006108652451075613
1782771622643682300,3.051682373046875,0.0006108652451075613,0.0006108652451075613,0
1782771622653762600,3.061762451171875,-0.0006108652451075613,0,0
1782771622663764200,3.07176416015625,0,0,0.0006108652451075613
1782771622673721300,3.081721435546875,-0.0006108652451075613,0,0
1782771622683753200,3.091753173828125,0,0.0012217304902151227,0
1782771622693740800,3.10174072265625,-0.0006108652451075613,0,0.0006108652451075613
1782771622703741400,3.111741455078125,0,0.0006108652451075613,-0.0006108652451075613
1782771622715278800,3.12327880859375,0,0.0006108652451075613,0
1782771622733718800,3.14171875,0,0.0012217304902151227,0
1782771622743750400,3.15175048828125,-0.0012217304902151227,-0.0006108652451075613,0
1782771622753738200,3.16173828125,-0.0006108652451075613,0.0006108652451075613,0
1782771622763739600,3.17173974609375,-0.0006108652451075613,0.0006108652451075613,0.0012217304902151227
1782771622773727200,3.181727294921875,-0.0006108652451075613,0.0006108652451075613,0
1782771622783759400,3.19175927734375,-0.0006108652451075613,0.0006108652451075613,0
1782771622793716200,3.20171630859375,-0.0012217304902151227,0.0006108652451075613,0
1782771622803748000,3.211748046875,-0.0006108652451075613,0.0006108652451075613,0
1782771622813736000,3.22173583984375,0,0,0
1782771622823766500,3.2317666015625,-0.0012217304902151227,0,-0.0006108652451075613
1782771622833724400,3.241724365234375,0,0.0006108652451075613,-0.0006108652451075613
1782771622843756300,3.25175634765625,-0.0006108652451075613,0.0012217304902151227,0.0006108652451075613
1782771622853743900,3.261743896484375,-0.0006108652451075613,0,-0.0006108652451075613
1782771622863745000,3.2717451171875,0.0006108652451075613,0.0012217304902151227,-0.0006108652451075613
1782771622873732900,3.28173291015625,0,0.0006108652451075613,0
1782771622883764700,3.2917646484375,-0.0006108652451075613,0.0006108652451075613,-0.0006108652451075613
1782771622893721600,3.3017216796875,0.0006108652451075613,0.0006108652451075613,-0.0012217304902151227
1782771622903754000,3.31175390625,0.0006108652451075613,0.0012217304902151227,0.0006108652451075613
1782771622913741600,3.321741455078125,-0.0006108652451075613,0.0006108652451075613,0
1782771622923743200,3.3317431640625,-0.0006108652451075613,0,0.0006108652451075613
1782771622933731000,3.34173095703125,0,0.0006108652451075613,0
1782771622943762700,3.3517626953125,0,0.0006108652451075613,0
1782771622953719800,3.3617197265625,0,0,0
1782771622963752000,3.371751953125,-0.0012217304902151227,0.0006108652451075613,0.0006108652451075613
1782771622973739500,3.381739501953125,-0.0006108652451075613,0,0
1782771622983740700,3.39174072265625,0,0.0012217304902151227,0
1782771622993688600,3.4016884765625,-0.0012217304902151227,0.0006108652451075613,0.0006108652451075613
1782771623003789800,3.411789794921875,-0.0012217304902151227,0.001832595793530345,0.0006108652451075613
1782771623013809200,3.42180908203125,-0.0006108652451075613,0.0006108652451075613,0.0006108652451075613
1782771623023762700,3.4317626953125,-0.0006108652451075613,0.0006108652451075613,-0.0012217304902151227
1782771623033737000,3.441737060546875,-0.0006108652451075613,0,-0.0006108652451075613
1782771623043733000,3.45173291015625,0,0.0006108652451075613,-0.0012217304902151227
1782771623053726000,3.461725830078125,-0.0012217304902151227,0,0
1782771623063752200,3.471752197265625,-0.0006108652451075613,0.0012217304902151227,-0.0012217304902151227
1782771623073705700,3.481705810546875,-0.0006108652451075613,0.0006108652451075613,-0.0012217304902151227
1782771623083833000,3.4918330078125,-0.0006108652451075613,0,-0.0006108652451075613
1782771623093694700,3.50169482421875,0,0.0006108652451075613,0
1782771623103821600,3.511821533203125,0,0.001832595793530345,-0.0012217304902151227
1782771623113723600,3.5217236328125,0.0006108652451075613,0.0006108652451075613,-0.0006108652451075613
1782771623123755500,3.531755615234375,0,0.0006108652451075613,-0.0012217304902151227
1782771623133743000,3.5417431640625,0.0006108652451075613,0,-0.0012217304902151227
1782771623143744500,3.55174462890625,0,0.0006108652451075613,-0.0024434609804302454
1782771623153732000,3.561732177734375,-0.0012217304902151227,0.001832595793530345,0
1782771623163763700,3.571763671875,-0.0012217304902151227,0,-0.0006108652451075613
1782771623173721000,3.58172119140625,0,0.0006108652451075613,-0.0012217304902151227
1782771623183753200,3.591753173828125,-0.0006108652451075613,0.0012217304902151227,0
1782771623193740800,3.60174072265625,-0.0006108652451075613,0.0012217304902151227,-0.0012217304902151227
1782771623203742000,3.611741943359375,-0.0006108652451075613,0.0006108652451075613,-0.0012217304902151227
1782771623213729500,3.6217294921875,-0.0006108652451075613,0.0006108652451075613,-0.0006108652451075613
1782771623223761400,3.631761474609375,0,0.0006108652451075613,0
1782771623233718500,3.641718505859375,-0.0006108652451075613,0,0.0006108652451075613
1782771623243750700,3.651750732421875,-0.0006108652451075613,0,0
1782771623253738200,3.66173828125,-0.0006108652451075613,0.0006108652451075613,0
1782771623263739600,3.67173974609375,0.0006108652451075613,-0.0006108652451075613,0
1782771623273727200,3.681727294921875,-0.0006108652451075613,0.0006108652451075613,0
1782771623283758800,3.6917587890625,-0.0012217304902151227,0.0006108652451075613,-0.0006108652451075613
1782771623293716500,3.701716552734375,0,0.0006108652451075613,-0.0012217304902151227
1782771623303748000,3.711748046875,-0.0012217304902151227,-0.0006108652451075613,-0.0012217304902151227
1782771623313736000,3.72173583984375,-0.0012217304902151227,0,-0.0006108652451075613
1782771623323767800,3.731767822265625,0,0.0006108652451075613,0
1782771623333724700,3.741724609375,0,0.0006108652451075613,-0.0006108652451075613
1782771623343756800,3.7517568359375,0,-0.0006108652451075613,-0.0006108652451075613
1782771623353744400,3.761744384765625,-0.0012217304902151227,0.0006108652451075613,-0.0012217304902151227
1782771623363745800,3.771745849609375,0,0.0012217304902151227,-0.0006108652451075613
1782771623373733400,3.7817333984375,0,0,-0.0006108652451075613
1782771623383765200,3.79176513671875,-0.0006108652451075613,0.0006108652451075613,0
1782771623393722400,3.801722412109375,-0.0012217304902151227,0,-0.0012217304902151227
1782771623403754200,3.811754150390625,-0.0006108652451075613,0.0006108652451075613,0.0006108652451075613
1782771623413741800,3.821741943359375,0,0.0006108652451075613,-0.0012217304902151227
1782771623423743200,3.8317431640625,0,0.0006108652451075613,-0.0006108652451075613
1782771623433731000,3.84173095703125,-0.0006108652451075613,0.0012217304902151227,-0.001832595793530345
1782771623443762700,3.8517626953125,0,0.0006108652451075613,-0.0006108652451075613
1782771623453720000,3.861719970703125,-0.0006108652451075613,0,0
1782771623463751700,3.871751708984375,0,0.0006108652451075613,-0.0006108652451075613
1782771623473739500,3.881739501953125,-0.0006108652451075613,0,-0.0006108652451075613
1782771623483740700,3.89174072265625,0,0.0012217304902151227,0
1782771623493728500,3.901728515625,-0.0006108652451075613,0.0006108652451075613,-0.0006108652451075613
1782771623503760400,3.911760498046875,-0.0006108652451075613,0,-0.0012217304902151227
1782771623513717800,3.9217177734375,0,0.0006108652451075613,-0.0012217304902151227
1782771623523749400,3.931749267578125,0,0.0012217304902151227,-0.001832595793530345
1782771623533737000,3.941737060546875,-0.0006108652451075613,0,-0.0006108652451075613
1782771623543738400,3.95173828125,0,-0.0006108652451075613,-0.0012217304902151227
1782771623553726000,3.961725830078125,-0.0006108652451075613,0.0006108652451075613,-0.0006108652451075613
1782771623563757800,3.9717578125,0,0,-0.0006108652451075613
1782771623573745700,3.98174560546875,0,0,0
1782771623583746800,3.991746826171875,0,0.0006108652451075613,-0.001832595793530345
1782771623593734700,4.001734619140625,0,0.0006108652451075613,0
1782771623603766300,4.011766357421875,-0.0012217304902151227,0.0006108652451075613,-0.0012217304902151227
1782771623613723600,4.0217236328125,-0.0006108652451075613,0.0012217304902151227,0
1782771623623755300,4.03175537109375,-0.0006108652451075613,0.0012217304902151227,-0.0006108652451075613
1782771623633743000,4.0417431640625,-0.0006108652451075613,0.0012217304902151227,-0.0006108652451075613
1782771623643744500,4.05174462890625,0,0.0006108652451075613,-0.0006108652451075613
1782771623653732000,4.061732177734375,-0.0006108652451075613,0,-0.0006108652451075613
1782771623663764200,4.07176416015625,-0.0012217304902151227,0.0006108652451075613,-0.0006108652451075613
1782771623673721000,4.08172119140625,-0.0006108652451075613,0.0006108652451075613,-0.0006108652451075613
1782771623683753200,4.091753173828125,-0.001832595793530345,0.0006108652451075613,-0.0006108652451075613
1782771623693740800,4.10174072265625,-0.0006108652451075613,0,0
1782771623703742000,4.111741943359375,0,0,-0.0006108652451075613
1782771623713753000,4.121753173828125,-0.0006108652451075613,0.0006108652451075613,-0.0006108652451075613
1782771623723761700,4.13176171875,-0.0006108652451075613,0,-0.0006108652451075613
1782771623733718500,4.141718505859375,-0.0006108652451075613,0.0006108652451075613,-0.0012217304902151227
1782771623743750700,4.151750732421875,-0.0006108652451075613,-0.0006108652451075613,0
1782771623753738200,4.16173828125,-0.0006108652451075613,0.0006108652451075613,0
1782771623763739400,4.171739501953125,-0.0006108652451075613,0.0006108652451075613,-0.001832595793530345
1782771623773727200,4.181727294921875,0,0,-0.0012217304902151227
1782771623783759000,4.191759033203125,-0.0006108652451075613,0.0006108652451075613,0
1782771623793716500,4.201716552734375,0.0006108652451075613,0.0006108652451075613,0
1782771623803747800,4.211747802734375,0,0,0
1782771623813735700,4.221735595703125,0,0.0006108652451075613,-0.0012217304902151227
1782771623823766500,4.2317666015625,-0.0006108652451075613,0,-0.0006108652451075613
1782771623833724200,4.24172412109375,-0.001832595793530345,0.0006108652451075613,-0.0006108652451075613
1782771623843756000,4.251756103515625,0,0,-0.0012217304902151227
1782771623853743900,4.261743896484375,0,0,-0.0012217304902151227
1782771623863745000,4.2717451171875,-0.0006108652451075613,0,-0.0012217304902151227
1782771623873733000,4.281733154296875,-0.0006108652451075613,0,-0.0006108652451075613
1782771623883764500,4.291764404296875,-0.0006108652451075613,0.0006108652451075613,-0.0006108652451075613
1782771623893721600,4.3017216796875,-0.0006108652451075613,0.0006108652451075613,-0.0006108652451075613
1782771623903753700,4.311753662109375,-0.0012217304902151227,0.0006108652451075613,-0.0012217304902151227
1782771623913741300,4.3217412109375,-0.0006108652451075613,0.0012217304902151227,-0.0006108652451075613
1782771623923743000,4.331742919921875,0,0,-0.0006108652451075613
1782771623933730800,4.341730712890625,-0.0006108652451075613,0,-0.0006108652451075613
1782771623943762700,4.3517626953125,-0.0006108652451075613,0.0012217304902151227,0
1782771623953719800,4.3617197265625,0,0,-0.0006108652451075613
1782771623963751700,4.371751708984375,-0.0012217304902151227,0.0012217304902151227,0.0006108652451075613
1782771623973739500,4.381739501953125,-0.0006108652451075613,0.0006108652451075613,0
1782771623983740700,4.39174072265625,-0.0006108652451075613,0.0006108652451075613,-0.0012217304902151227
1782771623993728500,4.401728515625,-0.0006108652451075613,0,-0.0006108652451075613
1782771624003760400,4.411760498046875,-0.0006108652451075613,-0.0006108652451075613,0
1782771624013717500,4.421717529296875,-0.0006108652451075613,0.0006108652451075613,-0.0012217304902151227
1782771624023748900,4.431748779296875,-0.0006108652451075613,0.0006108652451075613,-0.0006108652451075613
1782771624033737200,4.4417373046875,0,0.0006108652451075613,-0.001832595793530345
1782771624043738400,4.45173828125,-0.0006108652451075613,0,0
1782771624053726000,4.461725830078125,-0.0012217304902151227,0.0006108652451075613,-0.0006108652451075613
1782771624063757300,4.47175732421875,0,0,-0.0012217304902151227
1782771624073745400,4.481745361328125,0,0,-0.0006108652451075613
1782771624083746800,4.491746826171875,0,0.0012217304902151227,0
1782771624093734700,4.501734619140625,-0.0006108652451075613,0.0006108652451075613,-0.0012217304902151227
1782771624103779800,4.51177978515625,-0.0006108652451075613,0.0012217304902151227,0
1782771624113723600,4.5217236328125,-0.0006108652451075613,0.0006108652451075613,0
1782771624123749600,4.53174951171875,-0.0006108652451075613,0.0012217304902151227,0
1782771624133743000,4.5417431640625,-0.0006108652451075613,0.0006108652451075613,0
1782771624143738600,4.551738525390625,0,0.0006108652451075613,-0.0012217304902151227
1782771624153732000,4.561732177734375,0.0006108652451075613,0.0006108652451075613,0.0006108652451075613
1782771624163758600,4.571758544921875,0,0.0006108652451075613,0.0006108652451075613
1782771624173721000,4.58172119140625,-0.0006108652451075613,0,-0.0006108652451075613
1782771624183747800,4.591747802734375,0,0,0
1782771624193740800,4.60174072265625,-0.0006108652451075613,0.0012217304902151227,0
1782771624203741700,4.61174169921875,-0.0006108652451075613,0.0006108652451075613,0
1782771624213729800,4.621729736328125,0,0.0006108652451075613,-0.0006108652451075613
1782771624223761200,4.63176123046875,-0.0006108652451075613,0,0.0006108652451075613
1782771624233718500,4.641718505859375,0,0.0006108652451075613,0
1782771624243750700,4.651750732421875,-0.0006108652451075613,0.0006108652451075613,0
1782771624253738200,4.66173828125,-0.0006108652451075613,0.0006108652451075613,0
1782771624263740000,4.671739990234375,-0.0006108652451075613,0.0012217304902151227,0
1782771624273727200,4.681727294921875,0.0006108652451075613,0.0006108652451075613,0
1782771624283759000,4.691759033203125,0,-0.0006108652451075613,0
1782771624293716200,4.70171630859375,-0.0012217304902151227,0,0.0006108652451075613
1782771624303748000,4.711748046875,-0.0006108652451075613,0,0.0012217304902151227
1782771624313736000,4.72173583984375,0.0006108652451075613,0.0012217304902151227,-0.0006108652451075613
1782771624323767600,4.731767578125,0,-0.0006108652451075613,0.0006108652451075613
1782771624333684700,4.741684814453125,-0.0006108652451075613,0,0
1782771624343817700,4.751817626953125,0,0.0006108652451075613,0.0006108652451075613
1782771624354935000,4.76293505859375,-0.0012217304902151227,0.0006108652451075613,-0.0006108652451075613
1782771624373733400,4.7817333984375,-0.0006108652451075613,0,0
1782771624383765200,4.79176513671875,-0.0012217304902151227,0.0006108652451075613,-0.0006108652451075613
1782771624393722400,4.801722412109375,0,0.0012217304902151227,0
1782771624403754200,4.811754150390625,0,0,0
1782771624413702000,4.821701904296875,0,0,0.0006108652451075613
1782771624423834600,4.831834716796875,0.0006108652451075613,0.001832595793530345,0
1782771624433691000,4.84169091796875,-0.0006108652451075613,0.0006108652451075613,-0.0012217304902151227
1782771624443823900,4.851823974609375,-0.0006108652451075613,0.0006108652451075613,0.0006108652451075613
1782771624453719800,4.8617197265625,0.0006108652451075613,0.0012217304902151227,0.0006108652451075613
1782771624463751400,4.87175146484375,0.0006108652451075613,0.0012217304902151227,0
1782771624473739300,4.8817392578125,0,0.0012217304902151227,0
1782771624483740400,4.891740478515625,-0.0006108652451075613,0.0006108652451075613,0.0006108652451075613
1782771624493728500,4.901728515625,-0.0006108652451075613,0,-0.0006108652451075613
1782771624503760100,4.911760009765625,0,0.0006108652451075613,0
1782771624513717500,4.921717529296875,-0.0006108652451075613,0.0006108652451075613,0
1782771624523749400,4.931749267578125,0,0,0
1782771624533737000,4.941737060546875,-0.0012217304902151227,0.0006108652451075613,-0.0006108652451075613
1782771624543738400,4.95173828125,-0.0006108652451075613,0.0006108652451075613,0
1782771624553726000,4.961725830078125,-0.0006108652451075613,0.0006108652451075613,-0.0006108652451075613
1782771624563757800,4.9717578125,-0.0006108652451075613,0.0006108652451075613,0
1782771624573745400,4.981745361328125,0,0,0
1782771624583747000,4.9917470703125,-0.0006108652451075613,0.0012217304902151227,0
1782771624593734700,5.001734619140625,-0.0006108652451075613,0.0006108652451075613,0.0006108652451075613
1782771624603766300,5.011766357421875,0,0.0006108652451075613,0
1782771624613723600,5.0217236328125,-0.0006108652451075613,0.0012217304902151227,0
1782771624623755300,5.03175537109375,-0.0006108652451075613,0.0006108652451075613,0.0006108652451075613
1782771624633743000,5.0417431640625,-0.0006108652451075613,0,0
1782771624643744500,5.05174462890625,-0.0012217304902151227,0.0006108652451075613,0.0006108652451075613
1782771624653732000,5.061732177734375,-0.0006108652451075613,0,0.0006108652451075613
1782771624663764000,5.071763916015625,-0.0006108652451075613,0.0012217304902151227,0
1782771624673721300,5.081721435546875,0,0.0006108652451075613,0.0006108652451075613
1782771624683752700,5.091752685546875,-0.0012217304902151227,0.001832595793530345,0.0006108652451075613
1782771624693740500,5.101740478515625,0,0.0012217304902151227,0
1782771624703742000,5.111741943359375,-0.001832595793530345,0.0012217304902151227,0
1782771624713689600,5.121689697265625,0.0006108652451075613,0.0006108652451075613,-0.0006108652451075613
1782771624723822600,5.131822509765625,-0.0006108652451075613,-0.0006108652451075613,-0.0006108652451075613
1782771624733678600,5.1416787109375,-0.0012217304902151227,0.0012217304902151227,0
1782771624743810600,5.151810546875,0,0,0
1782771624754856400,5.1628564453125,0,0.0006108652451075613,0.0006108652451075613
1782771624773727200,5.181727294921875,-0.0012217304902151227,0.0006108652451075613,0
1782771624783759000,5.191759033203125,0,0.0012217304902151227,0
1782771624793716200,5.20171630859375,0.0006108652451075613,0,0
1782771624803748000,5.211748046875,-0.0006108652451075613,0,-0.0006108652451075613
1782771624813736000,5.22173583984375,0,0.0006108652451075613,0.0006108652451075613
1782771624823766500,5.2317666015625,-0.0012217304902151227,0.0006108652451075613,0
1782771624833724400,5.241724365234375,0,0,0
1782771624843756000,5.251756103515625,-0.0006108652451075613,0,0.0006108652451075613
1782771624853743900,5.261743896484375,0.0006108652451075613,0.0006108652451075613,0.0006108652451075613
1782771624863745000,5.2717451171875,0,0.0006108652451075613,0.0006108652451075613
1782771624873732900,5.28173291015625,0.0012217304902151227,0.0012217304902151227,-0.0006108652451075613
1782771624883764500,5.291764404296875,0,0.0006108652451075613,0.0006108652451075613
1782771624893721900,5.301721923828125,-0.0012217304902151227,0.0006108652451075613,0.0006108652451075613
1782771624903753700,5.311753662109375,-0.0006108652451075613,0,-0.0006108652451075613
1782771624913741300,5.3217412109375,0,0.0006108652451075613,0
1782771624923743200,5.3317431640625,0,-0.0006108652451075613,0.0006108652451075613
1782771624933730800,5.341730712890625,0.0006108652451075613,0.0012217304902151227,-0.0006108652451075613
1782771624943762000,5.351761962890625,-0.0012217304902151227,0.001832595793530345,0
1782771624953719800,5.3617197265625,-0.0006108652451075613,0.0006108652451075613,0
1782771624963751700,5.371751708984375,0,0.0006108652451075613,0.0006108652451075613
1782771624973739300,5.3817392578125,-0.0012217304902151227,0.0012217304902151227,0
1782771624983740400,5.391740478515625,-0.0006108652451075613,0.0006108652451075613,-0.0006108652451075613
1782771624993728500,5.401728515625,0,0.0006108652451075613,0.0006108652451075613
1782771625003760000,5.411760009765625,0,0.0012217304902151227,0
1782771625013717500,5.421717529296875,-0.0006108652451075613,0,0
1782771625023749000,5.4317490234375,-0.0006108652451075613,0.0006108652451075613,0
1782771625033697000,5.441697021484375,0.0006108652451075613,0.0006108652451075613,0
1782771625043829200,5.451829345703125,0,0,0
1782771625053726000,5.461725830078125,0,0.0006108652451075613,0.0006108652451075613
1782771625063757800,5.4717578125,-0.0012217304902151227,0,0
1782771625073745700,5.48174560546875,0.0006108652451075613,0.0012217304902151227,-0.0006108652451075613
1782771625083746600,5.49174658203125,-0.0006108652451075613,0.0006108652451075613,0.0006108652451075613
1782771625093734700,5.501734619140625,-0.0012217304902151227,0.0006108652451075613,-0.0012217304902151227
1782771625103766300,5.511766357421875,0,0,0
1782771625113723600,5.5217236328125,0,0,-0.0006108652451075613
1782771625123755500,5.531755615234375,0,0,0
1782771625133743000,5.5417431640625,0.0006108652451075613,0,-0.0006108652451075613
1782771625143744500,5.55174462890625,-0.0006108652451075613,0.0012217304902151227,0
1782771625153732000,5.561732177734375,0,0.0006108652451075613,-0.0012217304902151227
1782771625163717000,5.571717041015625,-0.0006108652451075613,0,0
1782771625173721000,5.58172119140625,-0.0012217304902151227,0.0006108652451075613,0.0012217304902151227
1782771625183797000,5.591796875,-0.0006108652451075613,0.0006108652451075613,0
1782771625193740500,5.601740478515625,0.0006108652451075613,0.0006108652451075613,-0.0006108652451075613
1782771625203736800,5.61173681640625,-0.0012217304902151227,0.0006108652451075613,0
1782771625213729500,5.6217294921875,0,0,0
1782771625223756300,5.63175634765625,-0.0006108652451075613,0.0012217304902151227,0
1782771625233718800,5.64171875,0,0,0.0006108652451075613
1782771625243744800,5.651744873046875,-0.0006108652451075613,0.0012217304902151227,0.0006108652451075613
1782771625253738200,5.66173828125,0,0.0006108652451075613,-0.0006108652451075613
1782771625263734300,5.671734375,0,0.0012217304902151227,-0.0006108652451075613
1782771625273727200,5.681727294921875,-0.0006108652451075613,0.0006108652451075613,0
1782771625283758800,5.6917587890625,-0.0012217304902151227,0,0
1782771625293716200,5.70171630859375,0,0.0006108652451075613,0
1782771625303748000,5.711748046875,-0.0006108652451075613,0.0006108652451075613,0.0006108652451075613
1782771625313735700,5.721735595703125,-0.0006108652451075613,0.001832595793530345,0
1782771625323767600,5.731767578125,-0.0006108652451075613,0,0
1782771625333724700,5.741724609375,0.0006108652451075613,0,0.0006108652451075613
1782771625343755800,5.751755859375,-0.0006108652451075613,0.0006108652451075613,0
1782771625353744100,5.761744140625,0,0.0012217304902151227,-0.0006108652451075613
1782771625363745500,5.77174560546875,0,0,0
1782771625373733400,5.7817333984375,-0.0006108652451075613,0,0
1782771625383765000,5.791764892578125,-0.0006108652451075613,0.0006108652451075613,0
1782771625393722400,5.801722412109375,0,0.0012217304902151227,-0.0006108652451075613
1782771625403753500,5.81175341796875,0,0.0006108652451075613,0
1782771625413742000,5.8217421875,0,0.0006108652451075613,0
1782771625423743200,5.8317431640625,0,0,-0.0006108652451075613
1782771625433731000,5.84173095703125,-0.0006108652451075613,0.0006108652451075613,0
1782771625443762700,5.8517626953125,0.0006108652451075613,0.0006108652451075613,0
1782771625453719800,5.8617197265625,0,0.0006108652451075613,0.0006108652451075613
1782771625463751700,5.871751708984375,0,0.0012217304902151227,0.0006108652451075613
1782771625473739500,5.881739501953125,0,0,0
1782771625483740700,5.89174072265625,-0.0012217304902151227,0.0006108652451075613,0.0006108652451075613
1782771625493728500,5.901728515625,-0.0006108652451075613,0.0006108652451075613,0
1782771625503760100,5.911760009765625,-0.0006108652451075613,0.0012217304902151227,-0.0012217304902151227
1782771625513717500,5.921717529296875,-0.0006108652451075613,0.0012217304902151227,-0.0006108652451075613
1782771625523749000,5.9317490234375,0.0006108652451075613,0.0006108652451075613,-0.0006108652451075613
1782771625533697000,5.941697021484375,0,0.0012217304902151227,-0.0012217304902151227
1782771625543829800,5.951829833984375,-0.0012217304902151227,0,0.0006108652451075613
1782771625553726000,5.961725830078125,-0.0006108652451075613,-0.0006108652451075613,0
1782771625563758000,5.971758056640625,-0.0006108652451075613,0,0
1782771625573745400,5.981745361328125,-0.0006108652451075613,0.0006108652451075613,-0.0006108652451075613
1782771625583746800,5.991746826171875,0,0.0006108652451075613,0.0006108652451075613
1782771625593734400,6.001734375,0.0006108652451075613,0.0006108652451075613,0
1782771625603766500,6.0117666015625,0,0.0012217304902151227,0
1782771625613723600,6.0217236328125,0,0.0006108652451075613,0
1782771625623755000,6.031755126953125,0,0.0006108652451075613,0.0006108652451075613
1782771625633743000,6.0417431640625,-0.0012217304902151227,-0.0006108652451075613,0
1782771625643744500,6.05174462890625,-0.0012217304902151227,0.0006108652451075613,0
1782771625653732000,6.061732177734375,-0.0006108652451075613,0,-0.0006108652451075613
1782771625663764200,6.07176416015625,0,0.0012217304902151227,0
1782771625673721000,6.08172119140625,-0.0006108652451075613,-0.0006108652451075613,-0.0006108652451075613
1782771625683753000,6.0917529296875,0,0.0012217304902151227,-0.0006108652451075613
1782771625693740800,6.10174072265625,0,0.0012217304902151227,-0.0006108652451075613
1782771625703742000,6.111741943359375,-0.0006108652451075613,0.0006108652451075613,0
1782771625713752800,6.1217529296875,-0.0006108652451075613,0,0
1782771625723761400,6.131761474609375,0,0.0006108652451075613,0
1782771625733718500,6.141718505859375,-0.0006108652451075613,0.0006108652451075613,0
1782771625743750700,6.151750732421875,-0.0006108652451075613,0.0006108652451075613,0.0006108652451075613
1782771625753738200,6.16173828125,-0.0012217304902151227,0.0006108652451075613,0.0006108652451075613
1782771625763739400,6.171739501953125,0,0,-0.0006108652451075613
1782771625773727200,6.181727294921875,0.0006108652451075613,0.0006108652451075613,0.0012217304902151227
1782771625783759000,6.191759033203125,-0.0012217304902151227,0,-0.0012217304902151227
1782771625793716500,6.201716552734375,0,0.0006108652451075613,0
1782771625803747600,6.21174755859375,-0.0012217304902151227,0.0006108652451075613,-0.0006108652451075613
1782771625813736000,6.22173583984375,-0.0006108652451075613,0,0.0006108652451075613
1782771625823796700,6.231796630859375,-0.0006108652451075613,0,-0.0006108652451075613
1782771625833815800,6.24181591796875,0,0.0006108652451075613,-0.0006108652451075613
1782771625843725000,6.25172509765625,-0.0012217304902151227,-0.0006108652451075613,0.0012217304902151227
1782771625853804800,6.2618046875,0,0.0006108652451075613,0
1782771625863745000,6.2717451171875,0,0.001832595793530345,-0.0006108652451075613
1782771625873732900,6.28173291015625,-0.0006108652451075613,0.0006108652451075613,-0.0006108652451075613
1782771625883764700,6.2917646484375,-0.0006108652451075613,0.0006108652451075613,-0.0006108652451075613
1782771625893721600,6.3017216796875,-0.0012217304902151227,0,-0.0006108652451075613
1782771625903753700,6.311753662109375,0,-0.0006108652451075613,0
1782771625913741300,6.3217412109375,-0.0006108652451075613,0,-0.0006108652451075613
1782771625923743000,6.331742919921875,0,0,0
1782771625933730800,6.341730712890625,-0.0006108652451075613,0.0006108652451075613,0
1782771625943762700,6.3517626953125,-0.0012217304902151227,0.0006108652451075613,-0.0006108652451075613
1782771625953719800,6.3617197265625,0,0.0006108652451075613,0
1782771625963751200,6.371751220703125,-0.0006108652451075613,0.0012217304902151227,0
1782771625973739300,6.3817392578125,0,0.0006108652451075613,0.0006108652451075613
1782771625983740400,6.391740478515625,0.0012217304902151227,0.0012217304902151227,-0.0006108652451075613
1782771625993728500,6.401728515625,-0.0006108652451075613,0.0012217304902151227,-0.0006108652451075613
1782771626003760000,6.411760009765625,-0.0006108652451075613,0.0012217304902151227,0.0006108652451075613
1782771626013717500,6.421717529296875,-0.0006108652451075613,0,0
1782771626023749400,6.431749267578125,-0.0012217304902151227,0.0006108652451075613,-0.0006108652451075613
1782771626033737000,6.441737060546875,-0.0006108652451075613,0.0006108652451075613,0
1782771626043737600,6.451737548828125,-0.0006108652451075613,0.0006108652451075613,-0.0006108652451075613
1782771626053726000,6.461725830078125,-0.0006108652451075613,0.001832595793530345,0.0006108652451075613
1782771626063757800,6.4717578125,-0.0006108652451075613,0.0006108652451075613,0.0006108652451075613
1782771626073745700,6.48174560546875,-0.0012217304902151227,-0.0006108652451075613,-0.0006108652451075613
1782771626083747000,6.4917470703125,-0.0006108652451075613,0.0012217304902151227,0.0006108652451075613
1782771626093734700,6.501734619140625,-0.0006108652451075613,0.0006108652451075613,-0.0006108652451075613
1782771626103766300,6.511766357421875,-0.0006108652451075613,0.0006108652451075613,0
1782771626113723600,6.5217236328125,0,-0.0006108652451075613,0
1782771626123755300,6.53175537109375,-0.0006108652451075613,0.0012217304902151227,-0.0006108652451075613
1782771626133742800,6.541742919921875,-0.0006108652451075613,0.0012217304902151227,0.0006108652451075613
1782771626143744300,6.551744140625,0,0.0006108652451075613,0
1782771626153732000,6.561732177734375,-0.0006108652451075613,0.0006108652451075613,0
1782771626163764000,6.571763916015625,-0.0006108652451075613,0.0006108652451075613,0
1782771626173721000,6.58172119140625,-0.0006108652451075613,0.0012217304902151227,0
1782771626183752700,6.591752685546875,0.0006108652451075613,0.0012217304902151227,0.0006108652451075613
1782771626193740800,6.60174072265625,-0.0006108652451075613,0.0012217304902151227,0.0006108652451075613
1782771626203741700,6.61174169921875,0,0.0006108652451075613,0
1782771626213689600,6.621689697265625,-0.0006108652451075613,0,-0.0006108652451075613
1782771626223790800,6.631790771484375,-0.0006108652451075613,0.0006108652451075613,-0.0006108652451075613
1782771626234948600,6.642948486328125,-0.0006108652451075613,0.0006108652451075613,0
1782771626253738200,6.66173828125,0,0.0006108652451075613,0
1782771626263708200,6.671708251953125,0,0,-0.0006108652451075613
1782771626274467300,6.68246728515625,-0.0006108652451075613,0.0012217304902151227,-0.0006108652451075613
1782771626293716200,6.70171630859375,-0.0006108652451075613,0,-0.0006108652451075613
1782771626303742500,6.711742431640625,-0.0012217304902151227,0.0012217304902151227,0
1782771626313735700,6.721735595703125,0,0.0012217304902151227,0
1782771626323762000,6.731761962890625,0,0.0006108652451075613,0
1782771626333684700,6.741684814453125,-0.0006108652451075613,0.0006108652451075613,0
1782771626343812600,6.7518125,-0.0006108652451075613,0.0012217304902151227,0
1782771626353744400,6.761744384765625,-0.0006108652451075613,0.0012217304902151227,0.0006108652451075613
1782771626363745300,6.771745361328125,-0.0006108652451075613,0.0012217304902151227,0.0006108652451075613
1782771626373733400,6.7817333984375,-0.0006108652451075613,0.0012217304902151227,0
1782771626383765000,6.791764892578125,0,0.0012217304902151227,0.0006108652451075613
1782771626393722400,6.801722412109375,-0.0006108652451075613,0.001832595793530345,-0.0012217304902151227
1782771626403754200,6.811754150390625,-0.0006108652451075613,0.0006108652451075613,-0.0006108652451075613
1782771626413742000,6.8217421875,-0.0012217304902151227,0.0012217304902151227,-0.0006108652451075613
1782771626423743000,6.831742919921875,-0.0006108652451075613,0.0006108652451075613,-0.0006108652451075613
1782771626433731000,6.84173095703125,-0.0006108652451075613,0.0006108652451075613,0
1782771626443763000,6.851762939453125,-0.0006108652451075613,0,0.0006108652451075613
1782771626453719800,6.8617197265625,-0.0012217304902151227,0.0006108652451075613,0
1782771626463751700,6.871751708984375,-0.0012217304902151227,0,-0.0012217304902151227
1782771626473739300,6.8817392578125,0,0.0006108652451075613,0
1782771626483740700,6.89174072265625,-0.0006108652451075613,0,0.0006108652451075613
1782771626493728500,6.901728515625,-0.0012217304902151227,-0.0006108652451075613,0
1782771626503760400,6.911760498046875,-0.0006108652451075613,0.0006108652451075613,-0.0006108652451075613
1782771626513717800,6.9217177734375,0,0,0.0006108652451075613
1782771626523749000,6.9317490234375,-0.0012217304902151227,0,0
1782771626533737000,6.941737060546875,0,0.0006108652451075613,0
1782771626543738400,6.95173828125,-0.0012217304902151227,0,0
1782771626553726000,6.961725830078125,-0.0006108652451075613,0.0012217304902151227,0.0006108652451075613
1782771626563757000,6.971757080078125,0,0,0.0006108652451075613
1782771626573745400,6.981745361328125,-0.0012217304902151227,0,0
1782771626583746800,6.991746826171875,0,0.0006108652451075613,0
1782771626593734700,7.001734619140625,0,0.0006108652451075613,0.0012217304902151227
1782771626603765800,7.011765869140625,-0.0012217304902151227,0,-0.0006108652451075613
1782771626613723600,7.0217236328125,-0.0006108652451075613,0,0
1782771626623755500,7.031755615234375,-0.0006108652451075613,-0.0012217304902151227,0.0006108652451075613
1782771626633743000,7.0417431640625,-0.0006108652451075613,0.0006108652451075613,-0.0012217304902151227
1782771626643744500,7.05174462890625,0,0.0006108652451075613,0.0006108652451075613
1782771626653732000,7.061732177734375,-0.0012217304902151227,0.0006108652451075613,0.0006108652451075613
1782771626663764000,7.071763916015625,-0.0012217304902151227,0.0006108652451075613,0
1782771626673721300,7.081721435546875,0,0.0012217304902151227,0
1782771626683753000,7.0917529296875,0,0.0006108652451075613,-0.0012217304902151227
1782771626693740800,7.10174072265625,0,0.0006108652451075613,0
1782771626703742000,7.111741943359375,-0.0006108652451075613,0,-0.0006108652451075613
1782771626713729500,7.1217294921875,-0.0006108652451075613,0.0012217304902151227,0
1782771626723761400,7.131761474609375,-0.0006108652451075613,0.0006108652451075613,0
1782771626733718500,7.141718505859375,0.0006108652451075613,-0.0006108652451075613,0.0006108652451075613
1782771626743750700,7.151750732421875,0.0006108652451075613,0.0012217304902151227,0
1782771626753738200,7.16173828125,-0.0012217304902151227,0.0012217304902151227,0
1782771626763739400,7.171739501953125,0,0,0
1782771626773727200,7.181727294921875,-0.0006108652451075613,0.0006108652451075613,-0.0006108652451075613
1782771626783758800,7.1917587890625,-0.0006108652451075613,0,-0.0012217304902151227
1782771626793716200,7.20171630859375,-0.0006108652451075613,0.0006108652451075613,0
1782771626803748000,7.211748046875,-0.0006108652451075613,0,0
1782771626813736000,7.22173583984375,-0.0006108652451075613,0.0006108652451075613,-0.0006108652451075613
1782771626823766000,7.23176611328125,-0.0006108652451075613,0.0006108652451075613,0
1782771626835119000,7.243119140625,-0.0006108652451075613,0.0006108652451075613,0
1782771626853743900,7.261743896484375,-0.0006108652451075613,0.0006108652451075613,0.0006108652451075613
1782771626863745000,7.2717451171875,-0.0006108652451075613,0.0012217304902151227,0
1782771626873732900,7.28173291015625,-0.0006108652451075613,0,-0.0006108652451075613
1782771626883764500,7.291764404296875,-0.0006108652451075613,0,0.0006108652451075613
1782771626893721900,7.301721923828125,0,0.0012217304902151227,0.0006108652451075613
1782771626903753700,7.311753662109375,-0.0006108652451075613,-0.0006108652451075613,0
1782771626913741600,7.321741455078125,-0.0006108652451075613,0,-0.0006108652451075613
1782771626923743200,7.3317431640625,-0.0006108652451075613,0,-0.0006108652451075613
1782771626933730800,7.341730712890625,-0.0012217304902151227,0.0006108652451075613,0
1782771626943762700,7.3517626953125,0,0.0012217304902151227,-0.0006108652451075613
1782771626953720000,7.361719970703125,-0.0012217304902151227,0.0006108652451075613,0
1782771626963751700,7.371751708984375,-0.0006108652451075613,0.02932153269648552,0.015882495790719986
1782771626973739500,7.381739501953125,-0.0006108652451075613,0.06536258012056351,0.036041051149368286
1782771626983740700,7.39174072265625,-0.0006108652451075613,-0.0006108652451075613,-0.0012217304902151227
1782771626993728500,7.401728515625,-0.0006108652451075613,0.003054326167330146,0.0006108652451075613
1782771627003760000,7.411760009765625,0,0.0012217304902151227,0
1782771627013717500,7.421717529296875,0.0006108652451075613,-0.0024434609804302454,-0.0024434609804302454
1782771627023749400,7.431749267578125,0,-0.006719517521560192,-0.00427605677396059
1782771627033737000,7.441737060546875,0,-0.013439035043120384,-0.009162978269159794
1782771627043738400,7.45173828125,-0.0006108652451075613,-0.030543262138962746,-0.018325956538319588
1782771627053726000,7.461725830078125,-0.0006108652451075613,-0.02687807008624077,-0.01466076634824276
1782771627063758000,7.471758056640625,-0.0012217304902151227,-0.0006108652451075613,-0.0006108652451075613
