time,seconds_elapsed,z,y,x
1782771897961350700,0.2003505859375,-0.0006108652451075613,-0.001832595793530345,0
1782771897971927600,0.210927490234375,-0.0006108652451075613,-0.001832595793530345,0
1782771897981920300,0.220920166015625,-0.0006108652451075613,-0.001832595793530345,0
1782771897991947000,0.230947021484375,-0.0006108652451075613,-0.001832595793530345,0
1782771898001909200,0.2409091796875,0.0012217304902151227,0.001832595793530345,-0.004886921960860491
1782771898011936000,0.25093603515625,0.0006108652451075613,0,0
1782771898021928700,0.2609287109375,-0.0006108652451075613,0.0006108652451075613,0.0006108652451075613
1782771898031924700,0.2709248046875,-0.0012217304902151227,0.0006108652451075613,-0.0006108652451075613
1782771898041918000,0.28091796875,-0.0006108652451075613,0.0006108652451075613,-0.0006108652451075613
1782771898051950000,0.2909501953125,0.0006108652451075613,0.0006108652451075613,0
1782771898061907000,0.300906982421875,0,0.0012217304902151227,-0.0006108652451075613
1782771898071938800,0.310938720703125,0,0,0
1782771898081926700,0.3209267578125,0,0,-0.0006108652451075613
1782771898091927800,0.330927734375,-0.0006108652451075613,0.0006108652451075613,0.0006108652451075613
1782771898101915400,0.340915283203125,-0.0006108652451075613,0.0006108652451075613,-0.0006108652451075613
1782771898111947300,0.350947265625,0,0,0.0006108652451075613
1782771898121904400,0.360904296875,-0.0006108652451075613,0.0006108652451075613,-0.0006108652451075613
1782771898131936500,0.3709365234375,0.0006108652451075613,-0.0006108652451075613,0
1782771898141924000,0.380924072265625,-0.0006108652451075613,0,-0.0012217304902151227
1782771898151925200,0.39092529296875,-0.0006108652451075613,0.0006108652451075613,0.0006108652451075613
1782771898161913000,0.4009130859375,-0.0006108652451075613,0.0006108652451075613,0.0006108652451075613
1782771898171944700,0.41094482421875,-0.0006108652451075613,0,0.0006108652451075613
1782771898181902000,0.420902099609375,-0.0006108652451075613,0,-0.0006108652451075613
1782771898191934000,0.430933837890625,-0.0006108652451075613,0.0006108652451075613,0
1782771898201921500,0.440921630859375,0,-0.0006108652451075613,-0.0006108652451075613
1782771898211923000,0.4509228515625,0.0006108652451075613,0,-0.0006108652451075613
1782771898221910500,0.46091064453125,0,0,-0.0006108652451075613
1782771898231942400,0.4709423828125,0,0.0006108652451075613,0
1782771898242400000,0.48139990234375,0,-0.0006108652451075613,-0.0006108652451075613
1782771898251931000,0.490930908203125,0,0.0006108652451075613,0
1782771898261919000,0.5009189453125,-0.0006108652451075613,0.0006108652451075613,-0.0006108652451075613
1782771898271950800,0.510950927734375,0,-0.0006108652451075613,-0.0006108652451075613
1782771898281908200,0.520908203125,-0.001832595793530345,0.0006108652451075613,-0.0006108652451075613
1782771898291939800,0.53093994140625,0,0.0006108652451075613,0
1782771898301927700,0.540927734375,0,0.0012217304902151227,0
1782771898311929000,0.55092919921875,0,0.0006108652451075613,-0.0006108652451075613
1782771898321917000,0.5609169921875,-0.0012217304902151227,0.0006108652451075613,-0.0006108652451075613
1782771898331948500,0.570948486328125,0,0.0006108652451075613,0
1782771898341905700,0.58090576171875,0,0,-0.0006108652451075613
1782771898351937500,0.5909375,-0.0012217304902151227,0.0006108652451075613,0
1782771898361925400,0.60092529296875,-0.0006108652451075613,0.0006108652451075613,-0.001832595793530345
1782771898371926500,0.610926513671875,-0.0006108652451075613,0,0.0006108652451075613
1782771898381914400,0.620914306640625,0,0.0006108652451075613,0.0006108652451075613
1782771898391945200,0.6309453125,-0.0006108652451075613,0,-0.0006108652451075613
1782771898401903400,0.6409033203125,-0.0006108652451075613,0,-0.0012217304902151227
1782771898411934500,0.6509345703125,0,-0.0006108652451075613,-0.0006108652451075613
1782771898421922800,0.6609228515625,0,-0.0006108652451075613,-0.0006108652451075613
1782771898431923500,0.67092333984375,0,0.0012217304902151227,0.0006108652451075613
1782771898441911800,0.680911865234375,-0.0012217304902151227,0,-0.0006108652451075613
1782771898451943700,0.690943603515625,-0.0006108652451075613,0.0006108652451075613,0.0006108652451075613
1782771898461900800,0.70090087890625,-0.0006108652451075613,0,0
1782771898471932400,0.710932373046875,-0.0006108652451075613,-0.0012217304902151227,0
1782771898481920500,0.72092041015625,-0.0006108652451075613,0.0006108652451075613,-0.0006108652451075613
1782771898491952400,0.730952392578125,-0.0006108652451075613,0,-0.0006108652451075613
1782771898501909500,0.740909423828125,0,0,0
1782771898511941400,0.75094140625,-0.0012217304902151227,0,0
1782771898521929000,0.760928955078125,0,0,-0.0012217304902151227
1782771898531930400,0.770930419921875,-0.0006108652451075613,-0.0006108652451075613,0
1782771898541918000,0.78091796875,0,0,-0.0006108652451075613
1782771898551950000,0.7909501953125,-0.0012217304902151227,-0.0006108652451075613,-0.0006108652451075613
1782771898561907000,0.800906982421875,0,0,0.0006108652451075613
1782771898571938600,0.8109384765625,-0.0012217304902151227,0,-0.0006108652451075613
1782771898581926400,0.820926513671875,0,0.0006108652451075613,0
1782771898591927800,0.830927734375,-0.0006108652451075613,-0.0006108652451075613,-0.0006108652451075613
1782771898601915400,0.840915283203125,0,0.0006108652451075613,0
1782771898611947300,0.850947265625,0,0,0.0006108652451075613
1782771898621904400,0.860904296875,-0.0012217304902151227,0.0006108652451075613,-0.0012217304902151227
1782771898631936500,0.8709365234375,-0.0006108652451075613,0,0
1782771898641923800,0.880923828125,0,0,-0.001832595793530345
1782771898651925000,0.890925048828125,-0.001832595793530345,0,0.0006108652451075613
1782771898661913000,0.9009130859375,0,0.0012217304902151227,0.0006108652451075613
1782771898671944700,0.91094482421875,0,0,0.0006108652451075613
1782771898681902300,0.92090234375,0,0.0012217304902151227,0.0006108652451075613
1782771898691933700,0.93093359375,0,-0.0006108652451075613,-0.0006108652451075613
1782771898701921500,0.940921630859375,0.0006108652451075613,0.0006108652451075613,0
1782771898711923000,0.9509228515625,-0.0006108652451075613,0,0
1782771898721933800,0.960933837890625,-0.0006108652451075613,0,-0.0006108652451075613
1782771898731942700,0.970942626953125,0,0,0
1782771898741930000,0.980929931640625,-0.0006108652451075613,0,-0.0006108652451075613
1782771898751931400,0.990931396484375,-0.0006108652451075613,0,0
1782771898761919200,1.000919189453125,0,0.0006108652451075613,0
1782771898771950800,1.010950927734375,-0.0006108652451075613,0,-0.0006108652451075613
1782771898781908200,1.020908203125,-0.0012217304902151227,0,0
1782771898791939600,1.030939697265625,-0.0006108652451075613,0,-0.0006108652451075613
1782771898801927700,1.040927734375,0,-0.0006108652451075613,0
1782771898811929000,1.05092919921875,-0.0006108652451075613,0.0006108652451075613,0
1782771898821915600,1.06091552734375,0,0.0006108652451075613,-0.0006108652451075613
1782771898831947800,1.07094775390625,-0.0012217304902151227,-0.0006108652451075613,0.0006108652451075613
1782771898841905200,1.0809052734375,0,0.0006108652451075613,0
1782771898851937000,1.09093701171875,0,0.0006108652451075613,0
1782771898861924900,1.1009248046875,-0.0006108652451075613,0,0.0006108652451075613
1782771898871926000,1.110926025390625,0,0.0006108652451075613,0
1782771898881913600,1.12091357421875,0,-0.0006108652451075613,0.0006108652451075613
1782771898891945000,1.130945068359375,-0.0006108652451075613,0,0
1782771898901902600,1.140902587890625,-0.0006108652451075613,0.0012217304902151227,0.0006108652451075613
1782771898911934500,1.1509345703125,-0.0006108652451075613,0.0006108652451075613,-0.0006108652451075613
1782771898921922800,1.1609228515625,0,0.0006108652451075613,0
1782771898931924200,1.17092431640625,0,0,0.0006108652451075613
1782771898941911800,1.180911865234375,-0.0006108652451075613,0,-0.0006108652451075613
1782771898951943700,1.190943603515625,-0.0006108652451075613,0,0.0006108652451075613
1782771898961900800,1.20090087890625,-0.0006108652451075613,0,-0.0006108652451075613
1782771898971933000,1.210932861328125,-0.0006108652451075613,0,0
1782771898981920500,1.22092041015625,-0.0006108652451075613,0.0012217304902151227,0
1782771898991951600,1.23095166015625,0,0.0006108652451075613,-0.0006108652451075613
1782771899001909200,1.2409091796875,0.0006108652451075613,-0.0012217304902151227,0.0006108652451075613
1782771899011941000,1.250941162109375,-0.0006108652451075613,0,-0.0006108652451075613
1782771899021928700,1.2609287109375,-0.0012217304902151227,0.0006108652451075613,0
1782771899031944000,1.27094384765625,-0.0006108652451075613,0.0006108652451075613,0
1782771899041918000,1.28091796875,0,0,0
1782771899051944400,1.2909443359375,0,0.0006108652451075613,0
1782771899061907000,1.300906982421875,-0.0012217304902151227,-0.0006108652451075613,0.0006108652451075613
1782771899071933400,1.310933349609375,-0.0006108652451075613,0.0006108652451075613,0.0006108652451075613
1782771899081926700,1.3209267578125,-0.0006108652451075613,0,0.0006108652451075613
1782771899091922700,1.330922607421875,0,0.0006108652451075613,0
1782771899101915400,1.340915283203125,-0.0006108652451075613,0,0
1782771899111941400,1.35094140625,-0.0012217304902151227,-0.0006108652451075613,-0.0012217304902151227
1782771899121904400,1.360904296875,0.0006108652451075613,0,0
1782771899131936500,1.3709365234375,0,0.0006108652451075613,0.0006108652451075613
1782771899141923800,1.380923828125,-0.0012217304902151227,0.0006108652451075613,-0.0012217304902151227
1782771899151925200,1.39092529296875,0,0,-0.0006108652451075613
1782771899161913000,1.4009130859375,-0.0012217304902151227,0.0006108652451075613,0
1782771899171944700,1.41094482421875,0,0,0.0006108652451075613
1782771899181902000,1.420902099609375,-0.0006108652451075613,0,-0.0012217304902151227
1782771899191934000,1.430933837890625,-0.0006108652451075613,0,0.0006108652451075613
1782771899201921500,1.440921630859375,-0.0006108652451075613,0.0006108652451075613,0.0006108652451075613
1782771899211922700,1.450922607421875,-0.0006108652451075613,0.0012217304902151227,0
1782771899221910500,1.46091064453125,0,0.0012217304902151227,0
1782771899231942100,1.470942138671875,-0.0006108652451075613,0,-0.0006108652451075613
1782771899241930000,1.480929931640625,0,0.0012217304902151227,-0.0006108652451075613
1782771899251931400,1.490931396484375,-0.0012217304902151227,0,-0.0006108652451075613
1782771899261919000,1.5009189453125,0.0006108652451075613,0.0006108652451075613,0
1782771899271951000,1.510951171875,0,0,0
1782771899281908200,1.520908203125,0.001832595793530345,0,0
1782771899291939600,1.530939697265625,-0.0006108652451075613,0,-0.0012217304902151227
1782771899301927700,1.540927734375,-0.0012217304902151227,0.0006108652451075613,0.001832595793530345
1782771899311929000,1.55092919921875,-0.0006108652451075613,0.0006108652451075613,0
1782771899321917000,1.5609169921875,-0.0012217304902151227,0,-0.0006108652451075613
1782771899331948500,1.570948486328125,-0.0006108652451075613,0,-0.0006108652451075613
1782771899341905700,1.58090576171875,-0.001832595793530345,0,0
1782771899351937500,1.5909375,0,0.0006108652451075613,-0.0012217304902151227
1782771899361925000,1.600925048828125,0,0.0006108652451075613,-0.0006108652451075613
1782771899371926500,1.610926513671875,-0.0006108652451075613,0.0006108652451075613,0.0006108652451075613
1782771899381914400,1.620914306640625,0.0006108652451075613,0.0012217304902151227,-0.0006108652451075613
1782771899391946000,1.630946044921875,0,0.0006108652451075613,0
1782771899401903400,1.6409033203125,-0.0006108652451075613,-0.0006108652451075613,0
1782771899411935000,1.65093505859375,-0.0006108652451075613,0.0006108652451075613,0
1782771899421922800,1.6609228515625,0,0,0
1782771899431923500,1.67092333984375,-0.0012217304902151227,0,0.0006108652451075613
1782771899441911800,1.680911865234375,-0.0006108652451075613,0,-0.0006108652451075613
1782771899451943000,1.69094287109375,0,0.0006108652451075613,0
1782771899461900800,1.70090087890625,0,0,0
1782771899471932700,1.7109326171875,0,0.0006108652451075613,0
1782771899481920500,1.72092041015625,-0.0006108652451075613,0,0.0006108652451075613
1782771899491951600,1.73095166015625,0,0,0
1782771899501909200,1.7409091796875,0.0006108652451075613,0,-0.0006108652451075613
1782771899511941400,1.75094140625,-0.0006108652451075613,0.0006108652451075613,0
1782771899521928700,1.7609287109375,0,0,0.0006108652451075613
1782771899531930000,1.77093017578125,-0.0012217304902151227,0,-0.0006108652451075613
1782771899541918000,1.78091796875,-0.0006108652451075613,0,0
1782771899551949800,1.79094970703125,0,0.0006108652451075613,0
1782771899561907000,1.800906982421875,-0.0006108652451075613,0.0012217304902151227,-0.0006108652451075613
1782771899571938600,1.8109384765625,0,-0.0006108652451075613,0
1782771899581926700,1.8209267578125,-0.0006108652451075613,0,0
1782771899591927800,1.830927734375,0,0,0
1782771899601915400,1.840915283203125,0,0.0006108652451075613,0.0012217304902151227
1782771899611947300,1.850947265625,0,0.0006108652451075613,-0.0006108652451075613
1782771899621904400,1.860904296875,-0.0006108652451075613,-0.0006108652451075613,0.0006108652451075613
1782771899631935500,1.870935546875,0.0006108652451075613,0,0
1782771899641924000,1.880924072265625,0.0006108652451075613,0.0006108652451075613,-0.0006108652451075613
1782771899651925200,1.89092529296875,0,0.0006108652451075613,0
1782771899661913000,1.9009130859375,0,-0.0006108652451075613,-0.0006108652451075613
1782771899671945000,1.910945068359375,0,0.0012217304902151227,0
1782771899681902000,1.920902099609375,-0.0006108652451075613,0,-0.0006108652451075613
1782771899691934000,1.930933837890625,0,0,0
1782771899701921500,1.940921630859375,-0.0006108652451075613,0,-0.0006108652451075613
1782771899711922400,1.95092236328125,0,0.0006108652451075613,0
1782771899721910500,1.96091064453125,-0.0006108652451075613,-0.0006108652451075613,0
1782771899731942400,1.9709423828125,-0.0006108652451075613,0,0
1782771899741930000,1.980929931640625,0.0006108652451075613,0,0
1782771899751931600,1.990931640625,-0.0006108652451075613,0,-0.0006108652451075613
1782771899761919200,2.000919189453125,0.0006108652451075613,0,-0.0006108652451075613
1782771899771950800,2.010950927734375,0,0.0006108652451075613,-0.0006108652451075613
1782771899781908200,2.020908203125,-0.0006108652451075613,0,-0.0012217304902151227
1782771899791939300,2.030939208984375,-0.0012217304902151227,0.0006108652451075613,-0.0012217304902151227
1782771899801927700,2.040927734375,-0.0006108652451075613,0.0006108652451075613,0.0006108652451075613
1782771899811929000,2.05092919921875,-0.0006108652451075613,0,0.0006108652451075613
1782771899821915600,2.06091552734375,0,0,0
1782771899831947800,2.07094775390625,0,0,-0.0006108652451075613
1782771899841905200,2.0809052734375,0.0012217304902151227,0.0012217304902151227,-0.0006108652451075613
1782771899851937000,2.09093701171875,0,-0.0006108652451075613,-0.0006108652451075613
1782771899861924600,2.100924560546875,-0.0012217304902151227,0.0012217304902151227,-0.0012217304902151227
1782771899871926000,2.110926025390625,-0.0006108652451075613,0.0006108652451075613,-0.0006108652451075613
1782771899881913600,2.12091357421875,0,0,-0.0006108652451075613
1782771899891945700,2.13094580078125,-0.0006108652451075613,0,0
1782771899901902600,2.140902587890625,-0.0012217304902151227,0,0.0006108652451075613
1782771899911934500,2.1509345703125,-0.0006108652451075613,0,-0.0006108652451075613
1782771899921922600,2.160922607421875,-0.0006108652451075613,0,-0.0006108652451075613
1782771899931924200,2.17092431640625,-0.0006108652451075613,0,0
1782771899941911800,2.180911865234375,-0.0006108652451075613,0.0006108652451075613,0
1782771899951943000,2.19094287109375,-0.0006108652451075613,0.0006108652451075613,0
1782771899961900800,2.20090087890625,0,0.0006108652451075613,-0.0006108652451075613
1782771899971932200,2.21093212890625,0,-0.0006108652451075613,0
1782771899981920300,2.220920166015625,-0.0006108652451075613,0.0006108652451075613,0
1782771899991952100,2.2309521484375,0,0,-0.0012217304902151227
1782771900001909200,2.2409091796875,-0.0006108652451075613,0,0
1782771900011941000,2.250941162109375,0,-0.0006108652451075613,-0.0006108652451075613
1782771900021928700,2.2609287109375,0.0006108652451075613,0.0006108652451075613,0.0006108652451075613
1782771900031930000,2.27093017578125,-0.0006108652451075613,0.0006108652451075613,0.0006108652451075613
1782771900041918000,2.28091796875,-0.0006108652451075613,0,0
1782771900051949800,2.29094970703125,-0.0006108652451075613,0.0012217304902151227,-0.0006108652451075613
1782771900061907000,2.300906982421875,-0.0006108652451075613,0,0
1782771900071938600,2.3109384765625,-0.0006108652451075613,0.0006108652451075613,-0.0006108652451075613
1782771900081926700,2.3209267578125,-0.0006108652451075613,0,0.0006108652451075613
1782771900091927600,2.330927490234375,0.0006108652451075613,0,-0.0006108652451075613
1782771900101915400,2.340915283203125,0,0,-0.0006108652451075613
1782771900111961000,2.350961181640625,0.0006108652451075613,0.0006108652451075613,0.0006108652451075613
1782771900121904400,2.360904296875,-0.0006108652451075613,0.0006108652451075613,-0.0006108652451075613
1782771900131931100,2.37093115234375,-0.0006108652451075613,0.0006108652451075613,0
1782771900141923800,2.380923828125,-0.0006108652451075613,0,0.0006108652451075613
1782771900151919900,2.390919921875,0,0.0006108652451075613,0
1782771900161913000,2.4009130859375,-0.0006108652451075613,0,-0.0006108652451075613
1782771900171939800,2.41093994140625,-0.0006108652451075613,0.0006108652451075613,0
1782771900181902000,2.420902099609375,0,0.0006108652451075613,-0.0006108652451075613
1782771900191928000,2.430927978515625,0,0,-0.0006108652451075613
1782771900201921500,2.440921630859375,0,0,-0.0006108652451075613
1782771900211923000,2.4509228515625,-0.0006108652451075613,0,0
1782771900221910500,2.46091064453125,0,0,-0.0006108652451075613
1782771900231942400,2.4709423828125,0,-0.0006108652451075613,0
1782771900241930000,2.480929931640625,-0.0006108652451075613,0,0.0006108652451075613
1782771900251931400,2.490931396484375,-0.0006108652451075613,-0.0006108652451075613,0.0006108652451075613
1782771900261919000,2.5009189453125,-0.0006108652451075613,-0.0012217304902151227,0
1782771900271950800,2.510950927734375,0.0006108652451075613,0.0006108652451075613,0
1782771900281908200,2.520908203125,-0.0006108652451075613,0.0006108652451075613,-0.0006108652451075613
1782771900291940000,2.530940185546875,0,0,0.0006108652451075613
1782771900301928000,2.540927978515625,0,0.0012217304902151227,0
1782771900311928800,2.5509287109375,-0.0006108652451075613,0,0.0006108652451075613
1782771900321916700,2.560916748046875,-0.0012217304902151227,0.0006108652451075613,-0.0006108652451075613
1782771900331948500,2.570948486328125,-0.0006108652451075613,0.0006108652451075613,0
1782771900341905700,2.58090576171875,0,0,-0.0006108652451075613
1782771900351937500,2.5909375,0,0.0006108652451075613,0
1782771900361925400,2.60092529296875,-0.0006108652451075613,0.0006108652451075613,-0.0012217304902151227
1782771900371926300,2.61092626953125,0,0,0.0006108652451075613
1782771900381914400,2.620914306640625,-0.0006108652451075613,0,0
1782771900391946200,2.6309462890625,0,0.0006108652451075613,0.0006108652451075613
1782771900401903000,2.640903076171875,-0.0012217304902151227,0.0006108652451075613,0
1782771900411935200,2.650935302734375,0,0.0012217304902151227,0.0006108652451075613
1782771900421922800,2.6609228515625,0,0.0006108652451075613,-0.0006108652451075613
1782771900431924200,2.67092431640625,-0.0006108652451075613,0.0006108652451075613,-0.0006108652451075613
1782771900441911800,2.680911865234375,0,0,-0.0006108652451075613
1782771900451943400,2.690943359375,-0.0006108652451075613,0.0006108652451075613,-0.0012217304902151227
1782771900461900800,2.70090087890625,-0.0006108652451075613,0.0006108652451075613,-0.0006108652451075613
1782771900471932400,2.710932373046875,0,0.0006108652451075613,-0.0006108652451075613
1782771900481920500,2.72092041015625,0,0.0006108652451075613,0
1782771900491951600,2.73095166015625,-0.0006108652451075613,0,-0.0006108652451075613
1782771900501909200,2.7409091796875,-0.0012217304902151227,0,0
1782771900511941400,2.75094140625,-0.0006108652451075613,0.0012217304902151227,0
1782771900521889000,2.760888916015625,-0.0006108652451075613,0,0
1782771900532022000,2.77102197265625,-0.0006108652451075613,-0.0006108652451075613,0.0006108652451075613
1782771900541918000,2.78091796875,0,0,0.0006108652451075613
1782771900551918300,2.79091845703125,0,0.0006108652451075613,0
1782771900563061500,2.8020615234375,0,-0.0006108652451075613,0
1782771900581926400,2.820926513671875,0,0,0.0006108652451075613
1782771900591927800,2.830927734375,-0.0006108652451075613,0.0006108652451075613,-0.0006108652451075613
1782771900601915400,2.840915283203125,-0.0006108652451075613,0,0
1782771900611915800,2.850915771484375,-0.0006108652451075613,0.0006108652451075613,0
1782771900621996000,2.86099609375,-0.0006108652451075613,0.0006108652451075613,0
1782771900631936000,2.87093603515625,0,0.0006108652451075613,-0.0006108652451075613
1782771900641924000,2.880924072265625,0,0.0012217304902151227,-0.0006108652451075613
1782771900651925200,2.89092529296875,0,0,0
1782771900661913000,2.9009130859375,-0.0006108652451075613,0,0
1782771900671944700,2.91094482421875,-0.0006108652451075613,0,0
1782771900681902000,2.920902099609375,0,0,-0.0006108652451075613
1782771900691934000,2.930933837890625,0.0006108652451075613,0.0006108652451075613,0
1782771900701921500,2.940921630859375,0,0,0
1782771900711922400,2.95092236328125,-0.0006108652451075613,0,-0.0006108652451075613
1782771900721933300,2.960933349609375,-0.0006108652451075613,0,-0.0006108652451075613
1782771900731942700,2.970942626953125,0.0006108652451075613,0.0006108652451075613,0.0006108652451075613
1782771900741930000,2.980929931640625,-0.0006108652451075613,0,0
1782771900751931400,2.990931396484375,-0.0012217304902151227,-0.0006108652451075613,-0.0012217304902151227
1782771900761919200,3.000919189453125,0,0.0006108652451075613,-0.0006108652451075613
1782771900771950800,3.010950927734375,-0.0006108652451075613,0.0006108652451075613,0
1782771900781908200,3.020908203125,0,0,-0.0006108652451075613
1782771900791939800,3.03093994140625,0,-0.0006108652451075613,0
1782771900801928000,3.040927978515625,-0.0006108652451075613,0.0006108652451075613,-0.0006108652451075613
1782771900811929000,3.05092919921875,0,0,0.0006108652451075613
1782771900821915600,3.06091552734375,0,0.0006108652451075613,0.0006108652451075613
1782771900831947800,3.07094775390625,-0.0012217304902151227,0,-0.0006108652451075613
1782771900841905400,3.080905517578125,0,0.0006108652451075613,0
1782771900851937000,3.09093701171875,0,0,0
1782771900861924600,3.100924560546875,-0.0006108652451075613,0.0006108652451075613,-0.0006108652451075613
1782771900871926000,3.110926025390625,-0.0006108652451075613,0.0012217304902151227,0
1782771900881913600,3.12091357421875,-0.0006108652451075613,0,0.0006108652451075613
1782771900891945700,3.13094580078125,-0.0006108652451075613,0,-0.0006108652451075613
1782771900901902600,3.140902587890625,0,0.0012217304902151227,-0.0006108652451075613
1782771900911934500,3.1509345703125,-0.0006108652451075613,0.0006108652451075613,-0.0006108652451075613
1782771900921883000,3.1608828125,0,0,0
1782771900932015900,3.171015869140625,0,0.0006108652451075613,0.0006108652451075613
1782771900941911800,3.180911865234375,0,-0.0006108652451075613,-0.0006108652451075613
1782771900951943700,3.190943603515625,0,0.0006108652451075613,-0.0006108652451075613
1782771900961900800,3.20090087890625,-0.0012217304902151227,0.0006108652451075613,0.0006108652451075613
1782771900971932400,3.210932373046875,0,-0.0006108652451075613,0.0006108652451075613
1782771900981920500,3.22092041015625,-0.0006108652451075613,0,0
1782771900991952100,3.2309521484375,-0.0012217304902151227,0.0006108652451075613,0
1782771901001909200,3.2409091796875,0,0.0006108652451075613,0.0006108652451075613
1782771901011941000,3.250941162109375,-0.0006108652451075613,0.0006108652451075613,0
1782771901021928700,3.2609287109375,-0.0006108652451075613,0,-0.0006108652451075613
1782771901031930000,3.27093017578125,0,0.0006108652451075613,0
1782771901041918000,3.28091796875,0,0.0012217304902151227,0
1782771901051949600,3.290949462890625,0,0,-0.0012217304902151227
1782771901061907000,3.300906982421875,0,0.0006108652451075613,0
1782771901071938800,3.310938720703125,-0.0012217304902151227,0.0006108652451075613,-0.0006108652451075613
1782771901081926700,3.3209267578125,-0.0006108652451075613,0.0006108652451075613,0
1782771901091927600,3.330927490234375,-0.0006108652451075613,0,0
1782771901101915400,3.340915283203125,-0.0006108652451075613,0,0.0006108652451075613
1782771901111947300,3.350947265625,-0.0012217304902151227,0,-0.0006108652451075613
1782771901121904400,3.360904296875,0,0,0
1782771901131936500,3.3709365234375,-0.0006108652451075613,0,0.0006108652451075613
1782771901141923800,3.380923828125,0,-0.0006108652451075613,-0.0006108652451075613
1782771901151925200,3.39092529296875,0,0,0.0006108652451075613
1782771901161913000,3.4009130859375,0.0006108652451075613,0,-0.0006108652451075613
1782771901171944700,3.41094482421875,0,0.0006108652451075613,0
1782771901181902000,3.420902099609375,-0.0006108652451075613,0.0006108652451075613,-0.0006108652451075613
1782771901191947800,3.43094775390625,-0.0012217304902151227,0,0.0006108652451075613
1782771901201921500,3.440921630859375,-0.0012217304902151227,0.0006108652451075613,-0.0006108652451075613
1782771901211917800,3.450917724609375,0,0,-0.0006108652451075613
1782771901221910500,3.46091064453125,0,0,0
1782771901231937000,3.47093701171875,-0.0006108652451075613,0,0
1782771901241890000,3.48089013671875,-0.0006108652451075613,0.0012217304902151227,0
1782771901251961000,3.490961181640625,-0.0006108652451075613,0,-0.0006108652451075613
1782771901261980200,3.500980224609375,-0.0006108652451075613,0,0
1782771901271945700,3.51094580078125,0.0006108652451075613,-0.0006108652451075613,0.0006108652451075613
1782771901281908200,3.520908203125,0,-0.0006108652451075613,0
1782771901291939800,3.53093994140625,0,0.0006108652451075613,0.0006108652451075613
1782771901301927700,3.540927734375,0,0.0006108652451075613,0
1782771901311897300,3.5508974609375,-0.0006108652451075613,-0.0006108652451075613,0.0012217304902151227
1782771901323017500,3.562017578125,0,0.0006108652451075613,0
1782771901341905700,3.58090576171875,0,0,0
1782771901351937000,3.59093701171875,-0.0006108652451075613,0,0.0006108652451075613
1782771901361925000,3.600925048828125,0,0,0.0006108652451075613
1782771901371926500,3.610926513671875,0.0006108652451075613,0,0
1782771901381914000,3.6209140625,-0.0012217304902151227,0,-0.0006108652451075613
1782771901391946000,3.630946044921875,-0.0006108652451075613,0.0006108652451075613,-0.0012217304902151227
1782771901401863200,3.64086328125,0,0,0
1782771901411996200,3.65099609375,0,-0.0006108652451075613,-0.0006108652451075613
1782771901421922600,3.660922607421875,-0.0006108652451075613,0,-0.0006108652451075613
1782771901431924200,3.67092431640625,0,0.0006108652451075613,-0.0006108652451075613
1782771901441911800,3.680911865234375,0,0.0006108652451075613,0
1782771901451943700,3.690943603515625,0,0,0
1782771901461900800,3.70090087890625,-0.0012217304902151227,0.0012217304902151227,0.0006108652451075613
1782771901471932400,3.710932373046875,0,0,-0.0006108652451075613
1782771901481920500,3.72092041015625,0,0,-0.0006108652451075613
1782771901491952000,3.7309521484375,-0.0006108652451075613,0,0
1782771901501909200,3.7409091796875,-0.0006108652451075613,0.0012217304902151227,0.0006108652451075613
1782771901511941000,3.750941162109375,-0.0012217304902151227,-0.0006108652451075613,0
1782771901521928700,3.7609287109375,0,0,-0.0012217304902151227
1782771901531930400,3.770930419921875,0,0.0012217304902151227,0.0006108652451075613
1782771901541918000,3.78091796875,-0.0006108652451075613,-0.0006108652451075613,0
1782771901551950000,3.7909501953125,0,0,0
1782771901561907000,3.800906982421875,0,0,0.0006108652451075613
1782771901571938600,3.8109384765625,0,0,-0.0006108652451075613
1782771901581926400,3.820926513671875,-0.0006108652451075613,0,-0.0006108652451075613
1782771901591927800,3.830927734375,-0.0006108652451075613,0.0006108652451075613,-0.0006108652451075613
1782771901601915400,3.840915283203125,-0.0006108652451075613,0,-0.0012217304902151227
1782771901611947300,3.850947265625,0,0.0006108652451075613,0
1782771901621904400,3.860904296875,0,0.0006108652451075613,-0.0006108652451075613
1782771901631936500,3.8709365234375,0,-0.0006108652451075613,0.0006108652451075613
1782771901641924000,3.880924072265625,0,0.0012217304902151227,0
1782771901651925200,3.89092529296875,-0.0006108652451075613,-0.0006108652451075613,0.0006108652451075613
1782771901661913000,3.9009130859375,0,0,-0.0006108652451075613
1782771901671945000,3.910945068359375,0,0,-0.0006108652451075613
1782771901681902000,3.920902099609375,-0.0006108652451075613,0,-0.0006108652451075613
1782771901691934000,3.930933837890625,-0.0006108652451075613,0,0.0006108652451075613
1782771901701921500,3.940921630859375,0,0.0006108652451075613,-0.0006108652451075613
1782771901711923000,3.9509228515625,0,0,0
1782771901721910500,3.96091064453125,-0.0012217304902151227,0.0006108652451075613,0.0006108652451075613
1782771901731942400,3.9709423828125,0,0,-0.0006108652451075613
1782771901741930000,3.980929931640625,0.0006108652451075613,-0.0006108652451075613,-0.0006108652451075613
1782771901751931400,3.990931396484375,-0.0006108652451075613,0.0006108652451075613,-0.0006108652451075613
1782771901761919200,4.000919189453125,0.0012217304902151227,0.0006108652451075613,0
1782771901771950800,4.010950927734375,-0.0012217304902151227,0.0006108652451075613,0.0006108652451075613
1782771901781908200,4.020908203125,-0.0006108652451075613,-0.0006108652451075613,-0.0006108652451075613
1782771901791940000,4.030940185546875,-0.0006108652451075613,0.0012217304902151227,-0.0006108652451075613
1782771901801928000,4.040927978515625,-0.0006108652451075613,0,-0.0006108652451075613
1782771901811929000,4.05092919921875,-0.0006108652451075613,-0.0006108652451075613,0.0006108652451075613
1782771901821915600,4.06091552734375,0,0,-0.0006108652451075613
1782771901831948000,4.070947998046875,0,0.0006108652451075613,-0.0006108652451075613
1782771901841905200,4.0809052734375,-0.0012217304902151227,0,0
1782771901851937000,4.09093701171875,-0.0012217304902151227,0.0006108652451075613,0
1782771901861924600,4.100924560546875,-0.0006108652451075613,0.0006108652451075613,-0.0006108652451075613
1782771901871925500,4.110925537109375,-0.0006108652451075613,0,0.0006108652451075613
1782771901881913600,4.12091357421875,-0.0006108652451075613,0.0012217304902151227,-0.0006108652451075613
1782771901891945500,4.130945556640625,0,0,0.0006108652451075613
1782771901901902800,4.14090283203125,-0.0006108652451075613,0.0006108652451075613,0
1782771901911934700,4.150934814453125,-0.0012217304902151227,0,0
1782771901921922800,4.1609228515625,0.0006108652451075613,0.0006108652451075613,0
1782771901931892500,4.170892578125,-0.0006108652451075613,0.0006108652451075613,0
1782771901941910000,4.180909912109375,0,0.0006108652451075613,-0.0006108652451075613
1782771901951943700,4.190943603515625,-0.0012217304902151227,0,-0.0006108652451075613
1782771901961900800,4.20090087890625,0,0,0
1782771901971932700,4.2109326171875,0,0.0006108652451075613,-0.0006108652451075613
1782771901981920300,4.220920166015625,-0.0012217304902151227,0.0006108652451075613,0
1782771901991952100,4.2309521484375,-0.0012217304902151227,0.0006108652451075613,0.0006108652451075613
1782771902001909200,4.2409091796875,0,-0.0006108652451075613,0
1782771902011941000,4.250941162109375,0,0,0
1782771902021928700,4.2609287109375,-0.0012217304902151227,0,-0.0006108652451075613
1782771902031930400,4.270930419921875,-0.0006108652451075613,0.0006108652451075613,-0.0006108652451075613
1782771902041918000,4.28091796875,0,0,-0.0006108652451075613
1782771902051949800,4.29094970703125,-0.0006108652451075613,0.0012217304902151227,-0.0006108652451075613
1782771902061907000,4.300906982421875,0,0.0006108652451075613,0
1782771902071938800,4.310938720703125,0.0006108652451075613,0,-0.0006108652451075613
1782771902081926400,4.320926513671875,0,0.0006108652451075613,0
1782771902091927800,4.330927734375,0,0.0006108652451075613,0
1782771902101915400,4.340915283203125,-0.0006108652451075613,0.0006108652451075613,0
1782771902111947300,4.350947265625,-0.0012217304902151227,0.0012217304902151227,0
1782771902121904400,4.360904296875,0,0.0006108652451075613,-0.0006108652451075613
1782771902131936300,4.370936279296875,-0.0012217304902151227,0.0006108652451075613,0.0006108652451075613
1782771902141923800,4.380923828125,-0.0006108652451075613,0.0006108652451075613,-0.0006108652451075613
1782771902151925200,4.39092529296875,0,-0.0006108652451075613,0
1782771902161913000,4.4009130859375,0,0,0.0006108652451075613
1782771902171944700,4.41094482421875,0,0.0006108652451075613,0
1782771902181862100,4.420862060546875,0,0.0006108652451075613,-0.0006108652451075613
1782771902191994400,4.430994384765625,0,0,-0.0006108652451075613
1782771902201921500,4.440921630859375,-0.0006108652451075613,0.0012217304902151227,-0.0006108652451075613
1782771902211922700,4.450922607421875,-0.0012217304902151227,0,-0.0006108652451075613
1782771902221910500,4.46091064453125,-0.0006108652451075613,-0.0006108652451075613,0
1782771902231911000,4.470910888671875,0,0.0012217304902151227,0
1782771902243046700,4.482046630859375,0,0.0006108652451075613,-0.0006108652451075613
1782771902261848800,4.500848876953125,-0.0006108652451075613,0,0
1782771902271965000,4.51096484375,0,0.0012217304902151227,-0.0006108652451075613
1782771902281908200,4.520908203125,0,0,0.0006108652451075613
1782771902291934700,4.530934814453125,0,0,0
1782771902301927700,4.540927734375,0,-0.0006108652451075613,-0.0006108652451075613
1782771902311923700,4.550923828125,0,-0.0006108652451075613,0
1782771902321876700,4.560876708984375,-0.0006108652451075613,0,0
1782771902332003800,4.57100390625,0,0.0006108652451075613,-0.0006108652451075613
1782771902341905700,4.58090576171875,-0.0006108652451075613,0,-0.0012217304902151227
1782771902351875600,4.59087548828125,-0.0006108652451075613,0.0006108652451075613,0.0006108652451075613
1782771902362892500,4.601892578125,-0.0012217304902151227,0,-0.0006108652451075613
1782771902381914400,4.620914306640625,0.0006108652451075613,-0.0006108652451075613,0
1782771902391946200,4.6309462890625,-0.0006108652451075613,0,-0.0006108652451075613
1782771902401903000,4.640903076171875,-0.0006108652451075613,0,0
1782771902411935000,4.65093505859375,-0.0006108652451075613,0.0006108652451075613,-0.0006108652451075613
1782771902421922800,4.6609228515625,-0.0012217304902151227,0,0
1782771902431924200,4.67092431640625,-0.0006108652451075613,0.0012217304902151227,0
1782771902441911800,4.680911865234375,-0.0006108652451075613,0,-0.0006108652451075613
1782771902451944000,4.69094384765625,-0.0012217304902151227,0.0006108652451075613,0.0006108652451075613
1782771902461900800,4.70090087890625,-0.0012217304902151227,0.0006108652451075613,0
1782771902471932700,4.7109326171875,0.0006108652451075613,0,0
1782771902481920300,4.720920166015625,-0.0006108652451075613,-0.0006108652451075613,-0.0006108652451075613
1782771902491952000,4.7309521484375,-0.0012217304902151227,0.0012217304902151227,-0.0012217304902151227
1782771902501869300,4.740869384765625,0,0.0006108652451075613,0.0006108652451075613
1782771902512002000,4.751001953125,0,0.0006108652451075613,-0.0006108652451075613
1782771902521928700,4.7609287109375,-0.0006108652451075613,0,0
1782771902531929600,4.7709296875,0,0,0.0006108652451075613
1782771902541878000,4.7808779296875,-0.001832595793530345,0,-0.0006108652451075613
1782771902552010500,4.791010498046875,0,0.0006108652451075613,0
1782771902561907000,4.800906982421875,-0.0006108652451075613,0.0006108652451075613,0.0006108652451075613
1782771902571938600,4.8109384765625,0,0,0
1782771902581926400,4.820926513671875,0,-0.0006108652451075613,0
1782771902591927600,4.830927490234375,0,-0.0006108652451075613,0
1782771902601875500,4.84087548828125,0.0006108652451075613,0.0006108652451075613,0
1782771902612008200,4.85100830078125,0.0006108652451075613,0,-0.0012217304902151227
1782771902621904400,4.860904296875,-0.0006108652451075613,0,-0.001832595793530345
1782771902631904800,4.87090478515625,-0.0006108652451075613,0,-0.0006108652451075613
1782771902642952200,4.8819521484375,0,0.0006108652451075613,-0.0006108652451075613
1782771902661873200,4.900873046875,0,0,-0.0006108652451075613
1782771902672006000,4.911005859375,0.0006108652451075613,0,0
1782771902681902000,4.920902099609375,0,-0.0006108652451075613,0
1782771902691934000,4.930933837890625,-0.0006108652451075613,0.0006108652451075613,-0.0006108652451075613
1782771902701921500,4.940921630859375,-0.0006108652451075613,-0.0006108652451075613,-0.0006108652451075613
1782771902711923000,4.9509228515625,-0.0012217304902151227,0.0006108652451075613,-0.0006108652451075613
1782771902721901000,4.960901123046875,-0.0012217304902151227,0,0
1782771902732003600,4.971003662109375,0,0,0.0006108652451075613
1782771902741890000,4.98089013671875,0,0.0006108652451075613,0
1782771902752023000,4.99102294921875,-0.0006108652451075613,0.0006108652451075613,0
1782771902761879300,5.00087939453125,0,0.0006108652451075613,0
1782771902771980500,5.01098046875,-0.0006108652451075613,0.0006108652451075613,-0.0006108652451075613
1782771902781999900,5.020999755859375,-0.0006108652451075613,0.0006108652451075613,0.0006108652451075613
1782771902791939300,5.030939208984375,-0.0012217304902151227,0.0006108652451075613,0
1782771902801927700,5.040927734375,-0.0012217304902151227,0,-0.0006108652451075613
1782771902811929000,5.05092919921875,0.0006108652451075613,0.0006108652451075613,0.0006108652451075613
1782771902821915600,5.06091552734375,-0.0012217304902151227,-0.0006108652451075613,0.0006108652451075613
1782771902831947800,5.07094775390625,0,0,-0.0006108652451075613
1782771902841905200,5.0809052734375,0,0.0006108652451075613,-0.0006108652451075613
1782771902851937000,5.09093701171875,-0.0006108652451075613,0.0006108652451075613,-0.0006108652451075613
1782771902861924900,5.1009248046875,0,0,0.0006108652451075613
1782771902871926000,5.110926025390625,0,0,0
1782771902881913600,5.12091357421875,-0.0006108652451075613,0,-0.0006108652451075613
1782771902891945700,5.13094580078125,-0.0006108652451075613,0,0
1782771902901902600,5.140902587890625,-0.0012217304902151227,0,-0.0012217304902151227
1782771902911934500,5.1509345703125,-0.0006108652451075613,0.0006108652451075613,0.0006108652451075613
1782771902921922800,5.1609228515625,-0.0006108652451075613,0.0012217304902151227,0
1782771902931924200,5.17092431640625,-0.0006108652451075613,0.0006108652451075613,0
1782771902941911800,5.180911865234375,0.0006108652451075613,-0.0006108652451075613,0
1782771902951943700,5.190943603515625,0,0.0006108652451075613,0
1782771902961900800,5.20090087890625,-0.0006108652451075613,0,-0.0012217304902151227
1782771902971901200,5.210901123046875,-0.0006108652451075613,0.0006108652451075613,0.0012217304902151227
1782771902981981400,5.2209814453125,-0.0006108652451075613,0.0006108652451075613,-0.0006108652451075613
1782771902991952100,5.2309521484375,0,0,0.0006108652451075613
1782771903001869300,5.240869384765625,0,0.0012217304902151227,0
1782771903012002000,5.251001953125,0,0.0006108652451075613,0.0006108652451075613
1782771903021928700,5.2609287109375,-0.001832595793530345,-0.0006108652451075613,0
1782771903031930000,5.27093017578125,-0.0006108652451075613,0,-0.0006108652451075613
1782771903041918000,5.28091796875,-0.0006108652451075613,0,-0.0006108652451075613
1782771903051949800,5.29094970703125,-0.0012217304902151227,0,0
1782771903061907000,5.300906982421875,0,0.0012217304902151227,-0.0006108652451075613
1782771903071938600,5.3109384765625,-0.0006108652451075613,0,0
1782771903081926700,5.3209267578125,0.0006108652451075613,0,-0.0006108652451075613
1782771903091927800,5.330927734375,0,0,0.0012217304902151227
1782771903101915400,5.340915283203125,-0.0006108652451075613,0,-0.0006108652451075613
1782771903111947300,5.350947265625,-0.0006108652451075613,0.0006108652451075613,0
1782771903121904400,5.360904296875,0,0.0006108652451075613,-0.0006108652451075613
1782771903131936300,5.370936279296875,-0.0006108652451075613,0.0006108652451075613,0
1782771903141923800,5.380923828125,0,0,0
1782771903151924700,5.3909248046875,-0.0006108652451075613,0.0006108652451075613,-0.0006108652451075613
1782771903161913000,5.4009130859375,-0.001832595793530345,-0.0006108652451075613,-0.0006108652451075613
1782771903171944700,5.41094482421875,-0.0006108652451075613,0,0
1782771903181902000,5.420902099609375,0,0,-0.0006108652451075613
1782771903191934000,5.430933837890625,-0.0006108652451075613,0,0.0012217304902151227
1782771903201881600,5.440881591796875,-0.0012217304902151227,0.0006108652451075613,0
1782771903212014300,5.451014404296875,0,0,-0.0006108652451075613
1782771903221870600,5.46087060546875,0.0006108652451075613,0.0006108652451075613,0
1782771903232003000,5.471003173828125,-0.0012217304902151227,0.0012217304902151227,-0.0006108652451075613
1782771903241930000,5.480929931640625,0.0006108652451075613,0.0006108652451075613,0.0006108652451075613
1782771903251931400,5.490931396484375,-0.0006108652451075613,0,0.0006108652451075613
1782771903261919000,5.5009189453125,-0.0006108652451075613,0,0
1782771903271950800,5.510950927734375,0,0.0006108652451075613,0.0006108652451075613
1782771903281908200,5.520908203125,-0.0006108652451075613,0.0012217304902151227,-0.001832595793530345
1782771903291939800,5.53093994140625,-0.0012217304902151227,0,0
1782771903301928000,5.540927978515625,-0.0006108652451075613,0,0.0006108652451075613
1782771903311928800,5.5509287109375,-0.0012217304902151227,0,0.0006108652451075613
1782771903321916700,5.560916748046875,-0.0006108652451075613,0.0006108652451075613,0
1782771903331917000,5.5709169921875,0,0,0.0006108652451075613
1782771903341957400,5.580957275390625,-0.0006108652451075613,-0.0006108652451075613,0
1782771903352012500,5.591012451171875,-0.0012217304902151227,0,0.0006108652451075613
1782771903361925000,5.600925048828125,-0.0012217304902151227,0,-0.0006108652451075613
1782771903371921400,5.61092138671875,0,0,0.0006108652451075613
1782771903381914400,5.620914306640625,0,0.0006108652451075613,0
1782771903391940900,5.63094091796875,-0.0006108652451075613,0,0
1782771903401903400,5.6409033203125,-0.001832595793530345,0,-0.0006108652451075613
1782771903411929300,5.650929443359375,-0.0006108652451075613,0,0.0006108652451075613
1782771903421922600,5.660922607421875,0.0006108652451075613,-0.0006108652451075613,0
1782771903431918800,5.6709189453125,-0.0006108652451075613,0,0
1782771903441911800,5.680911865234375,0,0.0006108652451075613,0.0006108652451075613
1782771903451943400,5.690943359375,0,0.0006108652451075613,0
1782771903461901000,5.700901123046875,0,0.0006108652451075613,-0.0006108652451075613
1782771903471932200,5.71093212890625,0.0006108652451075613,0,0
1782771903481920500,5.72092041015625,-0.0012217304902151227,0,-0.0006108652451075613
1782771903491952000,5.7309521484375,0,0.0006108652451075613,0
1782771903501909200,5.7409091796875,-0.0006108652451075613,0.0006108652451075613,-0.0006108652451075613
1782771903511941000,5.750941162109375,0,0.0006108652451075613,-0.0006108652451075613
1782771903521928700,5.7609287109375,-0.0012217304902151227,0.0006108652451075613,-0.0006108652451075613
1782771903531930400,5.770930419921875,-0.001832595793530345,0,-0.0006108652451075613
1782771903541918000,5.78091796875,0,0.0006108652451075613,0.0006108652451075613
1782771903551949600,5.790949462890625,0,-0.0006108652451075613,-0.0006108652451075613
1782771903561907000,5.800906982421875,-0.0006108652451075613,-0.0006108652451075613,0
1782771903571938600,5.8109384765625,0,0.0012217304902151227,0
1782771903581926400,5.820926513671875,-0.0012217304902151227,0,-0.0006108652451075613
1782771903591927800,5.830927734375,-0.0006108652451075613,0,0.0006108652451075613
1782771903601915400,5.840915283203125,-0.0012217304902151227,0.0006108652451075613,0
1782771903611947300,5.850947265625,0,0,-0.0006108652451075613
1782771903621904400,5.860904296875,0,0.0006108652451075613,0
1782771903631936300,5.870936279296875,0,0.0006108652451075613,-0.0012217304902151227
1782771903641924000,5.880924072265625,-0.0006108652451075613,0,-0.0006108652451075613
1782771903651925500,5.890925537109375,-0.0012217304902151227,0.0006108652451075613,0
1782771903661913000,5.9009130859375,-0.0006108652451075613,0,0
1782771903671944700,5.91094482421875,0,0.0006108652451075613,0.0012217304902151227
1782771903681902000,5.920902099609375,0.0006108652451075613,0.0006108652451075613,0
1782771903691933400,5.930933349609375,0.0006108652451075613,0.0012217304902151227,-0.0006108652451075613
1782771903701921500,5.940921630859375,-0.0006108652451075613,0,0
1782771903711923200,5.950923095703125,-0.0006108652451075613,0,-0.0006108652451075613
1782771903721910500,5.96091064453125,-0.0012217304902151227,-0.0006108652451075613,-0.0006108652451075613
1782771903731942000,5.97094189453125,-0.0006108652451075613,0,0.0006108652451075613
1782771903741930000,5.980929931640625,-0.0012217304902151227,0.0006108652451075613,0
1782771903751931400,5.990931396484375,0,0,-0.0006108652451075613
1782771903761919200,6.000919189453125,0,0.0006108652451075613,0
1782771903771950800,6.010950927734375,0,-0.0006108652451075613,0
1782771903781908200,6.020908203125,0,0,0
1782771903791940000,6.030940185546875,0,0.0006108652451075613,0
1782771903801928000,6.040927978515625,-0.0006108652451075613,0.0006108652451075613,0
1782771903811929000,6.05092919921875,-0.0012217304902151227,-0.0006108652451075613,-0.0006108652451075613
1782771903821916000,6.060916015625,0,0,0.0006108652451075613
1782771903831947800,6.07094775390625,0,0,0
1782771903841905200,6.0809052734375,-0.0006108652451075613,-0.0006108652451075613,-0.0006108652451075613
1782771903851937000,6.09093701171875,0,0,-0.0006108652451075613
1782771903861924900,6.1009248046875,-0.0012217304902151227,0,0.0006108652451075613
1782771903871926000,6.110926025390625,-0.0006108652451075613,0,-0.0006108652451075613
1782771903881913900,6.120913818359375,-0.0006108652451075613,0.0006108652451075613,0
1782771903891945700,6.13094580078125,-0.0006108652451075613,0,0
1782771903901902600,6.140902587890625,-0.0006108652451075613,0.0006108652451075613,-0.0006108652451075613
1782771903911934500,6.1509345703125,-0.0006108652451075613,0,-0.0006108652451075613
1782771903921922800,6.1609228515625,0,0.0006108652451075613,0
1782771903931924200,6.17092431640625,-0.0006108652451075613,0,0
1782771903941911800,6.180911865234375,-0.0006108652451075613,0.0006108652451075613,-0.0006108652451075613
1782771903951943700,6.190943603515625,-0.0012217304902151227,0.0006108652451075613,0
1782771903961900800,6.20090087890625,-0.0012217304902151227,0.0006108652451075613,0
1782771903971932400,6.210932373046875,-0.0012217304902151227,0,-0.0012217304902151227
1782771903981920500,6.22092041015625,0,0,0.0006108652451075613
1782771903991952100,6.2309521484375,0,0,0
1782771904001909500,6.240909423828125,-0.0012217304902151227,-0.0006108652451075613,-0.0006108652451075613
1782771904011941400,6.25094140625,0.0006108652451075613,0,0.0006108652451075613
1782771904021928700,6.2609287109375,-0.0006108652451075613,0.0006108652451075613,-0.0006108652451075613
1782771904031930000,6.27093017578125,-0.0006108652451075613,0.0006108652451075613,0
1782771904041918000,6.28091796875,0,0,-0.0012217304902151227
1782771904051949600,6.290949462890625,-0.0006108652451075613,0,0
1782771904061907000,6.300906982421875,0,0,-0.0006108652451075613
1782771904071939000,6.31093896484375,-0.0006108652451075613,-0.0006108652451075613,0.0006108652451075613
1782771904081926400,6.320926513671875,-0.0006108652451075613,0,0.0006108652451075613
1782771904091927800,6.330927734375,-0.0012217304902151227,0.0006108652451075613,0
1782771904101915400,6.340915283203125,-0.0006108652451075613,0,-0.0006108652451075613
1782771904111947300,6.350947265625,0,-0.0006108652451075613,-0.0006108652451075613
1782771904121904400,6.360904296875,-0.0006108652451075613,0.0012217304902151227,0
1782771904131936300,6.370936279296875,-0.0012217304902151227,0,0
1782771904141923800,6.380923828125,0,0,-0.0012217304902151227
1782771904151925200,6.39092529296875,-0.0006108652451075613,-0.0006108652451075613,0
1782771904161913000,6.4009130859375,-0.0006108652451075613,0,-0.0006108652451075613
1782771904171944700,6.41094482421875,-0.0006108652451075613,0.0006108652451075613,0
1782771904181902300,6.42090234375,0,0.0006108652451075613,0
1782771904191934000,6.430933837890625,-0.0012217304902151227,0.0006108652451075613,-0.0006108652451075613
1782771904201921500,6.440921630859375,-0.0012217304902151227,0,0
1782771904211922700,6.450922607421875,-0.0006108652451075613,0,0
1782771904221910500,6.46091064453125,-0.0012217304902151227,0.0006108652451075613,0
1782771904231942400,6.4709423828125,-0.0006108652451075613,0,0.0006108652451075613
1782771904241930000,6.480929931640625,0,-0.0006108652451075613,0.0006108652451075613
1782771904251931400,6.490931396484375,0,0.0006108652451075613,0
1782771904261919200,6.500919189453125,0,0,0
1782771904271950800,6.510950927734375,0.0012217304902151227,0.0012217304902151227,0
1782771904281908200,6.520908203125,-0.0006108652451075613,0.0006108652451075613,0
1782771904291939800,6.53093994140625,-0.0006108652451075613,0.0006108652451075613,0
1782771904301927700,6.540927734375,-0.0006108652451075613,0,0
1782771904311928600,6.550928466796875,-0.0006108652451075613,0.0006108652451075613,-0.0006108652451075613
1782771904321916700,6.560916748046875,0.0006108652451075613,0,-0.0006108652451075613
1782771904331948500,6.570948486328125,-0.0006108652451075613,0,0
1782771904341905700,6.58090576171875,-0.0012217304902151227,0.0006108652451075613,0.0006108652451075613
1782771904351937300,6.590937255859375,-0.0006108652451075613,0.0006108652451075613,0
1782771904361925400,6.60092529296875,-0.0006108652451075613,0.0006108652451075613,-0.0006108652451075613
1782771904371926800,6.6109267578125,-0.0006108652451075613,0.0006108652451075613,0
1782771904381914400,6.620914306640625,-0.0012217304902151227,0,0.0012217304902151227
1782771904391946000,6.630946044921875,0,0.0006108652451075613,0
1782771904401903400,6.6409033203125,0,0,-0.0012217304902151227
1782771904411935200,6.650935302734375,0,0,-0.0006108652451075613
1782771904421922800,6.6609228515625,0,0,0.0006108652451075613
1782771904431938000,6.67093798828125,-0.0006108652451075613,0,-0.001832595793530345
1782771904441911800,6.680911865234375,-0.0006108652451075613,0.0006108652451075613,-0.0012217304902151227
1782771904451938600,6.6909384765625,-0.0006108652451075613,0,0
1782771904461900800,6.70090087890625,-0.0012217304902151227,0,0
1782771904471927600,6.710927490234375,-0.0006108652451075613,0.0006108652451075613,0
1782771904481920500,6.72092041015625,-0.0006108652451075613,0,-0.0006108652451075613
1782771904491947000,6.730947021484375,0,0.09224065393209457,0.06230825558304787
1782771904501909200,6.7409091796875,-0.0024434609804302454,0.15943582355976105,0.09468411654233932
1782771904511936000,6.75093603515625,-0.0012217304902151227,-0.021380282938480377,0.0024434609804302454
1782771904521928700,6.7609287109375,0,-0.006108652334660292,-0.00733038317412138
1782771904531929900,6.770929931640625,0.0006108652451075613,0.0006108652451075613,-0.00366519158706069
1782771904541918000,6.78091796875,0.001832595793530345,-0.006108652334660292,-0.00855211354792118
1782771904551949300,6.79094921875,0,-0.04948008432984352,-0.029932396486401558
1782771904561907000,6.800906982421875,-0.0024434609804302454,-0.12034045159816742,-0.06841690838336945
1782771904571938600,6.8109384765625,0,-0.04642575979232788,-0.02687807008624077
