time,seconds_elapsed,z,y,x
1782771778739992300,0.208992431640625,-0.001832595793530345,-0.00427605677396059,-0.0024434609804302454
1782771778750569000,0.21956884765625,-0.001832595793530345,-0.00427605677396059,-0.0024434609804302454
1782771778760562000,0.22956201171875,-0.001832595793530345,-0.00427605677396059,-0.0024434609804302454
1782771778770588400,0.23958837890625,-0.001832595793530345,-0.00427605677396059,-0.0024434609804302454
1782771778780551000,0.249551025390625,-0.0012217304902151227,0.0012217304902151227,-0.0006108652451075613
1782771778790577000,0.259576904296875,-0.0012217304902151227,0.0006108652451075613,0.0006108652451075613
1782771778800570400,0.2695703125,-0.0006108652451075613,0.0006108652451075613,-0.0006108652451075613
1782771778810566000,0.27956591796875,0,0,0
1782771778820558600,0.28955859375,-0.0012217304902151227,0.0012217304902151227,0.0012217304902151227
1782771778830590500,0.299590576171875,0.0006108652451075613,0.0006108652451075613,0
1782771778840548000,0.309548095703125,0,0.0006108652451075613,0
1782771778850579700,0.319579833984375,-0.0006108652451075613,0.0006108652451075613,0
1782771778860567300,0.3295673828125,0,0,-0.0012217304902151227
1782771778870568700,0.339568603515625,0,0.0012217304902151227,0
1782771778880556500,0.349556640625,0.0006108652451075613,0.0006108652451075613,-0.0006108652451075613
1782771778890588200,0.359588134765625,0,0.0006108652451075613,0
1782771778900545500,0.369545654296875,0.0006108652451075613,0.0012217304902151227,0
1782771778910577200,0.3795771484375,-0.0012217304902151227,0,0
1782771778920565500,0.3895654296875,-0.0006108652451075613,0.0012217304902151227,0
1782771778930566100,0.399566162109375,-0.0006108652451075613,0,0.0006108652451075613
1782771778940554500,0.409554443359375,0,0.0006108652451075613,-0.0006108652451075613
1782771778950586000,0.419586181640625,-0.0006108652451075613,0.0006108652451075613,0
1782771778960543500,0.42954345703125,0,0,-0.0006108652451075613
1782771778970575600,0.43957568359375,0,0,0
1782771778980563200,0.449563232421875,0.0006108652451075613,0.0006108652451075613,0
1782771778990564400,0.459564453125,0.0006108652451075613,0.0006108652451075613,0
1782771779000552200,0.46955224609375,0,0.0006108652451075613,0
1782771779010583800,0.479583740234375,0,0.0006108652451075613,0
1782771779020571600,0.489571533203125,-0.0006108652451075613,0.0006108652451075613,0
1782771779030573000,0.499572998046875,-0.0012217304902151227,0.0006108652451075613,0
1782771779040560600,0.509560546875,0,0.0012217304902151227,-0.0006108652451075613
1782771779050592500,0.519592529296875,-0.0006108652451075613,0.0006108652451075613,0
1782771779060549600,0.529549560546875,-0.0012217304902151227,0.0006108652451075613,0.0006108652451075613
1782771779070581200,0.539581298828125,0,0.0006108652451075613,0
1782771779080569300,0.5495693359375,0,0,-0.0006108652451075613
1782771779090570500,0.559570556640625,0,0,0
1782771779100558000,0.56955810546875,0,0,-0.0006108652451075613
1782771779110590000,0.57958984375,0.0006108652451075613,0,-0.0006108652451075613
1782771779120547000,0.589547119140625,-0.0006108652451075613,0.0006108652451075613,0
1782771779130579200,0.5995791015625,-0.0006108652451075613,0.0006108652451075613,0
1782771779140566800,0.60956689453125,0,0,-0.0006108652451075613
1782771779150568400,0.619568359375,-0.0012217304902151227,0,0
1782771779160555800,0.6295556640625,-0.0006108652451075613,0.0006108652451075613,0
1782771779170587400,0.63958740234375,-0.0006108652451075613,0.0006108652451075613,0.0006108652451075613
1782771779180544800,0.649544677734375,-0.0006108652451075613,0.0006108652451075613,0
1782771779190576600,0.65957666015625,0,0.0006108652451075613,0
1782771779200564200,0.669564208984375,0,0.0006108652451075613,0
1782771779210565600,0.679565673828125,-0.0006108652451075613,0,0
1782771779220553200,0.68955322265625,0,0,0
1782771779230584600,0.69958447265625,-0.0006108652451075613,0.0006108652451075613,0
1782771779240542500,0.70954248046875,0,0.0006108652451075613,-0.0012217304902151227
1782771779250574000,0.719573974609375,-0.0006108652451075613,-0.0006108652451075613,-0.0012217304902151227
1782771779260562000,0.72956201171875,-0.0012217304902151227,0.0012217304902151227,-0.0006108652451075613
1782771779270593000,0.739593017578125,0,0.0006108652451075613,0
1782771779280551000,0.749551025390625,-0.0006108652451075613,0.0006108652451075613,0
1782771779290582800,0.759582763671875,-0.0006108652451075613,0.0006108652451075613,-0.0006108652451075613
1782771779300570600,0.769570556640625,0,0,-0.0012217304902151227
1782771779310571500,0.779571533203125,0,0,0
1782771779320559600,0.7895595703125,-0.0006108652451075613,0.0012217304902151227,-0.0006108652451075613
1782771779330591200,0.79959130859375,0.0006108652451075613,0.0006108652451075613,0
1782771779340548400,0.80954833984375,-0.0006108652451075613,0,0
1782771779350580500,0.81958056640625,-0.0012217304902151227,0,-0.0006108652451075613
1782771779360567800,0.82956787109375,0,0,0
1782771779370569200,0.8395693359375,0,0.0006108652451075613,-0.0006108652451075613
1782771779380557000,0.84955712890625,0,0.0006108652451075613,-0.0012217304902151227
1782771779390589000,0.8595888671875,0,0.0006108652451075613,0
1782771779400546000,0.869546142578125,-0.0006108652451075613,-0.0006108652451075613,0.0006108652451075613
1782771779410578000,0.879577880859375,-0.0006108652451075613,-0.0006108652451075613,-0.0006108652451075613
1782771779420565500,0.8895654296875,0,0,-0.0012217304902151227
1782771779430567000,0.89956689453125,0.0006108652451075613,0.0012217304902151227,0
1782771779440554500,0.909554443359375,0,0.0006108652451075613,-0.0006108652451075613
1782771779450586600,0.919586669921875,-0.0006108652451075613,0,0
1782771779460543500,0.92954345703125,-0.0006108652451075613,0,-0.0006108652451075613
1782771779470575600,0.93957568359375,0,0.0006108652451075613,0.0006108652451075613
1782771779480563200,0.949563232421875,-0.0012217304902151227,0,-0.0012217304902151227
1782771779490564400,0.959564453125,-0.0006108652451075613,0.0006108652451075613,0
1782771779500552200,0.96955224609375,0,0.0006108652451075613,0.0006108652451075613
1782771779510583800,0.979583740234375,-0.0006108652451075613,0.0006108652451075613,0
1782771779520571600,0.989571533203125,-0.0012217304902151227,0.0006108652451075613,0
1782771779530573000,0.999572998046875,-0.0006108652451075613,0,-0.0006108652451075613
1782771779540560600,1.009560546875,0.0006108652451075613,0.0006108652451075613,0.0006108652451075613
1782771779550592300,1.01959228515625,0,0.0006108652451075613,0.0006108652451075613
1782771779560549600,1.029549560546875,-0.0006108652451075613,-0.0006108652451075613,0
1782771779570581800,1.039581787109375,-0.0012217304902151227,0.0006108652451075613,-0.0012217304902151227
1782771779580569300,1.0495693359375,-0.001832595793530345,0.0006108652451075613,0
1782771779590570500,1.059570556640625,0.0012217304902151227,0.0012217304902151227,-0.0006108652451075613
1782771779600558000,1.06955810546875,-0.0006108652451075613,0,0
1782771779610590000,1.07958984375,-0.0006108652451075613,0,0
1782771779620547000,1.089547119140625,0,0,-0.0006108652451075613
1782771779630579200,1.0995791015625,-0.0006108652451075613,0.0006108652451075613,-0.0006108652451075613
1782771779640566800,1.10956689453125,0,0,0.0006108652451075613
1782771779650567700,1.119567626953125,0,0,0
1782771779660555800,1.1295556640625,-0.0006108652451075613,0,-0.0006108652451075613
1782771779670587400,1.13958740234375,-0.0006108652451075613,0.0006108652451075613,-0.0006108652451075613
1782771779680544800,1.149544677734375,0.0006108652451075613,0.0006108652451075613,-0.0006108652451075613
1782771779690576600,1.15957666015625,-0.0006108652451075613,0.0012217304902151227,0
1782771779700564200,1.169564208984375,0.0006108652451075613,0.0012217304902151227,-0.0006108652451075613
1782771779710565600,1.179565673828125,0,0,0
1782771779720553500,1.189553466796875,-0.0006108652451075613,0.0006108652451075613,0
1782771779730585300,1.19958544921875,-0.0006108652451075613,0.0012217304902151227,-0.0006108652451075613
1782771779740542200,1.209542236328125,0.0006108652451075613,0,0
1782771779750574600,1.21957470703125,0,0.0006108652451075613,-0.0006108652451075613
1782771779760562000,1.22956201171875,-0.0006108652451075613,0.0006108652451075613,-0.0006108652451075613
1782771779770593500,1.239593505859375,-0.0006108652451075613,0.0006108652451075613,0
1782771779780551000,1.249551025390625,-0.0006108652451075613,0.0012217304902151227,0
1782771779790582500,1.25958251953125,-0.0006108652451075613,0.0006108652451075613,-0.0006108652451075613
1782771779800570400,1.2695703125,0,0,0.0006108652451075613
1782771779810585600,1.279585693359375,-0.0006108652451075613,-0.0006108652451075613,-0.0006108652451075613
1782771779820558300,1.289558349609375,0,0.0006108652451075613,0
1782771779830585300,1.29958544921875,-0.0006108652451075613,0,-0.0012217304902151227
1782771779840547800,1.3095478515625,0,0,-0.0006108652451075613
1782771779850574600,1.31957470703125,-0.0006108652451075613,0.0006108652451075613,0.0006108652451075613
1782771779860567300,1.3295673828125,-0.0006108652451075613,0.0006108652451075613,0
1782771779870563600,1.3395634765625,-0.0006108652451075613,0.0006108652451075613,-0.0006108652451075613
1782771779880556500,1.349556640625,0,0,0
1782771779890583000,1.3595830078125,-0.0006108652451075613,0,0
1782771779900545500,1.369545654296875,0,0.0006108652451075613,0.0006108652451075613
1782771779910576600,1.37957666015625,-0.0006108652451075613,0.0006108652451075613,-0.0006108652451075613
1782771779920565500,1.3895654296875,0,-0.0006108652451075613,0.0006108652451075613
1782771779930567000,1.39956689453125,0.0006108652451075613,0.0012217304902151227,-0.0006108652451075613
1782771779940554500,1.409554443359375,-0.0006108652451075613,0,0
1782771779950586600,1.419586669921875,-0.0006108652451075613,0.0006108652451075613,-0.0012217304902151227
1782771779960543500,1.42954345703125,-0.0006108652451075613,0.0012217304902151227,0
1782771779970575000,1.4395751953125,0,0.0006108652451075613,-0.0006108652451075613
1782771779980563200,1.449563232421875,-0.0006108652451075613,0.0006108652451075613,-0.0012217304902151227
1782771779990564400,1.459564453125,-0.0012217304902151227,0,-0.0006108652451075613
1782771780000552000,1.469552001953125,0,0,0
1782771780010583800,1.479583740234375,0,0,0
1782771780020571600,1.489571533203125,-0.0006108652451075613,0.0006108652451075613,-0.0006108652451075613
1782771780030573000,1.499572998046875,-0.0006108652451075613,0,-0.0006108652451075613
1782771780040560600,1.509560546875,0.0006108652451075613,-0.0006108652451075613,0
1782771780050592800,1.5195927734375,-0.0006108652451075613,0,-0.001832595793530345
1782771780060549600,1.529549560546875,-0.0006108652451075613,0.0006108652451075613,0
1782771780070581200,1.539581298828125,-0.001832595793530345,-0.0006108652451075613,0
1782771780080569300,1.5495693359375,-0.0006108652451075613,0.0006108652451075613,-0.0006108652451075613
1782771780090570500,1.559570556640625,-0.0006108652451075613,0.0006108652451075613,0
1782771780100558000,1.56955810546875,-0.0006108652451075613,0.0012217304902151227,-0.001832595793530345
1782771780110590200,1.579590087890625,0,0.0006108652451075613,-0.0006108652451075613
1782771780120547000,1.589547119140625,0,0,0
1782771780130579200,1.5995791015625,0.0006108652451075613,0.0006108652451075613,0
1782771780140566500,1.60956640625,0,0,0
1782771780150568200,1.619568115234375,-0.0006108652451075613,0.0006108652451075613,-0.001832595793530345
1782771780160555800,1.6295556640625,0,0,0
1782771780170587600,1.639587646484375,-0.0012217304902151227,0.0012217304902151227,0.0006108652451075613
1782771780180544800,1.649544677734375,0,0.0006108652451075613,0.0006108652451075613
1782771780190576400,1.659576416015625,0.0006108652451075613,0,0.0006108652451075613
1782771780200564500,1.669564453125,0,0,0
1782771780210565600,1.679565673828125,0,0.0012217304902151227,-0.0006108652451075613
1782771780220553200,1.68955322265625,-0.0006108652451075613,0,-0.0006108652451075613
1782771780230584600,1.69958447265625,0,0.0006108652451075613,-0.0006108652451075613
1782771780240542200,1.709542236328125,0,0.0006108652451075613,0.0006108652451075613
1782771780250573800,1.71957373046875,-0.0006108652451075613,0.0012217304902151227,0
1782771780260562000,1.72956201171875,-0.0006108652451075613,0,-0.0006108652451075613
1782771780270593500,1.739593505859375,-0.0006108652451075613,0,-0.0012217304902151227
1782771780280551000,1.749551025390625,0,0.0006108652451075613,0.0012217304902151227
1782771780290582800,1.759582763671875,0.0006108652451075613,0.0006108652451075613,0
1782771780300570400,1.7695703125,0,0.0012217304902151227,0
1782771780310571000,1.779571044921875,0,0.0006108652451075613,0.0006108652451075613
1782771780320559400,1.789559326171875,0,-0.0006108652451075613,0
1782771780330591200,1.79959130859375,0,0.0006108652451075613,-0.0006108652451075613
1782771780340548400,1.80954833984375,0,0,0
1782771780350580500,1.81958056640625,0,0,-0.0006108652451075613
1782771780360568000,1.829568115234375,-0.0012217304902151227,0.0006108652451075613,-0.0012217304902151227
1782771780370568700,1.839568603515625,0,0.0006108652451075613,-0.0006108652451075613
1782771780380557000,1.84955712890625,0,0,-0.0006108652451075613
1782771780390588200,1.859588134765625,0,0.0006108652451075613,0.0006108652451075613
1782771780400546000,1.869546142578125,0,-0.0006108652451075613,0.0006108652451075613
1782771780410578000,1.879577880859375,-0.0006108652451075613,0.0006108652451075613,0.0006108652451075613
1782771780420565500,1.8895654296875,0,0.0006108652451075613,0
1782771780430567000,1.89956689453125,-0.0006108652451075613,0.0006108652451075613,0.0006108652451075613
1782771780440554500,1.909554443359375,0,0,-0.0006108652451075613
1782771780450586400,1.91958642578125,-0.0006108652451075613,0.0012217304902151227,-0.0012217304902151227
1782771780460543500,1.92954345703125,-0.0006108652451075613,0,-0.0006108652451075613
1782771780470575600,1.93957568359375,0.0006108652451075613,0,-0.0006108652451075613
1782771780480563200,1.949563232421875,0,0.0006108652451075613,-0.0006108652451075613
1782771780490563800,1.959563720703125,0.0006108652451075613,0,-0.0006108652451075613
1782771780500552000,1.969552001953125,0,0.0006108652451075613,-0.0006108652451075613
1782771780510583800,1.979583740234375,-0.0006108652451075613,-0.0006108652451075613,-0.0006108652451075613
1782771780520571600,1.989571533203125,0,-0.0006108652451075613,0.0006108652451075613
1782771780530573000,1.999572998046875,0.0006108652451075613,0,-0.0006108652451075613
1782771780540560600,2.009560546875,0,0.0006108652451075613,-0.0006108652451075613
1782771780550615600,2.019615478515625,0,0.001832595793530345,0
1782771780560550000,2.0295498046875,0,0.0006108652451075613,0
1782771780570581200,2.039581298828125,0,0,-0.0006108652451075613
1782771780580569300,2.0495693359375,0,-0.0006108652451075613,-0.0006108652451075613
1782771780590570500,2.059570556640625,0,0.0006108652451075613,0.0006108652451075613
1782771780600558000,2.06955810546875,-0.0006108652451075613,0.0006108652451075613,-0.0012217304902151227
1782771780610590000,2.07958984375,-0.0012217304902151227,0.0006108652451075613,-0.0006108652451075613
1782771780620547000,2.089547119140625,0,-0.0006108652451075613,0
1782771780630579200,2.0995791015625,0.0006108652451075613,0,-0.0006108652451075613
1782771780640566500,2.10956640625,0,0.0012217304902151227,-0.0006108652451075613
1782771780650568000,2.11956787109375,-0.0006108652451075613,0.0012217304902151227,0
1782771780660555800,2.1295556640625,-0.0012217304902151227,0,-0.0006108652451075613
1782771780670588000,2.139587890625,-0.0006108652451075613,0.0006108652451075613,0
1782771780680545000,2.149544921875,-0.0006108652451075613,0,0.0012217304902151227
1782771780690576600,2.15957666015625,-0.0006108652451075613,0.0006108652451075613,0
1782771780700564200,2.169564208984375,-0.0006108652451075613,0,0.0006108652451075613
1782771780710565600,2.179565673828125,0,0.0006108652451075613,0
1782771780720553200,2.18955322265625,-0.0006108652451075613,0.0012217304902151227,-0.0012217304902151227
1782771780730585000,2.199585205078125,-0.0006108652451075613,0,-0.0006108652451075613
1782771780740542200,2.209542236328125,0,0.0006108652451075613,0
1782771780750574000,2.219573974609375,0.0006108652451075613,0.0006108652451075613,-0.0012217304902151227
1782771780760562000,2.22956201171875,0,0,0
1782771780770593800,2.23959375,0,0.0012217304902151227,-0.0006108652451075613
1782771780780551000,2.249551025390625,0,0,-0.0006108652451075613
1782771780790582300,2.259582275390625,0,0,-0.0006108652451075613
1782771780800570600,2.269570556640625,-0.0006108652451075613,0.0006108652451075613,-0.0012217304902151227
1782771780810571800,2.27957177734375,0,0.0006108652451075613,0
1782771780820558300,2.289558349609375,-0.0006108652451075613,0.0012217304902151227,-0.0006108652451075613
1782771780830590500,2.299590576171875,-0.0006108652451075613,-0.0006108652451075613,-0.0006108652451075613
1782771780840547800,2.3095478515625,-0.0006108652451075613,0,-0.0006108652451075613
1782771780850579200,2.3195791015625,-0.0006108652451075613,0,-0.0006108652451075613
1782771780860567600,2.329567626953125,0.0006108652451075613,0,-0.0006108652451075613
1782771780870568700,2.339568603515625,-0.0012217304902151227,0.0006108652451075613,-0.0006108652451075613
1782771780880556500,2.349556640625,-0.0012217304902151227,0.0006108652451075613,0
1782771780890601500,2.3596015625,-0.0006108652451075613,0.0012217304902151227,0
1782771780900545500,2.369545654296875,0,0.0012217304902151227,0
1782771780910572000,2.379572021484375,0,0.0006108652451075613,0
1782771780920565500,2.3895654296875,-0.0006108652451075613,0.0006108652451075613,-0.0006108652451075613
1782771780930561000,2.39956103515625,0.0006108652451075613,0,0.0006108652451075613
1782771780940554500,2.409554443359375,-0.0006108652451075613,0,0
1782771780950581200,2.419581298828125,-0.0006108652451075613,0,0.0006108652451075613
1782771780960543500,2.42954345703125,-0.0006108652451075613,0,-0.0012217304902151227
1782771780970569500,2.439569580078125,-0.0006108652451075613,0.0006108652451075613,0.0006108652451075613
1782771780980563200,2.449563232421875,0.0006108652451075613,0.0012217304902151227,-0.0006108652451075613
1782771780990564400,2.459564453125,0,0.0006108652451075613,-0.0012217304902151227
1782771781000552200,2.46955224609375,0,0.0006108652451075613,-0.0006108652451075613
1782771781010583800,2.479583740234375,-0.0006108652451075613,-0.0006108652451075613,0
1782771781020571400,2.4895712890625,-0.001832595793530345,0.0012217304902151227,-0.0012217304902151227
1782771781030572800,2.49957275390625,-0.0006108652451075613,0.0006108652451075613,0.0006108652451075613
1782771781040560600,2.509560546875,-0.0006108652451075613,0.0006108652451075613,0
1782771781050592500,2.519592529296875,-0.0006108652451075613,0.0006108652451075613,0
1782771781060549600,2.529549560546875,0,0.0006108652451075613,0
1782771781070581500,2.53958154296875,-0.0012217304902151227,0,-0.0006108652451075613
1782771781080569300,2.5495693359375,0.0006108652451075613,-0.0006108652451075613,-0.0006108652451075613
1782771781090570500,2.559570556640625,0,0.0006108652451075613,0
1782771781100558000,2.56955810546875,0,0.0006108652451075613,-0.0006108652451075613
1782771781110558500,2.579558349609375,-0.0006108652451075613,0.0006108652451075613,0
1782771781121696000,2.590696044921875,0,0.0006108652451075613,-0.0006108652451075613
1782771781140566800,2.60956689453125,0,0,0.0006108652451075613
1782771781150568000,2.61956787109375,-0.0006108652451075613,0,0
1782771781160555800,2.6295556640625,-0.0006108652451075613,0.0006108652451075613,-0.0006108652451075613
1782771781170618000,2.6396181640625,0,0.0012217304902151227,-0.0006108652451075613
1782771781180544800,2.649544677734375,-0.0012217304902151227,0.0006108652451075613,0
1782771781190576000,2.659576171875,0.0006108652451075613,0.0012217304902151227,-0.0006108652451075613
1782771781200564200,2.669564208984375,-0.0006108652451075613,-0.0006108652451075613,0
1782771781210565600,2.679565673828125,0,0.0006108652451075613,0
1782771781220513300,2.68951318359375,0.0006108652451075613,0,-0.0006108652451075613
1782771781230646300,2.699646240234375,-0.0012217304902151227,0,-0.0012217304902151227
1782771781240542500,2.70954248046875,-0.0006108652451075613,0,-0.0012217304902151227
1782771781250574000,2.719573974609375,-0.0006108652451075613,0,0.0006108652451075613
1782771781260562000,2.72956201171875,0,0.0006108652451075613,-0.0006108652451075613
1782771781270593000,2.739593017578125,-0.0012217304902151227,0.0006108652451075613,0
1782771781280551000,2.749551025390625,-0.0006108652451075613,0.0006108652451075613,-0.0006108652451075613
1782771781290582500,2.75958251953125,-0.0012217304902151227,0,0
1782771781300570400,2.7695703125,-0.0012217304902151227,0.0012217304902151227,-0.0012217304902151227
1782771781310571000,2.779571044921875,0,0.0006108652451075613,0
1782771781320519400,2.78951953125,-0.0006108652451075613,0,-0.0012217304902151227
1782771781330652400,2.79965234375,0,0.0006108652451075613,0
1782771781340548400,2.80954833984375,-0.0006108652451075613,0.0006108652451075613,0
1782771781350548700,2.819548828125,-0.0006108652451075613,0.0006108652451075613,0
1782771781361678600,2.8306787109375,0,0.0006108652451075613,-0.0006108652451075613
1782771781380557000,2.84955712890625,-0.0006108652451075613,0,-0.0006108652451075613
1782771781390588700,2.859588623046875,-0.0006108652451075613,0,-0.0012217304902151227
1782771781400546000,2.869546142578125,-0.0006108652451075613,0.0012217304902151227,0
1782771781410546200,2.879546142578125,0,0,-0.0006108652451075613
1782771781420626700,2.889626708984375,-0.0006108652451075613,0,-0.0006108652451075613
1782771781430567000,2.89956689453125,0.0006108652451075613,0.0006108652451075613,-0.0006108652451075613
1782771781440554500,2.909554443359375,0,0,0
1782771781450586400,2.91958642578125,0,0.0006108652451075613,0
1782771781460543500,2.92954345703125,0,0.0006108652451075613,-0.0006108652451075613
1782771781470575600,2.93957568359375,0,0,-0.0012217304902151227
1782771781480563200,2.949563232421875,0,-0.0006108652451075613,0
1782771781490563800,2.959563720703125,-0.0006108652451075613,0,0
1782771781500552200,2.96955224609375,0.0006108652451075613,-0.0006108652451075613,-0.0006108652451075613
1782771781510584000,2.979583984375,0,0,-0.0006108652451075613
1782771781520571400,2.9895712890625,-0.0006108652451075613,0.0006108652451075613,0
1782771781530541300,2.999541259765625,-0.0006108652451075613,0.0006108652451075613,0.0006108652451075613
1782771781540621600,3.00962158203125,0,-0.0006108652451075613,-0.0012217304902151227
1782771781550561000,3.01956103515625,-0.0012217304902151227,0,-0.0006108652451075613
1782771781561712600,3.030712646484375,0,0,0
1782771781580569000,3.049569091796875,0,0.0006108652451075613,-0.0012217304902151227
1782771781590570500,3.059570556640625,-0.0006108652451075613,0.0006108652451075613,-0.0006108652451075613
1782771781600558000,3.06955810546875,0,0,0
1782771781610590000,3.07958984375,0,0,-0.0006108652451075613
1782771781620507100,3.089507080078125,0,0.0012217304902151227,-0.0006108652451075613
1782771781630640000,3.09964013671875,-0.0006108652451075613,0.0006108652451075613,-0.0006108652451075613
1782771781640566800,3.10956689453125,0.0006108652451075613,0.0006108652451075613,-0.0006108652451075613
1782771781650536700,3.11953662109375,-0.0012217304902151227,0.0006108652451075613,-0.0006108652451075613
1782771781660616700,3.12961669921875,-0.0012217304902151227,0.0012217304902151227,-0.0006108652451075613
1782771781670587400,3.13958740234375,-0.0006108652451075613,0,0
1782771781680544800,3.149544677734375,-0.0006108652451075613,0,-0.0006108652451075613
1782771781690576600,3.15957666015625,-0.0006108652451075613,0.0006108652451075613,0.0006108652451075613
1782771781700564200,3.169564208984375,0,0.0012217304902151227,0.0006108652451075613
1782771781710565400,3.1795654296875,-0.0006108652451075613,0,-0.0006108652451075613
1782771781720553500,3.189553466796875,-0.0012217304902151227,0,-0.0006108652451075613
1782771781730585300,3.19958544921875,-0.0006108652451075613,0.0006108652451075613,-0.0006108652451075613
1782771781740542200,3.209542236328125,-0.0006108652451075613,0,0.0006108652451075613
1782771781750574000,3.219573974609375,0,-0.0006108652451075613,-0.0006108652451075613
1782771781760562000,3.22956201171875,-0.0006108652451075613,0,-0.0006108652451075613
1782771781770593500,3.239593505859375,-0.0012217304902151227,0,-0.0006108652451075613
1782771781780551000,3.249551025390625,-0.0012217304902151227,0.0006108652451075613,-0.0006108652451075613
1782771781790582300,3.259582275390625,0.0006108652451075613,0.0006108652451075613,-0.0006108652451075613
1782771781800570600,3.269570556640625,-0.0012217304902151227,0.0006108652451075613,0
1782771781810571300,3.2795712890625,-0.0006108652451075613,0,0
1782771781820558300,3.289558349609375,0,0.0006108652451075613,0
1782771781830590700,3.2995908203125,0,0.0012217304902151227,0
1782771781840547800,3.3095478515625,0.0006108652451075613,0,0
1782771781850579700,3.319579833984375,0,0.0006108652451075613,-0.0006108652451075613
1782771781860567600,3.329567626953125,-0.0012217304902151227,0.0012217304902151227,0
1782771781870568700,3.339568603515625,-0.0006108652451075613,0.0006108652451075613,-0.0006108652451075613
1782771781880556500,3.349556640625,-0.0006108652451075613,0,-0.0006108652451075613
1782771781890588400,3.35958837890625,0,0.0012217304902151227,0
1782771781900545300,3.369545166015625,0.0006108652451075613,-0.0006108652451075613,-0.0006108652451075613
1782771781910577200,3.3795771484375,-0.0006108652451075613,0,0
1782771781920565500,3.3895654296875,-0.0006108652451075613,0,-0.0006108652451075613
1782771781930567000,3.39956689453125,0,0,0.0006108652451075613
1782771781940514600,3.4095146484375,0,0,0
1782771781950647600,3.4196474609375,-0.0006108652451075613,0.0006108652451075613,0.0012217304902151227
1782771781960543500,3.42954345703125,0,0.0006108652451075613,-0.0006108652451075613
1782771781970589200,3.439589111328125,-0.0006108652451075613,-0.0006108652451075613,0.0006108652451075613
1782771781980563200,3.449563232421875,-0.0006108652451075613,0.0006108652451075613,0
1782771781990559200,3.459559326171875,-0.0012217304902151227,0.0006108652451075613,0
1782771782000552200,3.46955224609375,-0.001832595793530345,0,0
1782771782010521900,3.47952197265625,-0.0006108652451075613,0,0
1782771782020632600,3.489632568359375,-0.0006108652451075613,0.0006108652451075613,-0.0012217304902151227
1782771782030568000,3.49956787109375,0,0,-0.0006108652451075613
1782771782040560600,3.509560546875,0,0,0
1782771782050587100,3.519587158203125,0.0006108652451075613,0.0012217304902151227,-0.0006108652451075613
1782771782060549600,3.529549560546875,-0.0006108652451075613,0.0006108652451075613,0
1782771782070581200,3.539581298828125,0,0.0006108652451075613,0
1782771782080569000,3.549569091796875,-0.0006108652451075613,0,0.0006108652451075613
1782771782090570500,3.559570556640625,-0.001832595793530345,0.0006108652451075613,0
1782771782100558000,3.56955810546875,-0.0006108652451075613,0,-0.0006108652451075613
1782771782110590000,3.57958984375,-0.0006108652451075613,0,-0.0006108652451075613
1782771782120547000,3.589547119140625,-0.0006108652451075613,0,-0.0006108652451075613
1782771782130578700,3.59957861328125,-0.0006108652451075613,0,0.0012217304902151227
1782771782140566800,3.60956689453125,0,0,-0.0006108652451075613
1782771782150568200,3.619568115234375,0,0.0006108652451075613,-0.0012217304902151227
1782771782160555800,3.6295556640625,-0.0006108652451075613,0.0006108652451075613,0
1782771782170587400,3.63958740234375,-0.0012217304902151227,0.0012217304902151227,-0.0012217304902151227
1782771782180544800,3.649544677734375,0,0.0006108652451075613,-0.0006108652451075613
1782771782190545200,3.659545166015625,0,-0.0006108652451075613,-0.0006108652451075613
1782771782200625400,3.66962548828125,0,0.0006108652451075613,-0.0006108652451075613
1782771782210565600,3.679565673828125,-0.0006108652451075613,0.0006108652451075613,0
1782771782220553200,3.68955322265625,-0.0006108652451075613,0,-0.0006108652451075613
1782771782230585000,3.699585205078125,-0.0006108652451075613,0,0
1782771782240502300,3.709502197265625,0,0.0006108652451075613,0
1782771782250665700,3.719665771484375,0,0.0006108652451075613,-0.0006108652451075613
1782771782260562000,3.72956201171875,0,0.0006108652451075613,0
1782771782270562300,3.739562255859375,-0.0006108652451075613,0.0006108652451075613,0
1782771782280743000,3.749742919921875,0,-0.0006108652451075613,-0.0006108652451075613
1782771782290582800,3.759582763671875,-0.0012217304902151227,0,0
1782771782300570400,3.7695703125,0,0,0.0006108652451075613
1782771782310571500,3.779571533203125,-0.0012217304902151227,0,-0.0006108652451075613
1782771782320559000,3.78955908203125,0,-0.0006108652451075613,0
1782771782330591500,3.799591552734375,-0.0006108652451075613,0.0006108652451075613,0
1782771782340548400,3.80954833984375,-0.0006108652451075613,0.0006108652451075613,-0.0006108652451075613
1782771782350580500,3.81958056640625,0,0.0006108652451075613,0
1782771782360568000,3.829568115234375,-0.0012217304902151227,0.0006108652451075613,-0.001832595793530345
1782771782370569200,3.8395693359375,-0.0012217304902151227,0,-0.0006108652451075613
1782771782380557000,3.84955712890625,-0.0012217304902151227,0.0006108652451075613,0
1782771782390589000,3.8595888671875,-0.0006108652451075613,0.0006108652451075613,-0.0006108652451075613
1782771782400546000,3.869546142578125,-0.0006108652451075613,0,0
1782771782410578000,3.879577880859375,0,0,0
1782771782420565500,3.8895654296875,-0.0006108652451075613,0,0
1782771782430567000,3.89956689453125,0.0006108652451075613,0,-0.0006108652451075613
1782771782440554500,3.909554443359375,-0.0012217304902151227,0,-0.0006108652451075613
1782771782450586600,3.919586669921875,0,0.0006108652451075613,0
1782771782460543500,3.92954345703125,0,0.0006108652451075613,0
1782771782470575400,3.939575439453125,0,0,-0.0006108652451075613
1782771782480563200,3.949563232421875,-0.0006108652451075613,0,0
1782771782490564400,3.959564453125,0,-0.0006108652451075613,0
1782771782500552200,3.96955224609375,0,0,-0.0006108652451075613
1782771782510584000,3.979583984375,-0.0006108652451075613,0,-0.0012217304902151227
1782771782520571600,3.989571533203125,0,0,-0.0006108652451075613
1782771782530573000,3.999572998046875,-0.0006108652451075613,0,-0.0006108652451075613
1782771782540560600,4.009560546875,0.0006108652451075613,0.0012217304902151227,0
1782771782550614800,4.01961474609375,-0.0006108652451075613,0.0006108652451075613,-0.0012217304902151227
1782771782560549600,4.029549560546875,0,0.0012217304902151227,0
1782771782570581200,4.039581298828125,-0.0006108652451075613,0.0006108652451075613,-0.0012217304902151227
1782771782580569000,4.049569091796875,-0.0006108652451075613,0,0.0006108652451075613
1782771782590570200,4.0595703125,-0.001832595793530345,0.0006108652451075613,0
1782771782600558300,4.069558349609375,-0.0006108652451075613,0,-0.0012217304902151227
1782771782610590000,4.07958984375,-0.0012217304902151227,0,0
1782771782620547000,4.089547119140625,-0.0006108652451075613,0,-0.0006108652451075613
1782771782630547500,4.09954736328125,-0.0006108652451075613,0,0.0006108652451075613
1782771782641642200,4.110642333984375,0,-0.0006108652451075613,-0.0012217304902151227
1782771782660555800,4.1295556640625,-0.0006108652451075613,0.0006108652451075613,0
1782771782670587600,4.139587646484375,0,0.0006108652451075613,-0.0006108652451075613
1782771782680544800,4.149544677734375,-0.0006108652451075613,0.0006108652451075613,-0.0012217304902151227
1782771782690576600,4.15957666015625,-0.0006108652451075613,0,-0.0012217304902151227
1782771782700564200,4.169564208984375,0.0012217304902151227,0.0006108652451075613,-0.0006108652451075613
1782771782710565600,4.179565673828125,-0.0006108652451075613,0.0006108652451075613,0.0006108652451075613
1782771782720553500,4.189553466796875,-0.0006108652451075613,0,0
1782771782730585300,4.19958544921875,-0.0006108652451075613,0.0006108652451075613,-0.0006108652451075613
1782771782740542200,4.209542236328125,0,0.0006108652451075613,0
1782771782750574000,4.219573974609375,-0.0006108652451075613,0.0012217304902151227,0
1782771782760562000,4.22956201171875,0,0.0006108652451075613,-0.0006108652451075613
1782771782770593500,4.239593505859375,-0.0006108652451075613,0,-0.0012217304902151227
1782771782780551000,4.249551025390625,-0.0012217304902151227,0,-0.0006108652451075613
1782771782790582800,4.259582763671875,0,0.0012217304902151227,-0.0006108652451075613
1782771782800570600,4.269570556640625,-0.0006108652451075613,0.0006108652451075613,0
1782771782810571800,4.27957177734375,0,0,0
1782771782820558300,4.289558349609375,-0.0006108652451075613,0,0
1782771782830590500,4.299590576171875,0,0.0006108652451075613,0.0006108652451075613
1782771782840547800,4.3095478515625,-0.0012217304902151227,0,-0.0006108652451075613
1782771782850579700,4.319579833984375,-0.0012217304902151227,0.0006108652451075613,0.0006108652451075613
1782771782860567600,4.329567626953125,0,0,-0.0006108652451075613
1782771782870569000,4.33956884765625,-0.001832595793530345,0.0006108652451075613,0
1782771782880556500,4.349556640625,0,0.0006108652451075613,0.0006108652451075613
1782771782890588200,4.359588134765625,0,0.0012217304902151227,-0.0006108652451075613
1782771782900545300,4.369545166015625,-0.0012217304902151227,0.0012217304902151227,-0.0006108652451075613
1782771782910576600,4.37957666015625,0,0.0006108652451075613,-0.0006108652451075613
1782771782920565500,4.3895654296875,-0.0006108652451075613,-0.0006108652451075613,0
1782771782930567000,4.39956689453125,0.0006108652451075613,0.0012217304902151227,-0.0006108652451075613
1782771782940554500,4.409554443359375,-0.0012217304902151227,0.0006108652451075613,0
1782771782950586400,4.41958642578125,-0.0012217304902151227,0.0006108652451075613,0.0006108652451075613
1782771782960543500,4.42954345703125,-0.0006108652451075613,0.0012217304902151227,0
1782771782970575000,4.4395751953125,0.0006108652451075613,0.0006108652451075613,0.0006108652451075613
1782771782980563200,4.449563232421875,0.0006108652451075613,0,-0.0006108652451075613
1782771782990564400,4.459564453125,0,0.0006108652451075613,0.0006108652451075613
1782771783000552200,4.46955224609375,-0.0006108652451075613,0.0006108652451075613,-0.0006108652451075613
1782771783010583800,4.479583740234375,0.0006108652451075613,0.0012217304902151227,0.0006108652451075613
1782771783020571400,4.4895712890625,0,-0.0006108652451075613,0
1782771783030573000,4.499572998046875,0,0,0
1782771783040560600,4.509560546875,0,-0.0006108652451075613,-0.0006108652451075613
1782771783050606300,4.5196064453125,-0.0006108652451075613,0.0006108652451075613,-0.0006108652451075613
1782771783060549600,4.529549560546875,0,0.0006108652451075613,-0.0006108652451075613
1782771783070576000,4.539576171875,0.0006108652451075613,0.0006108652451075613,-0.0006108652451075613
1782771783080569300,4.5495693359375,-0.0012217304902151227,0,0
1782771783090565400,4.5595654296875,0,0.0006108652451075613,0
1782771783100558000,4.56955810546875,0.0006108652451075613,0.0006108652451075613,0
1782771783110585000,4.579585205078125,0,-0.0006108652451075613,0.0006108652451075613
1782771783120547000,4.589547119140625,-0.0006108652451075613,0.0006108652451075613,0
1782771783130573800,4.59957373046875,-0.0006108652451075613,0.0006108652451075613,0
1782771783140526800,4.60952685546875,0,-0.0012217304902151227,-0.0006108652451075613
1782771783150659600,4.61965966796875,-0.0006108652451075613,0.0006108652451075613,0.0006108652451075613
1782771783160555800,4.6295556640625,0,0.0006108652451075613,-0.0012217304902151227
1782771783170587600,4.639587646484375,0,0.0006108652451075613,-0.0006108652451075613
1782771783180544800,4.649544677734375,-0.0006108652451075613,0,-0.0006108652451075613
1782771783190576600,4.65957666015625,0,0.0006108652451075613,-0.0006108652451075613
1782771783200564200,4.669564208984375,-0.0012217304902151227,0.0006108652451075613,0
1782771783210565600,4.679565673828125,-0.0006108652451075613,0.0006108652451075613,0
1782771783220553500,4.689553466796875,-0.0012217304902151227,0,-0.0006108652451075613
1782771783230585300,4.69958544921875,-0.0006108652451075613,0,-0.0006108652451075613
1782771783240542200,4.709542236328125,0,0,0
1782771783250524400,4.7195244140625,0,0.0006108652451075613,0.0006108652451075613
1782771783260562000,4.72956201171875,0,-0.0006108652451075613,-0.0012217304902151227
1782771783270593500,4.739593505859375,0,0.0006108652451075613,0
1782771783280551000,4.749551025390625,-0.0006108652451075613,0,0.0006108652451075613
1782771783290582500,4.75958251953125,-0.0006108652451075613,0,0
1782771783300570600,4.769570556640625,0,-0.0006108652451075613,0.0006108652451075613
1782771783310540000,4.7795400390625,-0.0006108652451075613,0,0
1782771783320580400,4.789580322265625,-0.0006108652451075613,-0.0006108652451075613,0.0006108652451075613
1782771783330652200,4.799652099609375,-0.0012217304902151227,0.0006108652451075613,0
1782771783340548400,4.80954833984375,0.0006108652451075613,-0.0006108652451075613,0
1782771783350580500,4.81958056640625,-0.0006108652451075613,-0.0006108652451075613,-0.0006108652451075613
1782771783360567800,4.82956787109375,-0.0006108652451075613,0.0006108652451075613,-0.0012217304902151227
1782771783370569200,4.8395693359375,0,0.0012217304902151227,-0.0006108652451075613
1782771783380557000,4.84955712890625,-0.0006108652451075613,0.0012217304902151227,0
1782771783390588200,4.859588134765625,-0.001832595793530345,0.0006108652451075613,0
1782771783400546000,4.869546142578125,-0.0006108652451075613,0.0012217304902151227,0
1782771783410578000,4.879577880859375,0,0.0006108652451075613,0
1782771783420565500,4.8895654296875,-0.001832595793530345,0.0006108652451075613,-0.0012217304902151227
1782771783430567000,4.89956689453125,-0.0006108652451075613,0,0
1782771783440554500,4.909554443359375,-0.0024434609804302454,0,0
1782771783450586400,4.91958642578125,-0.0006108652451075613,0,-0.0006108652451075613
1782771783460543500,4.92954345703125,0,0,0
1782771783470575600,4.93957568359375,-0.0006108652451075613,-0.0006108652451075613,0
1782771783480563200,4.949563232421875,0,0,-0.0006108652451075613
1782771783490564400,4.959564453125,-0.0006108652451075613,0.0006108652451075613,-0.0006108652451075613
1782771783500552200,4.96955224609375,-0.0012217304902151227,0.0006108652451075613,-0.0006108652451075613
1782771783510584000,4.979583984375,0,0,-0.0006108652451075613
1782771783520571600,4.989571533203125,-0.0012217304902151227,0.0006108652451075613,-0.0006108652451075613
1782771783530573000,4.999572998046875,-0.0006108652451075613,0.0006108652451075613,-0.0006108652451075613
1782771783540560600,5.009560546875,0,0,-0.0006108652451075613
1782771783550592500,5.019592529296875,-0.0006108652451075613,0.0006108652451075613,0
1782771783560509700,5.029509765625,0,0,-0.0006108652451075613
1782771783570580500,5.03958056640625,-0.0006108652451075613,0.0012217304902151227,-0.0006108652451075613
1782771783580569000,5.049569091796875,-0.0012217304902151227,0.0006108652451075613,0.0012217304902151227
1782771783590570500,5.059570556640625,-0.0012217304902151227,0,0
1782771783600558000,5.06955810546875,-0.0006108652451075613,0.0006108652451075613,0
1782771783610558500,5.079558349609375,-0.0006108652451075613,0.0012217304902151227,-0.0006108652451075613
1782771783620638700,5.089638671875,-0.0012217304902151227,0,0
1782771783630579200,5.0995791015625,0,0.0006108652451075613,-0.0006108652451075613
1782771783640526800,5.10952685546875,-0.0012217304902151227,0.0006108652451075613,-0.0006108652451075613
1782771783650659800,5.119659912109375,0,0,0
1782771783660515800,5.129515869140625,0,0.0006108652451075613,0
1782771783670648600,5.139648681640625,-0.0006108652451075613,0.0006108652451075613,0
1782771783680544800,5.149544677734375,-0.0006108652451075613,0,0
1782771783690576600,5.15957666015625,-0.0006108652451075613,0.0006108652451075613,0
1782771783700564500,5.169564453125,0,0.0006108652451075613,0.0006108652451075613
1782771783710565600,5.179565673828125,0,0.0006108652451075613,-0.0006108652451075613
1782771783720553500,5.189553466796875,-0.0006108652451075613,0.0012217304902151227,0
1782771783730584300,5.199584228515625,-0.0006108652451075613,0.0006108652451075613,-0.0006108652451075613
1782771783740542200,5.209542236328125,-0.0006108652451075613,0.0006108652451075613,0
1782771783750574000,5.219573974609375,-0.001832595793530345,0.0006108652451075613,-0.0012217304902151227
1782771783760562000,5.22956201171875,-0.0006108652451075613,0.0006108652451075613,-0.0006108652451075613
1782771783770593800,5.23959375,-0.0012217304902151227,0.0012217304902151227,-0.0006108652451075613
1782771783780551000,5.249551025390625,-0.0006108652451075613,0.0006108652451075613,-0.0006108652451075613
1782771783790582800,5.259582763671875,-0.0012217304902151227,0,0
1782771783800570600,5.269570556640625,0,0.0006108652451075613,-0.0012217304902151227
1782771783810571800,5.27957177734375,-0.0012217304902151227,0.0006108652451075613,0
1782771783820558600,5.28955859375,0,0.0006108652451075613,0
1782771783830590700,5.2995908203125,-0.0006108652451075613,0,-0.0006108652451075613
1782771783840547800,5.3095478515625,-0.0012217304902151227,0.0012217304902151227,0
1782771783850579500,5.319579345703125,-0.0006108652451075613,0,-0.0006108652451075613
1782771783860567600,5.329567626953125,-0.0006108652451075613,0.0006108652451075613,0
1782771783870568200,5.339568115234375,0,0,0
1782771783880556500,5.349556640625,-0.0012217304902151227,0.0006108652451075613,0.0006108652451075613
1782771783890587600,5.359587646484375,-0.0006108652451075613,0.0006108652451075613,-0.0006108652451075613
1782771783900545300,5.369545166015625,-0.0006108652451075613,0.0006108652451075613,0.0006108652451075613
1782771783910577200,5.3795771484375,0,0,-0.0012217304902151227
1782771783920565500,5.3895654296875,-0.0006108652451075613,0,-0.0006108652451075613
1782771783930567000,5.39956689453125,0,0.001832595793530345,-0.0006108652451075613
1782771783940554500,5.409554443359375,-0.0012217304902151227,0,-0.0012217304902151227
1782771783950586600,5.419586669921875,-0.0006108652451075613,0,0
1782771783960543500,5.42954345703125,-0.0006108652451075613,0,0
1782771783970575400,5.439575439453125,-0.0006108652451075613,0.0006108652451075613,0.0006108652451075613
1782771783980563200,5.449563232421875,0.0006108652451075613,0,0.0006108652451075613
1782771783990502400,5.45950244140625,0,0.0006108652451075613,0
1782771784001465300,5.47046533203125,0,0,-0.0006108652451075613
1782771784020571400,5.4895712890625,-0.0006108652451075613,0,-0.0012217304902151227
1782771784030572300,5.499572265625,-0.0006108652451075613,0.0006108652451075613,0.0006108652451075613
1782771784040560600,5.509560546875,0,0.0012217304902151227,-0.0006108652451075613
1782771784050592500,5.519592529296875,-0.0012217304902151227,0.0012217304902151227,0.0006108652451075613
1782771784060549600,5.529549560546875,0,0,-0.0012217304902151227
1782771784070581500,5.53958154296875,-0.0006108652451075613,0,-0.0006108652451075613
1782771784080569000,5.549569091796875,-0.0012217304902151227,0.0006108652451075613,-0.0012217304902151227
1782771784090570500,5.559570556640625,-0.0006108652451075613,0.0006108652451075613,0
1782771784100558000,5.56955810546875,-0.0006108652451075613,0.0006108652451075613,-0.0006108652451075613
1782771784110590000,5.57958984375,0,0,-0.0006108652451075613
1782771784120507100,5.589507080078125,-0.0006108652451075613,0.0012217304902151227,0
1782771784130654000,5.599654052734375,-0.0006108652451075613,0.0006108652451075613,0
1782771784140566800,5.60956689453125,0,0.0006108652451075613,0
1782771784150563000,5.61956298828125,0,0,-0.0006108652451075613
1782771784160555800,5.6295556640625,-0.0006108652451075613,0.0006108652451075613,-0.0006108652451075613
1782771784170582300,5.639582275390625,-0.0006108652451075613,0.0006108652451075613,0
1782771784180544800,5.649544677734375,-0.0006108652451075613,0.0006108652451075613,0
1782771784190571500,5.659571533203125,-0.0006108652451075613,0.0006108652451075613,-0.0006108652451075613
1782771784200564500,5.669564453125,-0.0006108652451075613,0.0006108652451075613,0.0006108652451075613
1782771784210559700,5.679559814453125,-0.0006108652451075613,0.0006108652451075613,-0.0006108652451075613
1782771784220553200,5.68955322265625,0.0006108652451075613,0.0006108652451075613,0
1782771784230585000,5.699585205078125,-0.0006108652451075613,0,0
1782771784240542500,5.70954248046875,0,0,0
1782771784250573600,5.719573486328125,-0.0012217304902151227,0,-0.0006108652451075613
1782771784260562000,5.72956201171875,-0.0006108652451075613,0.0006108652451075613,0
1782771784270593500,5.739593505859375,0,0.0006108652451075613,-0.0006108652451075613
1782771784280551000,5.749551025390625,0,0.0006108652451075613,-0.0006108652451075613
1782771784290582500,5.75958251953125,-0.0006108652451075613,0.0012217304902151227,-0.0006108652451075613
1782771784300570600,5.769570556640625,-0.0012217304902151227,0,0
1782771784310571800,5.77957177734375,-0.0006108652451075613,0.0012217304902151227,-0.0006108652451075613
1782771784320559400,5.789559326171875,0,0,0
1782771784330591500,5.799591552734375,-0.0012217304902151227,0,-0.0006108652451075613
1782771784340548400,5.80954833984375,-0.0012217304902151227,0,-0.0006108652451075613
1782771784350580500,5.81958056640625,0,0,-0.0006108652451075613
1782771784360568000,5.829568115234375,0.0006108652451075613,0.0006108652451075613,-0.0006108652451075613
1782771784370569500,5.839569580078125,-0.0006108652451075613,0.0012217304902151227,-0.0006108652451075613
1782771784380557000,5.84955712890625,0,0,-0.0012217304902151227
1782771784390588700,5.859588623046875,-0.0006108652451075613,0,-0.0012217304902151227
1782771784400545800,5.8695458984375,0,0,0
1782771784410577700,5.87957763671875,0,0.0006108652451075613,0
1782771784420565800,5.889565673828125,-0.0006108652451075613,0.0012217304902151227,-0.0006108652451075613
1782771784430567000,5.89956689453125,-0.0006108652451075613,0,0.0006108652451075613
1782771784440554500,5.909554443359375,-0.0006108652451075613,0.0006108652451075613,-0.0006108652451075613
1782771784450586400,5.91958642578125,0,0,-0.0006108652451075613
1782771784460543500,5.92954345703125,0,0.0006108652451075613,0
1782771784470575400,5.939575439453125,-0.0006108652451075613,-0.0012217304902151227,-0.0006108652451075613
1782771784480563200,5.949563232421875,-0.0006108652451075613,0,-0.0006108652451075613
1782771784490564400,5.959564453125,0,0.0012217304902151227,0.0006108652451075613
1782771784500552000,5.969552001953125,0,0.0006108652451075613,0
1782771784510584000,5.979583984375,0.0006108652451075613,0.0006108652451075613,0
1782771784520571600,5.989571533203125,0,0,0
1782771784530573000,5.999572998046875,0.0012217304902151227,0,0
1782771784540560600,6.009560546875,0.0006108652451075613,0.0006108652451075613,0
1782771784550615800,6.01961572265625,-0.0006108652451075613,0.0006108652451075613,-0.0006108652451075613
1782771784560549600,6.029549560546875,0,0.0006108652451075613,0
1782771784570581200,6.039581298828125,-0.0012217304902151227,0.0006108652451075613,-0.0006108652451075613
1782771784580569000,6.049569091796875,0,0,0
1782771784590570000,6.059570068359375,0.0006108652451075613,0,-0.0012217304902151227
1782771784600558300,6.069558349609375,-0.0006108652451075613,0,0
1782771784610590000,6.07958984375,-0.0006108652451075613,0.0006108652451075613,0
1782771784620547300,6.08954736328125,0,0,-0.0006108652451075613
1782771784630578400,6.099578369140625,0,0.0006108652451075613,0
1782771784640566800,6.10956689453125,-0.0006108652451075613,0.0006108652451075613,-0.0006108652451075613
1782771784650567400,6.1195673828125,0,0.0006108652451075613,0.0006108652451075613
1782771784660555800,6.1295556640625,-0.0006108652451075613,0.0012217304902151227,0
1782771784670587400,6.13958740234375,0,0,-0.0006108652451075613
1782771784680545000,6.149544921875,-0.0006108652451075613,0.0006108652451075613,0
1782771784690576600,6.15957666015625,-0.0006108652451075613,0.0006108652451075613,0
1782771784700564500,6.169564453125,-0.0006108652451075613,0.0006108652451075613,-0.0006108652451075613
1782771784710565600,6.179565673828125,0,0.0006108652451075613,0
1782771784720553200,6.18955322265625,0.0006108652451075613,0.0006108652451075613,0
1782771784730585300,6.19958544921875,-0.0006108652451075613,-0.0006108652451075613,0
1782771784740542200,6.209542236328125,0,0.0006108652451075613,-0.0006108652451075613
1782771784750574000,6.219573974609375,-0.0012217304902151227,0.0006108652451075613,-0.0006108652451075613
1782771784760562000,6.22956201171875,0,0.0012217304902151227,0
1782771784770593000,6.239593017578125,-0.0006108652451075613,0.0006108652451075613,-0.0006108652451075613
1782771784780551200,6.24955126953125,-0.0012217304902151227,0.0006108652451075613,0
1782771784790582800,6.259582763671875,-0.0006108652451075613,0.0006108652451075613,-0.0006108652451075613
1782771784800570600,6.269570556640625,0,0.0006108652451075613,0
1782771784810571800,6.27957177734375,0,0,0.0006108652451075613
1782771784820558300,6.289558349609375,-0.0006108652451075613,0,-0.0006108652451075613
1782771784830590700,6.2995908203125,0,0.0012217304902151227,0
1782771784840548000,6.309548095703125,0,0,0
1782771784850579700,6.319579833984375,-0.0006108652451075613,0.0006108652451075613,0.0012217304902151227
1782771784860567600,6.329567626953125,-0.0012217304902151227,0.0006108652451075613,0
1782771784870568700,6.339568603515625,0,0.0006108652451075613,0
1782771784880556500,6.349556640625,0,0.0012217304902151227,-0.0006108652451075613
1782771784890588200,6.359588134765625,0,-0.0006108652451075613,0.0006108652451075613
1782771784900545500,6.369545654296875,0,0,0.0006108652451075613
1782771784910577200,6.3795771484375,-0.0006108652451075613,0,-0.0006108652451075613
1782771784920565500,6.3895654296875,0,0,-0.0006108652451075613
1782771784930567000,6.39956689453125,0,0.0006108652451075613,0
1782771784940554500,6.409554443359375,-0.0006108652451075613,0,0.0012217304902151227
1782771784950586400,6.41958642578125,0,0,0
1782771784960543500,6.42954345703125,0,0,0
1782771784970575600,6.43957568359375,-0.0006108652451075613,0,0
1782771784980563200,6.449563232421875,-0.0006108652451075613,0.0012217304902151227,0
1782771784990564400,6.459564453125,-0.0006108652451075613,0.0006108652451075613,-0.0006108652451075613
1782771785000552200,6.46955224609375,-0.0012217304902151227,0.0006108652451075613,0
1782771785010552300,6.47955224609375,-0.001832595793530345,0.0012217304902151227,0
1782771785020632600,6.489632568359375,-0.0006108652451075613,0,-0.0006108652451075613
1782771785030573000,6.499572998046875,-0.0006108652451075613,0,0
1782771785040520700,6.509520751953125,0.0006108652451075613,0.0006108652451075613,-0.0006108652451075613
1782771785050622000,6.5196220703125,-0.0006108652451075613,0.0006108652451075613,0.0006108652451075613
1782771785060641000,6.52964111328125,0,0.0006108652451075613,-0.0006108652451075613
1782771785070581000,6.5395810546875,-0.001832595793530345,0.0006108652451075613,0.0006108652451075613
1782771785080569300,6.5495693359375,-0.0006108652451075613,0,-0.0012217304902151227
1782771785090570500,6.559570556640625,0,0.0006108652451075613,-0.0012217304902151227
1782771785100558000,6.56955810546875,0,-0.0006108652451075613,-0.0006108652451075613
1782771785110590200,6.579590087890625,-0.0006108652451075613,0,-0.0012217304902151227
1782771785120547300,6.58954736328125,-0.0006108652451075613,-0.0006108652451075613,-0.0006108652451075613
1782771785130547500,6.59954736328125,0,0.0012217304902151227,-0.0012217304902151227
1782771785140627700,6.609627685546875,-0.0006108652451075613,0.0006108652451075613,0.0006108652451075613
1782771785150568000,6.61956787109375,0,0.0006108652451075613,0
1782771785160555800,6.6295556640625,0,0.0012217304902151227,0
1782771785170587400,6.63958740234375,-0.0012217304902151227,0.0012217304902151227,0.0006108652451075613
1782771785180544800,6.649544677734375,0,0.0006108652451075613,0.0006108652451075613
1782771785190545200,6.659545166015625,-0.0006108652451075613,0,-0.0006108652451075613
1782771785201662000,6.670661865234375,-0.0006108652451075613,0.0006108652451075613,0
1782771785220553200,6.68955322265625,-0.0006108652451075613,-0.0006108652451075613,-0.0006108652451075613
1782771785230580000,6.699580078125,0,0.0012217304902151227,-0.0006108652451075613
1782771785240542200,6.709542236328125,-0.0006108652451075613,0.0006108652451075613,-0.0006108652451075613
1782771785250512100,6.71951220703125,-0.0012217304902151227,0,-0.0006108652451075613
1782771785260622800,6.729622802734375,0,0,-0.0006108652451075613
1782771785270588400,6.73958837890625,-0.0006108652451075613,0.0006108652451075613,0.0006108652451075613
1782771785280551000,6.749551025390625,-0.0012217304902151227,0,0.0006108652451075613
1782771785290576600,6.75957666015625,-0.0012217304902151227,0.0006108652451075613,-0.0012217304902151227
1782771785300570400,6.7695703125,-0.0006108652451075613,0.0006108652451075613,-0.0006108652451075613
1782771785310571800,6.77957177734375,0,0.0006108652451075613,0
1782771785320559600,6.7895595703125,-0.0012217304902151227,-0.0006108652451075613,-0.0006108652451075613
1782771785330591200,6.79959130859375,0,0.0006108652451075613,0
1782771785340548400,6.80954833984375,0,0.0006108652451075613,0
1782771785350548700,6.819548828125,0,0,0
1782771785361636400,6.83063623046875,0.0006108652451075613,0.0006108652451075613,0
1782771785380557000,6.84955712890625,-0.0006108652451075613,-0.0012217304902151227,0
1782771785390588700,6.859588623046875,-0.0006108652451075613,0.0006108652451075613,0.0006108652451075613
1782771785400546000,6.869546142578125,-0.0012217304902151227,0,0
1782771785410578000,6.879577880859375,0,0.0006108652451075613,-0.0006108652451075613
1782771785420565500,6.8895654296875,-0.0006108652451075613,0,-0.0012217304902151227
1782771785430567000,6.89956689453125,0,0,0
1782771785440554500,6.909554443359375,-0.0006108652451075613,0.0012217304902151227,0
1782771785450555000,6.919554931640625,0,0,-0.0006108652451075613
1782771785460635100,6.92963525390625,-0.0006108652451075613,0,-0.0006108652451075613
1782771785470575400,6.939575439453125,-0.0006108652451075613,0.0012217304902151227,0
1782771785480563200,6.949563232421875,0,0.0006108652451075613,0
1782771785490564400,6.959564453125,0,0,-0.0006108652451075613
1782771785500552200,6.96955224609375,-0.0006108652451075613,0.0006108652451075613,-0.0006108652451075613
1782771785510584000,6.979583984375,-0.0006108652451075613,0.0006108652451075613,-0.0006108652451075613
1782771785520571400,6.9895712890625,-0.0006108652451075613,0.0012217304902151227,0.0012217304902151227
1782771785530572500,6.999572509765625,0,0.12767083942890167,0.059864792972803116
1782771785540560600,7.009560546875,-0.0006108652451075613,-0.009162978269159794,-0.00733038317412138
1782771785550592000,7.019592041015625,-0.0006108652451075613,0.012217304669320583,0.00733038317412138
1782771785560549600,7.029549560546875,-0.0006108652451075613,-0.001832595793530345,-0.0024434609804302454
1782771785570581200,7.039581298828125,0.0006108652451075613,-0.007941247895359993,-0.00733038317412138
1782771785580569000,7.049569091796875,0.0006108652451075613,-0.01466076634824276,-0.009162978269159794
1782771785590570500,7.059570556640625,0.0006108652451075613,-0.03726277872920036,-0.019547687843441963
1782771785600558000,7.06955810546875,-0.0006108652451075613,-0.06963863968849182,-0.03420845419168472
