time,seconds_elapsed,z,y,x
1782771604632018400,0.214018310546875,0,-0.001832595793530345,-0.0006108652451075613
1782771604642595000,0.224594970703125,0,-0.001832595793530345,-0.0006108652451075613
1782771604652587800,0.234587890625,0,-0.001832595793530345,-0.0006108652451075613
1782771604662614500,0.244614501953125,0,-0.001832595793530345,-0.0006108652451075613
1782771604672577000,0.254576904296875,0.0012217304902151227,0,0
1782771604682603500,0.264603515625,0.0006108652451075613,0,0
1782771604692596500,0.274596435546875,0.001832595793530345,0,0.0006108652451075613
1782771604702592500,0.284592529296875,-0.0006108652451075613,0,-0.0006108652451075613
1782771604712585700,0.294585693359375,-0.0006108652451075613,0,0
1782771604722617300,0.304617431640625,0,0,-0.0006108652451075613
1782771604732574500,0.314574462890625,-0.0006108652451075613,0.0006108652451075613,0.0006108652451075613
1782771604742606300,0.3246064453125,0,-0.0012217304902151227,0.0006108652451075613
1782771604752594000,0.334593994140625,0.0006108652451075613,0.0012217304902151227,0
1782771604762595600,0.344595703125,0.0006108652451075613,-0.0006108652451075613,-0.0006108652451075613
1782771604772583000,0.3545830078125,-0.0006108652451075613,0,0
1782771604782614800,0.36461474609375,-0.0006108652451075613,0,-0.0006108652451075613
1782771604792572200,0.374572265625,0,0.0006108652451075613,0
1782771604802603800,0.384603759765625,-0.0006108652451075613,-0.0006108652451075613,0.0012217304902151227
1782771604812591600,0.394591552734375,-0.0006108652451075613,0,-0.0006108652451075613
1782771604822591700,0.404591796875,0.0006108652451075613,-0.0006108652451075613,0
1782771604832580000,0.414580078125,-0.0006108652451075613,0,-0.0006108652451075613
1782771604842612200,0.4246123046875,0.0006108652451075613,0.0006108652451075613,-0.0006108652451075613
1782771604852569000,0.434569091796875,-0.0006108652451075613,0.0006108652451075613,-0.0006108652451075613
1782771604862600700,0.4446005859375,-0.0006108652451075613,0.0006108652451075613,0
1782771604872588500,0.454588623046875,-0.0006108652451075613,0.0006108652451075613,0
1782771604882589700,0.464589599609375,0,0,0.0006108652451075613
1782771604892577500,0.47457763671875,0.0006108652451075613,0,0
1782771604902609700,0.484609619140625,0.0006108652451075613,-0.0006108652451075613,-0.0006108652451075613
1782771604912597200,0.49459716796875,-0.0006108652451075613,-0.0006108652451075613,0
1782771604922567400,0.5045673828125,0,-0.0006108652451075613,0
1782771604932647700,0.514647705078125,-0.0006108652451075613,0,-0.0006108652451075613
1782771604942618600,0.52461865234375,-0.0006108652451075613,0,0.0006108652451075613
1782771604952575700,0.53457568359375,-0.0006108652451075613,-0.0006108652451075613,-0.0006108652451075613
1782771604962607600,0.544607666015625,-0.0012217304902151227,0.0006108652451075613,0
1782771604972595200,0.55459521484375,0.0006108652451075613,-0.0012217304902151227,0
1782771604982596600,0.5645966796875,0,-0.0012217304902151227,-0.0006108652451075613
1782771604992584200,0.574584228515625,-0.0006108652451075613,0,-0.0006108652451075613
1782771605002616000,0.584615966796875,-0.0006108652451075613,0,0.0012217304902151227
1782771605012573400,0.594573486328125,0.0006108652451075613,-0.0006108652451075613,-0.0006108652451075613
1782771605022605000,0.60460498046875,-0.0006108652451075613,0,-0.0006108652451075613
1782771605032593000,0.614593017578125,-0.0012217304902151227,0,0.0006108652451075613
1782771605042594000,0.624593994140625,0,0,0
1782771605052581600,0.63458154296875,-0.0006108652451075613,-0.0006108652451075613,-0.0012217304902151227
1782771605062613800,0.64461376953125,0,0,0.0006108652451075613
1782771605072571000,0.65457080078125,-0.0006108652451075613,0,0
1782771605082602800,0.664602783203125,0,0,-0.0006108652451075613
1782771605092590300,0.67459033203125,0,0,0
1782771605102591700,0.684591796875,-0.0006108652451075613,0,0
1782771605112579600,0.69457958984375,0,-0.0006108652451075613,0.0006108652451075613
1782771605122579700,0.704579833984375,-0.0006108652451075613,0.0006108652451075613,-0.0006108652451075613
1782771605132660000,0.714659912109375,-0.0006108652451075613,-0.0012217304902151227,0
1782771605142600200,0.72460009765625,0,-0.0006108652451075613,0
1782771605152587800,0.734587890625,0,-0.0006108652451075613,-0.0006108652451075613
1782771605162620000,0.744619873046875,0,0.0006108652451075613,0
1782771605172576800,0.75457666015625,-0.0006108652451075613,0,0
1782771605182577400,0.764577392578125,0.0006108652451075613,0,0.0006108652451075613
1782771605192567800,0.77456787109375,-0.0012217304902151227,0,-0.0006108652451075613
1782771605202628400,0.78462841796875,-0.0006108652451075613,0,0
1782771605212585500,0.79458544921875,0,0.0006108652451075613,0.0006108652451075613
1782771605222617000,0.8046171875,-0.0006108652451075613,-0.0006108652451075613,-0.0006108652451075613
1782771605232534500,0.814534423828125,0,0,0
1782771605242617300,0.824617431640625,0,-0.0006108652451075613,-0.0006108652451075613
1782771605252594200,0.83459423828125,0.0006108652451075613,0,-0.0006108652451075613
1782771605262595600,0.844595703125,0,0,0
1782771605272583200,0.854583251953125,0.0006108652451075613,0,0
1782771605282614800,0.86461474609375,0.0006108652451075613,0,0
1782771605292572200,0.874572265625,-0.0006108652451075613,-0.0012217304902151227,0
1782771605302572300,0.884572265625,-0.0006108652451075613,0.0006108652451075613,-0.0012217304902151227
1782771605312652800,0.89465283203125,0.0006108652451075613,0,0
1782771605322593000,0.904593017578125,-0.0012217304902151227,0,0.0006108652451075613
1782771605332540700,0.914540771484375,-0.0012217304902151227,0,0.0006108652451075613
1782771605342633200,0.92463330078125,-0.0012217304902151227,0.0006108652451075613,0.0006108652451075613
1782771605353700900,0.935700927734375,0,-0.0006108652451075613,0
1782771605372589000,0.954589111328125,-0.0006108652451075613,-0.0006108652451075613,-0.0012217304902151227
1782771605382590500,0.964590576171875,-0.001832595793530345,-0.0006108652451075613,0.0012217304902151227
1782771605392578300,0.974578369140625,-0.0006108652451075613,0,0
1782771605402610000,0.98460986328125,0,0,0
1782771605412597800,0.99459765625,-0.0012217304902151227,0,0
1782771605422599000,1.004598876953125,0,0,-0.0006108652451075613
1782771605432586800,1.014586669921875,0,-0.0006108652451075613,0
1782771605442618600,1.02461865234375,0.0006108652451075613,-0.0006108652451075613,0
1782771605452575500,1.034575439453125,0.0006108652451075613,0,0
1782771605462606800,1.04460693359375,0,0.0006108652451075613,0
1782771605472595200,1.05459521484375,-0.0006108652451075613,0,-0.0006108652451075613
1782771605482596600,1.0645966796875,0,0.0006108652451075613,-0.0006108652451075613
1782771605492584200,1.074584228515625,0,0,0
1782771605502616000,1.084615966796875,-0.0012217304902151227,-0.0006108652451075613,-0.0006108652451075613
1782771605512573400,1.094573486328125,-0.0006108652451075613,-0.0006108652451075613,-0.0006108652451075613
1782771605522605000,1.10460498046875,0,0,-0.0006108652451075613
1782771605532592600,1.114592529296875,-0.0012217304902151227,-0.0006108652451075613,-0.0006108652451075613
1782771605542594000,1.124593994140625,-0.0006108652451075613,0,0
1782771605552581600,1.13458154296875,-0.0006108652451075613,0,0
1782771605562613800,1.14461376953125,-0.0012217304902151227,0,0
1782771605572570600,1.154570556640625,-0.0012217304902151227,0,0.0006108652451075613
1782771605582602500,1.1646025390625,0,0,0.0006108652451075613
1782771605592590300,1.17459033203125,-0.0006108652451075613,0.0006108652451075613,0.0006108652451075613
1782771605602591500,1.184591552734375,-0.0006108652451075613,0,0
1782771605612579600,1.19457958984375,0,-0.0012217304902151227,-0.0006108652451075613
1782771605622611000,1.20461083984375,-0.0006108652451075613,0,0
1782771605632568600,1.214568603515625,0,0,-0.0006108652451075613
1782771605642600200,1.22460009765625,-0.0006108652451075613,0.0006108652451075613,0
1782771605652587800,1.234587890625,0.0006108652451075613,0.0006108652451075613,0
1782771605662619600,1.24461962890625,0,0.0006108652451075613,-0.0012217304902151227
1782771605672577000,1.254576904296875,-0.0006108652451075613,-0.0006108652451075613,0
1782771605682609000,1.26460888671875,0,0,-0.0006108652451075613
1782771605692596500,1.274596435546875,0.0006108652451075613,-0.0006108652451075613,0
1782771605702634500,1.284634521484375,0,0,-0.0012217304902151227
1782771605712585700,1.294585693359375,0.0006108652451075613,0.0006108652451075613,0
1782771605722612200,1.3046123046875,-0.0006108652451075613,-0.0006108652451075613,0.0006108652451075613
1782771605732574500,1.314574462890625,0,0,0.0006108652451075613
1782771605742601200,1.324601318359375,0,0.0006108652451075613,0.0012217304902151227
1782771605752594000,1.334593994140625,0,0,0
1782771605762590200,1.344590087890625,-0.0012217304902151227,0.0006108652451075613,-0.0006108652451075613
1782771605772583200,1.354583251953125,-0.0006108652451075613,0.0006108652451075613,0
1782771605782609700,1.364609619140625,-0.0012217304902151227,0.0006108652451075613,0.0006108652451075613
1782771605792572200,1.374572265625,-0.0006108652451075613,0,0
1782771605802604000,1.38460400390625,0,0.0012217304902151227,0
1782771605812591600,1.394591552734375,0,0.0006108652451075613,0.0006108652451075613
1782771605822591700,1.404591796875,-0.001832595793530345,0.0006108652451075613,0.0006108652451075613
1782771605832580000,1.414580078125,0,0.0012217304902151227,0.0006108652451075613
1782771605842611700,1.42461181640625,-0.0006108652451075613,0,-0.0012217304902151227
1782771605852569000,1.434569091796875,0.0006108652451075613,0.0012217304902151227,0
1782771605862600700,1.4446005859375,0,0.0012217304902151227,0.0012217304902151227
1782771605872588800,1.4545888671875,0,0.0006108652451075613,-0.0006108652451075613
1782771605882590000,1.46458984375,-0.0006108652451075613,0.0006108652451075613,0
1782771605892577500,1.47457763671875,-0.0006108652451075613,0.0012217304902151227,-0.0012217304902151227
1782771605902609400,1.484609375,0,0.0006108652451075613,0
1782771605912597000,1.494596923828125,-0.0006108652451075613,0.0012217304902151227,0.0006108652451075613
1782771605922598700,1.5045986328125,0,0.0006108652451075613,0
1782771605932586800,1.514586669921875,0.0006108652451075613,0,-0.0006108652451075613
1782771605942618600,1.52461865234375,-0.0006108652451075613,0.0012217304902151227,-0.0006108652451075613
1782771605952575700,1.53457568359375,0.0006108652451075613,0.0006108652451075613,0
1782771605962607600,1.544607666015625,-0.0006108652451075613,0.0012217304902151227,0
1782771605972595200,1.55459521484375,0.0006108652451075613,0.0006108652451075613,0
1782771605982596600,1.5645966796875,0,0,0
1782771605992584200,1.574584228515625,-0.0006108652451075613,0.0006108652451075613,0
1782771606002616000,1.584615966796875,0,0.0012217304902151227,0
1782771606012573400,1.594573486328125,0,0,-0.0006108652451075613
1782771606022605000,1.60460498046875,0,0,0.0012217304902151227
1782771606032593000,1.614593017578125,-0.0006108652451075613,0.0012217304902151227,0.0012217304902151227
1782771606042594000,1.624593994140625,-0.0006108652451075613,0.0012217304902151227,-0.001832595793530345
1782771606052581600,1.63458154296875,0,0,0
1782771606062613800,1.64461376953125,0,0.0006108652451075613,0.0006108652451075613
1782771606072571000,1.65457080078125,-0.0006108652451075613,0.0006108652451075613,0
1782771606082602800,1.664602783203125,-0.0006108652451075613,0.0006108652451075613,0
1782771606092590300,1.67459033203125,0,0.0006108652451075613,-0.0006108652451075613
1782771606102591700,1.684591796875,0,0.0006108652451075613,0.0006108652451075613
1782771606112579600,1.69457958984375,0.0012217304902151227,0.0006108652451075613,0.0012217304902151227
1782771606122611200,1.704611083984375,0,0,-0.0006108652451075613
1782771606132568300,1.714568359375,0,0.0012217304902151227,0
1782771606142600200,1.72460009765625,0,0.0012217304902151227,-0.0006108652451075613
1782771606152588000,1.734588134765625,0,0.0012217304902151227,-0.0012217304902151227
1782771606162619600,1.74461962890625,-0.0006108652451075613,0.0012217304902151227,0
1782771606172577000,1.754576904296875,0.0006108652451075613,0.0012217304902151227,0.0006108652451075613
1782771606182608000,1.76460791015625,0.0006108652451075613,0,-0.0006108652451075613
1782771606192596500,1.774596435546875,0,0.0012217304902151227,-0.0012217304902151227
1782771606202597000,1.78459716796875,-0.0012217304902151227,0.0006108652451075613,0.0006108652451075613
1782771606212585500,1.79458544921875,0,0.0012217304902151227,-0.0006108652451075613
1782771606222617300,1.804617431640625,-0.0006108652451075613,0,0
1782771606232574500,1.814574462890625,0,0.0012217304902151227,-0.0006108652451075613
1782771606242606600,1.824606689453125,-0.0006108652451075613,0,0
1782771606252594000,1.834593994140625,0,0.0012217304902151227,0.0006108652451075613
1782771606262595000,1.844594970703125,0,0,0
1782771606272583200,1.854583251953125,-0.0006108652451075613,0,-0.0012217304902151227
1782771606282614800,1.86461474609375,0.0006108652451075613,0.001832595793530345,0.0012217304902151227
1782771606292572200,1.874572265625,-0.0012217304902151227,0,0
1782771606302603800,1.884603759765625,-0.0006108652451075613,0.0006108652451075613,0
1782771606312591600,1.894591552734375,-0.0006108652451075613,0.0006108652451075613,-0.0006108652451075613
1782771606322592800,1.9045927734375,0,0.0012217304902151227,-0.0006108652451075613
1782771606332580600,1.91458056640625,-0.0006108652451075613,0.0006108652451075613,0.0006108652451075613
1782771606342612500,1.924612548828125,0,-0.0006108652451075613,-0.0012217304902151227
1782771606352569600,1.934569580078125,0,0.0006108652451075613,-0.0006108652451075613
1782771606362601500,1.9446015625,-0.0006108652451075613,0.0012217304902151227,0
1782771606372589000,1.954589111328125,-0.0012217304902151227,0,0
1782771606382590500,1.964590576171875,0,0,0.0006108652451075613
1782771606392578300,1.974578369140625,-0.0006108652451075613,0,0
1782771606402610000,1.98460986328125,-0.0006108652451075613,0.0006108652451075613,0.0006108652451075613
1782771606412597800,1.99459765625,0,0.0006108652451075613,0
1782771606422599200,2.00459912109375,0.0006108652451075613,0.0006108652451075613,0
1782771606432586800,2.014586669921875,-0.0006108652451075613,0.0006108652451075613,0
1782771606442618600,2.02461865234375,0,0,-0.0006108652451075613
1782771606452575700,2.03457568359375,-0.0006108652451075613,0.0006108652451075613,-0.0006108652451075613
1782771606462606800,2.04460693359375,-0.0012217304902151227,0.001832595793530345,0
1782771606472595200,2.05459521484375,0,0,0
1782771606482596600,2.0645966796875,0,0.0012217304902151227,-0.0006108652451075613
1782771606492584200,2.074584228515625,-0.0006108652451075613,0.0012217304902151227,-0.0006108652451075613
1782771606502616000,2.084615966796875,0.0006108652451075613,0.0006108652451075613,0.0006108652451075613
1782771606512573400,2.094573486328125,0,0.0006108652451075613,-0.0006108652451075613
1782771606522605000,2.10460498046875,0,0.0012217304902151227,0
1782771606532593000,2.114593017578125,0,0.0006108652451075613,0
1782771606542594000,2.124593994140625,-0.0006108652451075613,0.0006108652451075613,0
1782771606552581600,2.13458154296875,0,0,0.0006108652451075613
1782771606562613500,2.144613525390625,0,0.0012217304902151227,-0.0006108652451075613
1782771606572571000,2.15457080078125,0,0.0012217304902151227,-0.0006108652451075613
1782771606582602500,2.1646025390625,0,-0.0006108652451075613,0
1782771606592590600,2.174590576171875,0,0,-0.0006108652451075613
1782771606602591700,2.184591796875,-0.0006108652451075613,0.0012217304902151227,0.0006108652451075613
1782771606612579600,2.19457958984375,0,0.0006108652451075613,0
1782771606622611200,2.204611083984375,0,0,0
1782771606632568300,2.214568359375,-0.0006108652451075613,0,0
1782771606642600400,2.224600341796875,-0.0006108652451075613,0.0006108652451075613,-0.0006108652451075613
1782771606652587800,2.234587890625,-0.0006108652451075613,0.0006108652451075613,0
1782771606662620000,2.244619873046875,-0.0006108652451075613,0.0006108652451075613,0
1782771606672577000,2.254576904296875,-0.0006108652451075613,0.0006108652451075613,0.0006108652451075613
1782771606682608600,2.264608642578125,-0.0006108652451075613,0,0
1782771606692596500,2.274596435546875,-0.0006108652451075613,0,0
1782771606702597400,2.284597412109375,-0.0006108652451075613,0.0006108652451075613,0
1782771606712585700,2.294585693359375,0,0.0006108652451075613,0
1782771606722617300,2.304617431640625,-0.0006108652451075613,0,-0.0006108652451075613
1782771606732574500,2.314574462890625,-0.0006108652451075613,0.0006108652451075613,-0.0012217304902151227
1782771606742606300,2.3246064453125,0,0.0006108652451075613,-0.0006108652451075613
1782771606752594000,2.334593994140625,-0.0006108652451075613,0.0006108652451075613,0
1782771606762594800,2.3445947265625,0,0,-0.0006108652451075613
1782771606772583000,2.3545830078125,-0.0006108652451075613,0.0012217304902151227,-0.0012217304902151227
1782771606782628600,2.364628662109375,-0.0006108652451075613,0,0
1782771606792572200,2.374572265625,-0.0006108652451075613,0,0
1782771606802598700,2.3845986328125,0,-0.0006108652451075613,0.0012217304902151227
1782771606812591600,2.394591552734375,0,0.0006108652451075613,0.0006108652451075613
1782771606822586600,2.404586669921875,-0.0006108652451075613,-0.0006108652451075613,-0.0006108652451075613
1782771606832580000,2.414580078125,-0.0006108652451075613,0,-0.0006108652451075613
1782771606842606600,2.424606689453125,-0.0006108652451075613,0,0.0006108652451075613
1782771606852569000,2.434569091796875,-0.0006108652451075613,0,0
1782771606862595600,2.444595703125,-0.0012217304902151227,0.0006108652451075613,-0.0006108652451075613
1782771606872588500,2.454588623046875,0.0006108652451075613,0.0006108652451075613,-0.0006108652451075613
1782771606882590000,2.46458984375,0,-0.0006108652451075613,0.0006108652451075613
1782771606892577500,2.47457763671875,0,0.0006108652451075613,0
1782771606902609400,2.484609375,0,0.0006108652451075613,0.0006108652451075613
1782771606912597200,2.49459716796875,0,0.0006108652451075613,0.0006108652451075613
1782771606922598700,2.5045986328125,0.0006108652451075613,0,-0.0006108652451075613
1782771606932586800,2.514586669921875,0.0006108652451075613,0.0006108652451075613,0
1782771606942618600,2.52461865234375,-0.0012217304902151227,-0.0006108652451075613,-0.0006108652451075613
1782771606952575500,2.534575439453125,0.0006108652451075613,0,0
1782771606962607600,2.544607666015625,-0.0006108652451075613,0,-0.0006108652451075613
1782771606972595200,2.55459521484375,0,-0.0006108652451075613,0
1782771606982596600,2.5645966796875,0,0,0
1782771606992584400,2.57458447265625,0,0,0
1782771607002616000,2.584615966796875,0,0,0
1782771607012573400,2.594573486328125,0,0.0006108652451075613,0
1782771607022605000,2.60460498046875,0,-0.0012217304902151227,-0.0006108652451075613
1782771607032593000,2.614593017578125,0,0.0006108652451075613,0.0006108652451075613
1782771607042594000,2.624593994140625,-0.0006108652451075613,0,0
1782771607052582000,2.634581787109375,0,0,0
1782771607062613800,2.64461376953125,0,0.0006108652451075613,0
1782771607072571000,2.65457080078125,-0.0006108652451075613,0.0012217304902151227,-0.0006108652451075613
1782771607082602800,2.664602783203125,-0.0012217304902151227,-0.0006108652451075613,0
1782771607092590300,2.67459033203125,0.0006108652451075613,-0.0006108652451075613,0
1782771607102591500,2.684591552734375,0,-0.0006108652451075613,0
1782771607112579300,2.694579345703125,-0.0006108652451075613,-0.0006108652451075613,-0.0006108652451075613
1782771607122611200,2.704611083984375,0,0.0012217304902151227,-0.0006108652451075613
1782771607132568300,2.714568359375,0.0006108652451075613,0.0006108652451075613,-0.0006108652451075613
1782771607142600200,2.72460009765625,0,0.0006108652451075613,-0.0006108652451075613
1782771607152587800,2.734587890625,0,0,0
1782771607162620000,2.744619873046875,0,-0.0006108652451075613,0
1782771607172576800,2.75457666015625,0,-0.0006108652451075613,0
1782771607182609000,2.76460888671875,0,0,0
1782771607192596500,2.774596435546875,0,0,-0.0006108652451075613
1782771607202597600,2.78459765625,0,0,0
1782771607212585500,2.79458544921875,-0.0006108652451075613,0,0.0006108652451075613
1782771607222617000,2.8046171875,-0.0006108652451075613,-0.0006108652451075613,0.0006108652451075613
1782771607232574500,2.814574462890625,-0.0006108652451075613,0,-0.0006108652451075613
1782771607242606600,2.824606689453125,-0.0006108652451075613,-0.0006108652451075613,-0.0006108652451075613
1782771607252594000,2.834593994140625,0.0006108652451075613,0,0
1782771607262595300,2.84459521484375,-0.0006108652451075613,0,0.0006108652451075613
1782771607272583000,2.8545830078125,-0.0012217304902151227,0,-0.0006108652451075613
1782771607282614800,2.86461474609375,0.0006108652451075613,0.0006108652451075613,-0.0006108652451075613
1782771607292572200,2.874572265625,-0.0006108652451075613,0,0
1782771607302603800,2.884603759765625,0,0.0012217304902151227,0
1782771607312591600,2.894591552734375,0,0,0
1782771607322593000,2.904593017578125,0,0,-0.0006108652451075613
1782771607332580600,2.91458056640625,-0.0006108652451075613,0,-0.0006108652451075613
1782771607342612500,2.924612548828125,0,0,-0.0006108652451075613
1782771607352569600,2.934569580078125,0,0,-0.0006108652451075613
1782771607362601000,2.94460107421875,0,0,-0.0006108652451075613
1782771607372589000,2.954589111328125,0.0006108652451075613,0.0012217304902151227,-0.0012217304902151227
1782771607382590500,2.964590576171875,-0.0006108652451075613,0,0
1782771607392578300,2.974578369140625,-0.0006108652451075613,0,0.0006108652451075613
1782771607402609700,2.984609619140625,-0.0006108652451075613,-0.0006108652451075613,0
1782771607412597800,2.99459765625,-0.0006108652451075613,0.0006108652451075613,0
1782771607422599000,3.004598876953125,-0.0006108652451075613,0.0006108652451075613,-0.0006108652451075613
1782771607432586500,3.01458642578125,0.0006108652451075613,0,0
1782771607442618600,3.02461865234375,-0.0006108652451075613,0.0006108652451075613,0
1782771607452575700,3.03457568359375,0,0,0
1782771607462607600,3.044607666015625,0,0,0
1782771607472595200,3.05459521484375,0,0.0006108652451075613,0
1782771607482596600,3.0645966796875,0,0.0006108652451075613,-0.0006108652451075613
1782771607492584200,3.074584228515625,0,0.0006108652451075613,-0.0006108652451075613
1782771607502615800,3.08461572265625,0.0006108652451075613,0.0006108652451075613,-0.0012217304902151227
1782771607512573400,3.094573486328125,-0.0006108652451075613,0,0.0006108652451075613
1782771607522605000,3.10460498046875,-0.0006108652451075613,0.0006108652451075613,0
1782771607532592600,3.114592529296875,-0.0006108652451075613,0,0
1782771607542594300,3.12459423828125,-0.0006108652451075613,0,0
1782771607552581600,3.13458154296875,-0.0006108652451075613,0,0
1782771607562613800,3.14461376953125,0,-0.0012217304902151227,-0.0012217304902151227
1782771607572571000,3.15457080078125,0,0,-0.0012217304902151227
1782771607582602800,3.164602783203125,0.0006108652451075613,0,-0.0006108652451075613
1782771607592590300,3.17459033203125,-0.0006108652451075613,0,0
1782771607602592000,3.184592041015625,0.0006108652451075613,-0.0006108652451075613,-0.0012217304902151227
1782771607612579300,3.194579345703125,0,0,-0.0012217304902151227
1782771607622611200,3.204611083984375,-0.0006108652451075613,0,0
1782771607632568600,3.214568603515625,-0.0006108652451075613,0.0006108652451075613,0
1782771607642600200,3.22460009765625,-0.0006108652451075613,-0.0006108652451075613,0.0006108652451075613
1782771607652587800,3.234587890625,0,-0.0006108652451075613,-0.0006108652451075613
1782771607662620000,3.244619873046875,0,0,0
1782771607672577000,3.254576904296875,-0.0006108652451075613,0,0
1782771607682609000,3.26460888671875,-0.0012217304902151227,0,-0.0006108652451075613
1782771607692596500,3.274596435546875,0,0,0.0006108652451075613
1782771607702620700,3.28462060546875,0.0006108652451075613,0,0
1782771607712585500,3.29458544921875,-0.0006108652451075613,0,-0.0006108652451075613
1782771607722617300,3.304617431640625,0,0,0
1782771607732574500,3.314574462890625,-0.0006108652451075613,0,0.0006108652451075613
1782771607742606300,3.3246064453125,0,0,0
1782771607752594000,3.334593994140625,0.0006108652451075613,0.0006108652451075613,-0.0006108652451075613
1782771607762595000,3.344594970703125,-0.0012217304902151227,0,0.0006108652451075613
1782771607772583000,3.3545830078125,0.0006108652451075613,-0.0006108652451075613,0.0006108652451075613
1782771607782614800,3.36461474609375,0,0,0
1782771607792572200,3.374572265625,-0.0006108652451075613,-0.0006108652451075613,-0.0006108652451075613
1782771607802603800,3.384603759765625,0,0,-0.0006108652451075613
1782771607812591600,3.394591552734375,0,0,0
1782771607822592000,3.404592041015625,-0.0006108652451075613,0,-0.0006108652451075613
1782771607832580000,3.414580078125,-0.0006108652451075613,-0.0012217304902151227,-0.0006108652451075613
1782771607842612000,3.424612060546875,0,0,0
1782771607852569000,3.434569091796875,-0.0012217304902151227,-0.0012217304902151227,0.0006108652451075613
1782771607862614500,3.444614501953125,-0.0006108652451075613,0,0
1782771607872588800,3.4545888671875,0,0,0
1782771607882584800,3.464584716796875,-0.0012217304902151227,0.0006108652451075613,0
1782771607892577500,3.47457763671875,-0.0006108652451075613,0,0
1782771607902604300,3.484604248046875,-0.0012217304902151227,-0.0006108652451075613,0
1782771607912597000,3.494596923828125,-0.0006108652451075613,-0.0006108652451075613,0
1782771607922593800,3.50459375,-0.0006108652451075613,0.0006108652451075613,-0.0006108652451075613
1782771607932586800,3.514586669921875,-0.0012217304902151227,0,0.0006108652451075613
1782771607942613000,3.524613037109375,-0.0012217304902151227,-0.0006108652451075613,0.0006108652451075613
1782771607952535800,3.534535888671875,-0.0012217304902151227,0,0
1782771607962668800,3.544668701171875,0,0,0
1782771607972595200,3.55459521484375,-0.0006108652451075613,0,0.0006108652451075613
1782771607982596400,3.564596435546875,0,0,-0.0006108652451075613
1782771607992544500,3.57454443359375,-0.0006108652451075613,0.0006108652451075613,-0.0006108652451075613
1782771608002677000,3.584677001953125,-0.0006108652451075613,0.0006108652451075613,-0.0006108652451075613
1782771608012573400,3.594573486328125,-0.0006108652451075613,0.0012217304902151227,-0.0012217304902151227
1782771608022605300,3.604605224609375,-0.0006108652451075613,0,-0.0006108652451075613
1782771608032593000,3.614593017578125,-0.0012217304902151227,0,0
1782771608042594300,3.62459423828125,0,0,-0.0006108652451075613
1782771608052581600,3.63458154296875,0.0006108652451075613,0,0
1782771608062613800,3.64461376953125,0,-0.0006108652451075613,-0.0006108652451075613
1782771608072571000,3.65457080078125,-0.0012217304902151227,0.0006108652451075613,-0.0006108652451075613
1782771608082602500,3.6646025390625,-0.0006108652451075613,0.0006108652451075613,0.0006108652451075613
1782771608092590300,3.67459033203125,0,0,-0.0012217304902151227
1782771608102591700,3.684591796875,0,0,0
1782771608112579600,3.69457958984375,-0.0006108652451075613,0,0
1782771608122611200,3.704611083984375,0,-0.0006108652451075613,0.0006108652451075613
1782771608132568300,3.714568359375,-0.0012217304902151227,-0.0006108652451075613,0
1782771608142599700,3.724599609375,-0.0006108652451075613,0,0
1782771608152587800,3.734587890625,-0.0006108652451075613,0,-0.0006108652451075613
1782771608162619600,3.74461962890625,0.0006108652451075613,0,0
1782771608172577000,3.754576904296875,0,0.0006108652451075613,0
1782771608182577400,3.764577392578125,0,0,0.0006108652451075613
1782771608192328400,3.774328369140625,-0.0006108652451075613,-0.0006108652451075613,0
1782771608202628400,3.78462841796875,-0.0006108652451075613,-0.0006108652451075613,0
1782771608212585500,3.79458544921875,-0.0006108652451075613,0,0
1782771608222585600,3.804585693359375,-0.0012217304902151227,-0.0006108652451075613,0
1782771608232258300,3.81425830078125,-0.0012217304902151227,-0.0006108652451075613,-0.0006108652451075613
1782771608242606300,3.8246064453125,0.0006108652451075613,0,-0.0012217304902151227
1782771608252594000,3.834593994140625,0.0006108652451075613,0,-0.0006108652451075613
1782771608262595600,3.844595703125,0,0,0.0006108652451075613
1782771608272583200,3.854583251953125,0.0006108652451075613,0,-0.0012217304902151227
1782771608282614800,3.86461474609375,-0.0012217304902151227,0,0
1782771608292572000,3.874572021484375,-0.0006108652451075613,-0.0006108652451075613,0
1782771608302603800,3.884603759765625,-0.0006108652451075613,0,0.0006108652451075613
1782771608312591600,3.894591552734375,-0.0006108652451075613,0.0006108652451075613,-0.0006108652451075613
1782771608322592800,3.9045927734375,-0.0006108652451075613,0.0006108652451075613,0
1782771608332580600,3.91458056640625,0,0,0
1782771608342612500,3.924612548828125,0,0,0
1782771608352569600,3.934569580078125,-0.0012217304902151227,0,-0.0006108652451075613
1782771608362601500,3.9446015625,-0.0012217304902151227,0,-0.0006108652451075613
1782771608372589000,3.954589111328125,-0.0006108652451075613,-0.0006108652451075613,-0.0006108652451075613
1782771608382590500,3.964590576171875,0,-0.0006108652451075613,0
1782771608392578300,3.974578369140625,0.0006108652451075613,0,0
1782771608402610000,3.98460986328125,0,-0.0006108652451075613,0
1782771608412597800,3.99459765625,-0.0012217304902151227,-0.0006108652451075613,0
1782771608422599200,4.00459912109375,-0.0006108652451075613,0,0
1782771608432586800,4.014586669921875,0,0,0
1782771608442618400,4.024618408203125,0,0,0.0012217304902151227
1782771608452575500,4.034575439453125,-0.0006108652451075613,0.0006108652451075613,0.0006108652451075613
1782771608462607400,4.044607421875,-0.0006108652451075613,0,-0.0006108652451075613
1782771608472595200,4.05459521484375,-0.0006108652451075613,0,0
1782771608482595800,4.064595947265625,-0.0006108652451075613,0.0006108652451075613,-0.0012217304902151227
1782771608492584200,4.074584228515625,0,-0.0006108652451075613,-0.0006108652451075613
1782771608502616000,4.084615966796875,0,-0.0006108652451075613,-0.0012217304902151227
1782771608512573400,4.094573486328125,-0.0006108652451075613,0,0.0006108652451075613
1782771608522573600,4.104573486328125,-0.0012217304902151227,0,-0.0006108652451075613
1782771608532653800,4.11465380859375,-0.0006108652451075613,-0.0006108652451075613,-0.0006108652451075613
1782771608542562600,4.1245625,0,0.0006108652451075613,0.0006108652451075613
1782771608552358700,4.134358642578125,-0.0006108652451075613,-0.0012217304902151227,0.0006108652451075613
1782771608562674700,4.1446748046875,-0.0012217304902151227,0,0.0006108652451075613
1782771608572571000,4.15457080078125,-0.0006108652451075613,-0.0006108652451075613,0
1782771608582602800,4.164602783203125,0,0,0.0006108652451075613
1782771608592590300,4.17459033203125,-0.0006108652451075613,0.0006108652451075613,0
1782771608602560300,4.184560302734375,0,0.0006108652451075613,0
1782771608612640500,4.194640625,-0.0012217304902151227,0.0012217304902151227,-0.0006108652451075613
1782771608622611500,4.204611572265625,-0.0012217304902151227,-0.0006108652451075613,0
1782771608632568600,4.214568603515625,0,0,0
1782771608642600200,4.22460009765625,0,0,0.0006108652451075613
1782771608652587800,4.234587890625,-0.0006108652451075613,0,-0.0006108652451075613
1782771608662620000,4.244619873046875,-0.0006108652451075613,0,-0.0006108652451075613
1782771608672577000,4.254576904296875,0,0,0.0006108652451075613
1782771608682608600,4.264608642578125,-0.0006108652451075613,0,0
1782771608692596500,4.274596435546875,-0.0006108652451075613,0,0.0006108652451075613
1782771608702597600,4.28459765625,-0.0006108652451075613,-0.0006108652451075613,0.0006108652451075613
1782771608712585500,4.29458544921875,-0.0006108652451075613,0,-0.0006108652451075613
1782771608722616800,4.304616943359375,0,-0.0006108652451075613,-0.0006108652451075613
1782771608732574500,4.314574462890625,0,0.0006108652451075613,0.0006108652451075613
1782771608742606300,4.3246064453125,-0.0006108652451075613,-0.0012217304902151227,-0.0006108652451075613
1782771608752594000,4.334593994140625,0,-0.0006108652451075613,-0.0006108652451075613
1782771608762595600,4.344595703125,-0.0006108652451075613,0,0
1782771608772583000,4.3545830078125,-0.0012217304902151227,0.0006108652451075613,0
1782771608782614500,4.364614501953125,-0.0006108652451075613,0,-0.0006108652451075613
1782771608792572200,4.374572265625,0,0.0006108652451075613,-0.0006108652451075613
1782771608802603800,4.384603759765625,-0.0006108652451075613,0,0
1782771608812591600,4.394591552734375,0,0,-0.0006108652451075613
1782771608822530800,4.40453076171875,0,-0.0006108652451075613,0
1782771608832235500,4.414235595703125,0,0,-0.0006108652451075613
1782771608842672400,4.42467236328125,0,-0.0006108652451075613,-0.0006108652451075613
1782771608852569000,4.434569091796875,0.0006108652451075613,-0.0006108652451075613,0.0006108652451075613
1782771608862601000,4.44460107421875,0,-0.0006108652451075613,-0.0006108652451075613
1782771608872588500,4.454588623046875,-0.0006108652451075613,-0.0006108652451075613,0
1782771608882590000,4.46458984375,0,-0.0006108652451075613,0
1782771608892577500,4.47457763671875,0,0,0
1782771608902609400,4.484609375,-0.0006108652451075613,0,0
1782771608912597200,4.49459716796875,0,-0.0006108652451075613,0.0012217304902151227
1782771608922599000,4.504598876953125,0.0006108652451075613,0.0006108652451075613,0.0012217304902151227
1782771608932586500,4.51458642578125,-0.0006108652451075613,-0.0006108652451075613,0.0006108652451075613
1782771608942632200,4.524632080078125,-0.0006108652451075613,0.0006108652451075613,0
1782771608952575500,4.534575439453125,0.0012217304902151227,0.0006108652451075613,0
1782771608962602200,4.544602294921875,-0.0012217304902151227,0.0006108652451075613,0.0006108652451075613
1782771608972595200,4.55459521484375,0,0,0.0012217304902151227
1782771608982591200,4.56459130859375,-0.0006108652451075613,-0.0006108652451075613,-0.0006108652451075613
1782771608992584200,4.574584228515625,-0.0006108652451075613,0.0006108652451075613,-0.0006108652451075613
1782771609002611000,4.58461083984375,0,0.0006108652451075613,-0.0006108652451075613
1782771609012573400,4.594573486328125,-0.0006108652451075613,0,0.0006108652451075613
1782771609022599700,4.604599609375,0,0.0012217304902151227,0.0006108652451075613
1782771609032593000,4.614593017578125,0,0.0006108652451075613,-0.0006108652451075613
1782771609042594300,4.62459423828125,0,0,-0.0006108652451075613
1782771609052581600,4.63458154296875,-0.0006108652451075613,0.0006108652451075613,0
1782771609062613800,4.64461376953125,0,0,0
1782771609072571000,4.65457080078125,0.0006108652451075613,0.0006108652451075613,-0.0006108652451075613
1782771609082602800,4.664602783203125,0,0.0006108652451075613,-0.0006108652451075613
1782771609092590300,4.67459033203125,-0.0006108652451075613,0,0
1782771609102591700,4.684591796875,0,0.0006108652451075613,-0.0006108652451075613
1782771609112579300,4.694579345703125,-0.0006108652451075613,0.0012217304902151227,0
1782771609122611200,4.704611083984375,-0.0012217304902151227,0.0006108652451075613,-0.0006108652451075613
1782771609132568300,4.714568359375,0,0.0012217304902151227,0
1782771609142600200,4.72460009765625,0,0,0.0006108652451075613
1782771609152587800,4.734587890625,-0.0012217304902151227,0.0006108652451075613,0.0006108652451075613
1782771609162620000,4.744619873046875,-0.0012217304902151227,0,0
1782771609172576800,4.75457666015625,-0.0006108652451075613,-0.0006108652451075613,-0.0012217304902151227
1782771609182608600,4.764608642578125,-0.0012217304902151227,0.0006108652451075613,0
1782771609192596500,4.774596435546875,0,0,0
1782771609202597600,4.78459765625,-0.0012217304902151227,0.0006108652451075613,-0.0012217304902151227
1782771609212585500,4.79458544921875,0,0.0006108652451075613,0.0006108652451075613
1782771609222616800,4.804616943359375,0,0.0006108652451075613,-0.0006108652451075613
1782771609232574500,4.814574462890625,-0.0006108652451075613,-0.0006108652451075613,0.0012217304902151227
1782771609242606300,4.8246064453125,0.0006108652451075613,0.0012217304902151227,0
1782771609252594000,4.834593994140625,-0.0006108652451075613,0,0
1782771609262595600,4.844595703125,0,0.001832595793530345,-0.0006108652451075613
1782771609272583000,4.8545830078125,0.0006108652451075613,0.0006108652451075613,0
1782771609282615000,4.864614990234375,0.0006108652451075613,0.0006108652451075613,0
1782771609292572200,4.874572265625,-0.0006108652451075613,0.001832595793530345,0.0006108652451075613
1782771609302603800,4.884603759765625,0,0.0006108652451075613,-0.0006108652451075613
1782771609312591600,4.894591552734375,-0.0006108652451075613,0.0006108652451075613,0.0006108652451075613
1782771609322592800,4.9045927734375,-0.0012217304902151227,0,0
1782771609332580600,4.91458056640625,0,0.0006108652451075613,0.0006108652451075613
1782771609342612500,4.924612548828125,-0.0006108652451075613,0,0
1782771609352569600,4.934569580078125,0,0.0012217304902151227,-0.0006108652451075613
1782771609362601200,4.944601318359375,-0.0006108652451075613,0,0
1782771609372589000,4.954589111328125,-0.0006108652451075613,0,-0.0006108652451075613
1782771609382590000,4.96458984375,0,0.001832595793530345,0
1782771609392578300,4.974578369140625,-0.0006108652451075613,0.0012217304902151227,-0.0006108652451075613
1782771609402609700,4.984609619140625,0,0.0012217304902151227,-0.0012217304902151227
1782771609412597800,4.99459765625,0,0,0.0006108652451075613
1782771609422599000,5.004598876953125,0,0.0006108652451075613,0
1782771609432586500,5.01458642578125,-0.0006108652451075613,0.0006108652451075613,0
1782771609442618600,5.02461865234375,-0.0006108652451075613,0.0006108652451075613,0
1782771609452575700,5.03457568359375,0,0,-0.0006108652451075613
1782771609462607600,5.044607666015625,-0.0006108652451075613,0.0006108652451075613,0
1782771609472595500,5.054595458984375,0,0,0.0006108652451075613
1782771609482596400,5.064596435546875,0,0.0012217304902151227,0.0006108652451075613
1782771609492584200,5.074584228515625,-0.0006108652451075613,0.0006108652451075613,0
1782771609502616000,5.084615966796875,-0.0006108652451075613,0.0012217304902151227,0.0012217304902151227
1782771609512573400,5.094573486328125,0,0.0006108652451075613,0.0006108652451075613
1782771609522605000,5.10460498046875,-0.0006108652451075613,0.0006108652451075613,-0.0006108652451075613
1782771609532552700,5.114552734375,0.0006108652451075613,0,0.0006108652451075613
1782771609542685400,5.124685546875,0,0.0006108652451075613,0.0012217304902151227
1782771609552542000,5.1345419921875,0,0.0006108652451075613,0.0006108652451075613
1782771609562612700,5.14461279296875,-0.0006108652451075613,0,0
1782771609572662300,5.154662353515625,0,0.0012217304902151227,0
1782771609582602500,5.1646025390625,0,0.0006108652451075613,0.0006108652451075613
1782771609592590300,5.17459033203125,-0.0006108652451075613,0.0006108652451075613,0
1782771609602591500,5.184591552734375,0,0.0006108652451075613,0
1782771609612579600,5.19457958984375,-0.0012217304902151227,0.0012217304902151227,0.0006108652451075613
1782771609622611200,5.204611083984375,-0.0006108652451075613,0.0006108652451075613,0.0006108652451075613
1782771609632568600,5.214568603515625,0,0,0
1782771609642600400,5.224600341796875,0,0.0006108652451075613,0.0006108652451075613
1782771609652588000,5.234588134765625,-0.0006108652451075613,0,-0.0006108652451075613
1782771609662620000,5.244619873046875,-0.0006108652451075613,0.0006108652451075613,0
1782771609673740000,5.255739990234375,0,0.0012217304902151227,0
1782771609692596500,5.274596435546875,-0.0012217304902151227,0.0006108652451075613,0.0012217304902151227
1782771609702621000,5.284620849609375,0,0.0006108652451075613,0
1782771609712585700,5.294585693359375,-0.0006108652451075613,0,0.0006108652451075613
1782771609722617000,5.3046171875,-0.0006108652451075613,0,-0.0012217304902151227
1782771609732574500,5.314574462890625,0,0.0006108652451075613,0.0006108652451075613
1782771609742606300,5.3246064453125,-0.0006108652451075613,0.0006108652451075613,0
1782771609752594000,5.334593994140625,0,0.0006108652451075613,0.0006108652451075613
1782771609762595300,5.34459521484375,-0.0006108652451075613,0.0012217304902151227,0.0006108652451075613
1782771609772583000,5.3545830078125,-0.0012217304902151227,0.0012217304902151227,0
1782771609782614500,5.364614501953125,0.0006108652451075613,0.0006108652451075613,-0.0006108652451075613
1782771609792572200,5.374572265625,0,0.0006108652451075613,0.0006108652451075613
1782771609802603800,5.384603759765625,0,0.0006108652451075613,0.0006108652451075613
1782771609812591600,5.394591552734375,-0.0012217304902151227,0.0012217304902151227,0
1782771609822591700,5.404591796875,0,0.0012217304902151227,0.0006108652451075613
1782771609832580000,5.414580078125,-0.0012217304902151227,0,0
1782771609842612000,5.424612060546875,-0.0006108652451075613,0.0006108652451075613,0
1782771609852569000,5.434569091796875,-0.0006108652451075613,0.0006108652451075613,0
1782771609862601000,5.44460107421875,0,0.0006108652451075613,0.0006108652451075613
1782771609872588500,5.454588623046875,-0.0006108652451075613,0.0006108652451075613,0
1782771609882590000,5.46458984375,0,0.0012217304902151227,-0.0006108652451075613
1782771609892577500,5.47457763671875,-0.0012217304902151227,0.0006108652451075613,0
1782771609902609400,5.484609375,-0.0006108652451075613,0,0
1782771609912597000,5.494596923828125,0.0006108652451075613,0.0012217304902151227,-0.0006108652451075613
1782771609922599000,5.504598876953125,0,0.0006108652451075613,0
1782771609932586800,5.514586669921875,0,0.0006108652451075613,-0.0006108652451075613
1782771609942618600,5.52461865234375,-0.0006108652451075613,0.0006108652451075613,0
1782771609952575700,5.53457568359375,-0.0006108652451075613,0.0012217304902151227,-0.0006108652451075613
1782771609962606800,5.54460693359375,0,0.0012217304902151227,0
1782771609972555300,5.55455517578125,-0.0006108652451075613,0.0012217304902151227,-0.0006108652451075613
1782771609982688000,5.56468798828125,-0.0012217304902151227,0,0.0012217304902151227
1782771609992584200,5.574584228515625,-0.0012217304902151227,0.0012217304902151227,-0.0006108652451075613
1782771610002616000,5.584615966796875,-0.0012217304902151227,0,0
1782771610012573400,5.594573486328125,0,0.001832595793530345,0
1782771610022619000,5.604618896484375,-0.0006108652451075613,-0.0006108652451075613,-0.0006108652451075613
1782771610032593000,5.614593017578125,-0.0006108652451075613,0,-0.0006108652451075613
1782771610042589000,5.6245888671875,-0.0012217304902151227,-0.0006108652451075613,-0.0012217304902151227
1782771610052581600,5.63458154296875,-0.0012217304902151227,-0.0006108652451075613,0
1782771610062608400,5.6446083984375,-0.0006108652451075613,-0.0006108652451075613,-0.0006108652451075613
1782771610072571000,5.65457080078125,0,0,0
1782771610082597400,5.664597412109375,0.0006108652451075613,0,-0.0006108652451075613
1782771610092590300,5.67459033203125,0,0,-0.001832595793530345
1782771610102586600,5.684586669921875,-0.0006108652451075613,-0.0006108652451075613,-0.0012217304902151227
1782771610112579600,5.69457958984375,-0.0006108652451075613,0,-0.0012217304902151227
1782771610122611200,5.704611083984375,0,-0.0006108652451075613,-0.0006108652451075613
1782771610132568300,5.714568359375,-0.0006108652451075613,0,0
1782771610142600200,5.72460009765625,-0.0006108652451075613,0,-0.001832595793530345
1782771610152587800,5.734587890625,0,0,0
1782771610162619600,5.74461962890625,-0.0006108652451075613,0,-0.0012217304902151227
1782771610172576800,5.75457666015625,0.0006108652451075613,0.0006108652451075613,-0.0012217304902151227
1782771610182608100,5.764608154296875,-0.0012217304902151227,-0.0006108652451075613,0.0006108652451075613
1782771610192596500,5.774596435546875,0,0.0006108652451075613,-0.0006108652451075613
1782771610202597600,5.78459765625,0,-0.0006108652451075613,-0.0012217304902151227
1782771610212585500,5.79458544921875,0,-0.0006108652451075613,-0.0006108652451075613
1782771610222585900,5.8045859375,-0.0006108652451075613,-0.0006108652451075613,-0.0006108652451075613
1782771610232377900,5.8143779296875,-0.0006108652451075613,0,-0.001832595793530345
1782771610242606600,5.824606689453125,-0.0006108652451075613,0,-0.001832595793530345
1782771610252554000,5.834553955078125,-0.001832595793530345,0,-0.0006108652451075613
1782771610262687000,5.84468701171875,-0.0006108652451075613,0.0006108652451075613,-0.0006108652451075613
1782771610272583200,5.854583251953125,-0.0006108652451075613,-0.0006108652451075613,-0.0006108652451075613
1782771610282615000,5.864614990234375,-0.0006108652451075613,-0.0006108652451075613,-0.0012217304902151227
1782771610292572000,5.874572021484375,-0.001832595793530345,0.0006108652451075613,0
1782771610302572500,5.884572509765625,0,0,-0.0012217304902151227
1782771610312429600,5.8944296875,-0.0006108652451075613,-0.0006108652451075613,-0.0006108652451075613
1782771610322684400,5.904684326171875,-0.0006108652451075613,-0.0006108652451075613,-0.0012217304902151227
1782771610332580600,5.91458056640625,-0.0006108652451075613,0,-0.0006108652451075613
1782771610342612500,5.924612548828125,0,-0.0006108652451075613,0
1782771610352569600,5.934569580078125,-0.0006108652451075613,0.0006108652451075613,0
1782771610362601500,5.9446015625,0,-0.0006108652451075613,-0.001832595793530345
1782771610372589300,5.95458935546875,0,0.0006108652451075613,-0.0006108652451075613
1782771610382590200,5.964590087890625,-0.0006108652451075613,-0.0006108652451075613,-0.0012217304902151227
1782771610392578300,5.974578369140625,-0.0006108652451075613,0,0
1782771610402609700,5.984609619140625,-0.0012217304902151227,0,-0.0006108652451075613
1782771610412597800,5.99459765625,-0.0012217304902151227,0,-0.0006108652451075613
1782771610422599200,6.00459912109375,0,0,-0.001832595793530345
1782771610432586800,6.014586669921875,0,0,-0.0006108652451075613
1782771610442618000,6.0246181640625,0.0006108652451075613,0,-0.001832595793530345
1782771610452575700,6.03457568359375,-0.0006108652451075613,-0.0006108652451075613,-0.001832595793530345
1782771610462608000,6.04460791015625,-0.0006108652451075613,-0.0006108652451075613,-0.0006108652451075613
1782771610472595200,6.05459521484375,-0.0006108652451075613,0,-0.001832595793530345
1782771610482596600,6.0645966796875,-0.0006108652451075613,-0.0006108652451075613,-0.0006108652451075613
1782771610492584200,6.074584228515625,-0.0006108652451075613,0,-0.0012217304902151227
1782771610502616000,6.084615966796875,0,-0.0006108652451075613,-0.0006108652451075613
1782771610512573400,6.094573486328125,-0.0012217304902151227,0,-0.0006108652451075613
1782771610522573600,6.104573486328125,0,0.0006108652451075613,0.0006108652451075613
1782771610532653800,6.11465380859375,-0.0006108652451075613,-0.0006108652451075613,-0.0012217304902151227
1782771610542594300,6.12459423828125,-0.0006108652451075613,-0.0006108652451075613,-0.0006108652451075613
1782771610552582000,6.134581787109375,-0.0006108652451075613,0.0006108652451075613,-0.0006108652451075613
1782771610562613500,6.144613525390625,-0.0006108652451075613,0,-0.0012217304902151227
1782771610572571000,6.15457080078125,-0.0006108652451075613,0.0006108652451075613,-0.0012217304902151227
1782771610582602500,6.1646025390625,-0.0006108652451075613,-0.0006108652451075613,0
1782771610592590300,6.17459033203125,0,0,-0.0006108652451075613
1782771610602591200,6.18459130859375,-0.0006108652451075613,0.0006108652451075613,-0.0012217304902151227
1782771610612539400,6.194539306640625,0,0.0006108652451075613,-0.0006108652451075613
1782771610622672100,6.204672119140625,0,0,-0.0006108652451075613
1782771610632528400,6.2145283203125,0,-0.0006108652451075613,-0.0006108652451075613
1782771610642691800,6.22469189453125,0,-0.0006108652451075613,-0.0006108652451075613
1782771610652587800,6.234587890625,0.0006108652451075613,-0.0006108652451075613,0.0006108652451075613
1782771610662620000,6.244619873046875,-0.0006108652451075613,0,0
1782771610672577000,6.254576904296875,0,-0.0006108652451075613,-0.0006108652451075613
1782771610682609000,6.26460888671875,-0.0006108652451075613,-0.0006108652451075613,0
1782771610692596500,6.274596435546875,0,0,0
1782771610702597000,6.28459716796875,-0.0006108652451075613,-0.0006108652451075613,-0.0012217304902151227
1782771610712585500,6.29458544921875,-0.0012217304902151227,0,-0.0012217304902151227
1782771610722617300,6.304617431640625,-0.0012217304902151227,-0.0006108652451075613,0.0006108652451075613
1782771610732574700,6.31457470703125,-0.0006108652451075613,-0.0006108652451075613,-0.0006108652451075613
1782771610742606300,6.3246064453125,0,0,-0.0006108652451075613
1782771610752594000,6.334593994140625,-0.0006108652451075613,-0.0006108652451075613,-0.0012217304902151227
1782771610762595600,6.344595703125,-0.0006108652451075613,-0.0012217304902151227,-0.0012217304902151227
1782771610772583200,6.354583251953125,-0.0006108652451075613,0,-0.0006108652451075613
1782771610782615000,6.364614990234375,-0.0006108652451075613,-0.0006108652451075613,0.0006108652451075613
1782771610792572200,6.374572265625,-0.0006108652451075613,-0.0006108652451075613,-0.0006108652451075613
1782771610802603800,6.384603759765625,-0.0012217304902151227,0,0
1782771610812591600,6.394591552734375,-0.0012217304902151227,0,-0.0012217304902151227
1782771610822592000,6.404592041015625,-0.0006108652451075613,0,0
1782771610832580000,6.414580078125,-0.0006108652451075613,0,-0.0006108652451075613
1782771610842612000,6.424612060546875,0.0006108652451075613,-0.0012217304902151227,-0.0012217304902151227
1782771610852569000,6.434569091796875,-0.0006108652451075613,-0.0006108652451075613,0
1782771610862600700,6.4446005859375,-0.0006108652451075613,0,-0.0012217304902151227
1782771610872588500,6.454588623046875,0,0.0006108652451075613,0
1782771610882589700,6.464589599609375,-0.0006108652451075613,0.0006108652451075613,-0.0006108652451075613
1782771610892577500,6.47457763671875,-0.0006108652451075613,0.0012217304902151227,-0.0006108652451075613
1782771610902609400,6.484609375,0,-0.0006108652451075613,0
1782771610912597200,6.49459716796875,-0.0006108652451075613,0,-0.0006108652451075613
1782771610922599000,6.504598876953125,0,0,0
1782771610932586500,6.51458642578125,-0.0006108652451075613,0.0006108652451075613,-0.0006108652451075613
1782771610942618400,6.524618408203125,0,0,-0.001832595793530345
1782771610952575500,6.534575439453125,-0.0006108652451075613,-0.0006108652451075613,-0.0006108652451075613
1782771610962607600,6.544607666015625,0,0,-0.0012217304902151227
1782771610972595200,6.55459521484375,0,0,0
1782771610982596400,6.564596435546875,0,-0.0006108652451075613,-0.0006108652451075613
1782771610992584400,6.57458447265625,-0.0006108652451075613,-0.0006108652451075613,-0.0006108652451075613
1782771611002615600,6.584615478515625,-0.0006108652451075613,-0.0006108652451075613,-0.0006108652451075613
1782771611012573400,6.594573486328125,-0.0006108652451075613,0.0006108652451075613,-0.0006108652451075613
1782771611022605000,6.60460498046875,0,0.0006108652451075613,-0.0012217304902151227
1782771611032592600,6.614592529296875,0,0,-0.0006108652451075613
1782771611042594000,6.624593994140625,-0.0006108652451075613,-0.0006108652451075613,0
1782771611052581600,6.63458154296875,-0.0012217304902151227,0,-0.0006108652451075613
1782771611062613800,6.64461376953125,-0.0006108652451075613,0,-0.0012217304902151227
1782771611072571000,6.65457080078125,-0.0006108652451075613,0,-0.0006108652451075613
1782771611082603000,6.66460302734375,0.0012217304902151227,0.0006108652451075613,-0.0006108652451075613
1782771611092590600,6.674590576171875,0,-0.0012217304902151227,-0.0006108652451075613
1782771611102605300,6.684605224609375,-0.0006108652451075613,0.0006108652451075613,0.0006108652451075613
1782771611112579600,6.69457958984375,0,0,-0.0006108652451075613
1782771611122606000,6.704606201171875,-0.0012217304902151227,0,0
1782771611132568300,6.714568359375,0,0.0006108652451075613,-0.0006108652451075613
1782771611142594600,6.724594482421875,-0.0012217304902151227,0.0012217304902151227,0.0006108652451075613
1782771611152587800,6.734587890625,0,0.001832595793530345,-0.0012217304902151227
1782771611162614500,6.744614501953125,-0.0012217304902151227,0.0006108652451075613,-0.0006108652451075613
1782771611172576800,6.75457666015625,-0.0006108652451075613,0,0
1782771611182603500,6.764603515625,-0.0006108652451075613,0.0006108652451075613,0
1782771611192596500,6.774596435546875,-0.0012217304902151227,0.0006108652451075613,0
1782771611202597600,6.78459765625,0,0.0012217304902151227,0
1782771611212585500,6.79458544921875,0,0.0006108652451075613,0
1782771611222617300,6.804617431640625,-0.0006108652451075613,0.0006108652451075613,0
1782771611232574500,6.814574462890625,0,0.0006108652451075613,-0.0012217304902151227
1782771611242606300,6.8246064453125,0,0.0006108652451075613,0
1782771611252594000,6.834593994140625,-0.0006108652451075613,0,0
1782771611262595300,6.84459521484375,-0.0012217304902151227,0,-0.0012217304902151227
1782771611272583200,6.854583251953125,0,0.0012217304902151227,0
1782771611282614500,6.864614501953125,-0.0012217304902151227,0.0012217304902151227,0
1782771611292572200,6.874572265625,0,0,0
1782771611302603800,6.884603759765625,0,0.0006108652451075613,-0.0006108652451075613
1782771611312591600,6.894591552734375,-0.0006108652451075613,0,0
1782771611322561500,6.9045615234375,0,0,0
1782771611332601600,6.9146015625,0,0.0006108652451075613,0
1782771611342673400,6.92467333984375,0,0,-0.0006108652451075613
1782771611352569300,6.9345693359375,-0.0006108652451075613,0.0012217304902151227,-0.0006108652451075613
1782771611362601500,6.9446015625,-0.0012217304902151227,0,0
1782771611372589000,6.954589111328125,-0.0012217304902151227,-0.0006108652451075613,-0.0006108652451075613
1782771611382590500,6.964590576171875,-0.0006108652451075613,0.0006108652451075613,0
1782771611392578300,6.974578369140625,0,0,-0.0006108652451075613
1782771611402610000,6.98460986328125,0,0.0012217304902151227,0.0006108652451075613
1782771611412597800,6.99459765625,-0.0006108652451075613,0.0006108652451075613,0
1782771611422599000,7.004598876953125,0,0,0.0006108652451075613
1782771611432586800,7.014586669921875,-0.0012217304902151227,0.0006108652451075613,-0.0012217304902151227
1782771611442618600,7.02461865234375,-0.0006108652451075613,0,-0.0006108652451075613
1782771611452575700,7.03457568359375,0,0.0006108652451075613,-0.0006108652451075613
1782771611462607600,7.044607666015625,0,-0.0006108652451075613,0.0006108652451075613
1782771611472595200,7.05459521484375,-0.0006108652451075613,0.0006108652451075613,0
1782771611482596600,7.0645966796875,-0.0006108652451075613,0.0006108652451075613,0
1782771611492584200,7.074584228515625,-0.0012217304902151227,0,-0.0012217304902151227
1782771611502616300,7.0846162109375,-0.0012217304902151227,0,0.0006108652451075613
1782771611512573400,7.094573486328125,0,0,-0.0006108652451075613
1782771611522605000,7.10460498046875,0.0006108652451075613,0,0.0006108652451075613
1782771611532592600,7.114592529296875,0,0.0006108652451075613,-0.0006108652451075613
1782771611542562600,7.1245625,-0.0006108652451075613,0,0
1782771611552642800,7.134642822265625,0,0.0006108652451075613,0.0006108652451075613
1782771611562613800,7.14461376953125,0,0.0012217304902151227,0
1782771611572571000,7.15457080078125,-0.0006108652451075613,-0.0006108652451075613,-0.0006108652451075613
1782771611582602800,7.164602783203125,-0.0012217304902151227,0.0012217304902151227,-0.0006108652451075613
1782771611592590300,7.17459033203125,-0.0012217304902151227,0.0006108652451075613,0
1782771611602591700,7.184591796875,-0.0006108652451075613,0.0012217304902151227,0.0006108652451075613
1782771611612579300,7.194579345703125,0,0.0012217304902151227,0
1782771611622611200,7.204611083984375,0,0.0006108652451075613,0
1782771611632568600,7.214568603515625,-0.0006108652451075613,0.0012217304902151227,0.0006108652451075613
1782771611642600200,7.22460009765625,-0.0012217304902151227,-0.0006108652451075613,-0.0006108652451075613
1782771611652587800,7.234587890625,-0.0006108652451075613,0.10934487730264664,0.06352998316287994
1782771611662619600,7.24461962890625,0,0.001832595793530345,0.0012217304902151227
1782771611672577000,7.254576904296875,-0.0012217304902151227,0.00733038317412138,0.00366519158706069
1782771611682608600,7.264608642578125,0.0006108652451075613,0.0012217304902151227,0.0012217304902151227
1782771611692596500,7.274596435546875,0.0006108652451075613,0.0006108652451075613,-0.001832595793530345
1782771611702620700,7.28462060546875,0,-0.0006108652451075613,-0.00366519158706069
1782771611712585700,7.294585693359375,0,-0.005497787147760391,-0.005497787147760391
1782771611722617300,7.304617431640625,-0.0006108652451075613,-0.016493361443281174,-0.01038470957428217
1782771611732574500,7.314574462890625,-0.0006108652451075613,-0.03787364438176155,-0.02076941914856434
1782771611742606300,7.3246064453125,0,-0.05803219974040985,-0.03237585723400116
1782771611752594000,7.334593994140625,-0.0006108652451075613,0.0006108652451075613,-0.0006108652451075613
