time,seconds_elapsed,z,y,x
1782771630124297000,0.199296875,-0.0006108652451075613,-0.0012217304902151227,-0.0006108652451075613
1782771630134873600,0.20987353515625,-0.0006108652451075613,-0.0012217304902151227,-0.0006108652451075613
1782771630144866600,0.219866455078125,-0.0006108652451075613,-0.0012217304902151227,-0.0006108652451075613
1782771630154893000,0.22989306640625,-0.0006108652451075613,-0.0012217304902151227,-0.0006108652451075613
1782771630164855800,0.239855712890625,0.02626720629632473,0.09468411654233932,-0.42271876335144043
1782771630174882000,0.249882080078125,0.0012217304902151227,0.0012217304902151227,-0.0024434609804302454
1782771630184875300,0.259875244140625,0.0012217304902151227,0.0012217304902151227,0
1782771630194871300,0.269871337890625,0,0.0006108652451075613,0
1782771630204864300,0.2798642578125,0.0006108652451075613,0,0
1782771630214895900,0.289895751953125,0.0006108652451075613,0,0
1782771630224853200,0.299853271484375,-0.0006108652451075613,0.0012217304902151227,0
1782771630234884600,0.309884521484375,-0.0006108652451075613,0,0
1782771630244872700,0.319872802734375,0.0006108652451075613,0.0006108652451075613,-0.0006108652451075613
1782771630254873900,0.329873779296875,0,0,0
1782771630264861700,0.33986181640625,0,0.0006108652451075613,0.0006108652451075613
1782771630274893300,0.349893310546875,0.0006108652451075613,0.0006108652451075613,-0.0006108652451075613
1782771630284851000,0.359850830078125,0,0.0006108652451075613,-0.0006108652451075613
1782771630294882600,0.369882568359375,-0.0006108652451075613,0.0006108652451075613,0
1782771630304870400,0.379870361328125,0,0.0006108652451075613,0.0006108652451075613
1782771630314871600,0.38987158203125,0,0.0006108652451075613,0
1782771630324859100,0.399859130859375,0,0,-0.0006108652451075613
1782771630334891000,0.40989111328125,-0.0006108652451075613,0,0
1782771630344848400,0.419848388671875,-0.0012217304902151227,0.0006108652451075613,0.0006108652451075613
1782771630354879700,0.429879638671875,0,0,0
1782771630364867800,0.439867919921875,0,0.0012217304902151227,0
1782771630374869000,0.449868896484375,0,0,0.0006108652451075613
1782771630384856800,0.45985693359375,-0.0006108652451075613,0,0.0006108652451075613
1782771630394888400,0.469888427734375,-0.0012217304902151227,0.0006108652451075613,-0.0006108652451075613
1782771630404876500,0.47987646484375,0,0,-0.0006108652451075613
1782771630414877700,0.489877685546875,0,0.0012217304902151227,-0.0006108652451075613
1782771630424865500,0.499865478515625,0,0.0006108652451075613,-0.0006108652451075613
1782771630434897200,0.509897216796875,-0.0012217304902151227,0.0012217304902151227,-0.0006108652451075613
1782771630444854500,0.5198544921875,-0.0006108652451075613,0.0006108652451075613,-0.0006108652451075613
1782771630454886100,0.52988623046875,-0.0006108652451075613,0.0006108652451075613,0.0006108652451075613
1782771630464874000,0.5398740234375,0,0.0012217304902151227,0
1782771630474875000,0.549875,-0.0006108652451075613,0,0
1782771630484863000,0.559863037109375,-0.0012217304902151227,0,-0.0006108652451075613
1782771630494894600,0.56989453125,-0.0006108652451075613,0,-0.0006108652451075613
1782771630504852000,0.57985205078125,-0.0006108652451075613,0,-0.0006108652451075613
1782771630514883800,0.5898837890625,-0.0006108652451075613,0.0012217304902151227,0
1782771630524871700,0.59987158203125,-0.0012217304902151227,0.0006108652451075613,-0.0006108652451075613
1782771630534872800,0.609872802734375,0,-0.0006108652451075613,-0.0012217304902151227
1782771630544860400,0.6198603515625,-0.0006108652451075613,0.0006108652451075613,0
1782771630554892300,0.629892333984375,-0.0006108652451075613,-0.0006108652451075613,0
1782771630564849700,0.639849609375,0,0.0006108652451075613,-0.0006108652451075613
1782771630574881300,0.64988134765625,-0.0006108652451075613,0.0006108652451075613,-0.0006108652451075613
1782771630584869000,0.659869140625,-0.0006108652451075613,0,-0.0012217304902151227
1782771630594870300,0.669870361328125,0.0006108652451075613,0.0012217304902151227,0
1782771630604858000,0.679858154296875,-0.0006108652451075613,-0.0006108652451075613,-0.0006108652451075613
1782771630614889700,0.6898896484375,-0.0012217304902151227,0.0006108652451075613,-0.0006108652451075613
1782771630624847000,0.69984716796875,-0.0006108652451075613,0.0006108652451075613,0
1782771630634879000,0.70987890625,-0.0006108652451075613,0,0
1782771630644866800,0.71986669921875,-0.0006108652451075613,-0.0006108652451075613,-0.0006108652451075613
1782771630654898400,0.7298984375,0.0006108652451075613,0,0.0006108652451075613
1782771630664855800,0.739855712890625,0,0.0006108652451075613,-0.0012217304902151227
1782771630674887200,0.74988720703125,-0.0006108652451075613,-0.0006108652451075613,0
1782771630684875300,0.759875244140625,0,0.0006108652451075613,-0.0006108652451075613
1782771630694876000,0.7698759765625,-0.0012217304902151227,0,-0.0006108652451075613
1782771630704864500,0.779864501953125,0,0.0012217304902151227,0.0006108652451075613
1782771630714896000,0.789895751953125,0.0006108652451075613,0.0006108652451075613,0.0006108652451075613
1782771630724853200,0.799853271484375,0,0.0006108652451075613,0
1782771630734885000,0.809885009765625,-0.0006108652451075613,0,-0.0006108652451075613
1782771630744872700,0.819872802734375,0,0,0.0006108652451075613
1782771630754873900,0.829873779296875,-0.0012217304902151227,0,0
1782771630764861700,0.83986181640625,0,-0.0006108652451075613,-0.0012217304902151227
1782771630774893300,0.849893310546875,-0.0012217304902151227,0,-0.0006108652451075613
1782771630784850700,0.8598505859375,-0.0012217304902151227,0.0006108652451075613,-0.0006108652451075613
1782771630794882600,0.869882568359375,-0.0012217304902151227,-0.0006108652451075613,0
1782771630804870400,0.879870361328125,0.0012217304902151227,0.0012217304902151227,-0.0006108652451075613
1782771630814871300,0.889871337890625,-0.0006108652451075613,0,0
1782771630824858600,0.899858642578125,-0.0006108652451075613,0,0.0006108652451075613
1782771630834890200,0.90989013671875,-0.0006108652451075613,0,-0.0006108652451075613
1782771630844847900,0.919847900390625,-0.0012217304902151227,0.0012217304902151227,0.0006108652451075613
1782771630854879200,0.929879150390625,-0.0006108652451075613,0,0
1782771630864867300,0.939867431640625,-0.0006108652451075613,0.0006108652451075613,0.0006108652451075613
1782771630874868500,0.949868408203125,0,0,0
1782771630884856300,0.959856201171875,0,0.0006108652451075613,-0.0006108652451075613
1782771630894888200,0.96988818359375,-0.0012217304902151227,0.0006108652451075613,0
1782771630904875800,0.979875732421875,-0.0006108652451075613,0,0
1782771630914877400,0.98987744140625,0.0006108652451075613,0,0
1782771630924865500,0.999865478515625,0,0,0.0006108652451075613
1782771630934897200,1.009897216796875,-0.0006108652451075613,0.0012217304902151227,0
1782771630944854500,1.0198544921875,0,0.001832595793530345,-0.0006108652451075613
1782771630954886100,1.02988623046875,0,0.0006108652451075613,-0.0006108652451075613
1782771630964874000,1.0398740234375,-0.0006108652451075613,0.0006108652451075613,0.0006108652451075613
1782771630974874400,1.049874267578125,0.0012217304902151227,0.0012217304902151227,0.0006108652451075613
1782771630984863000,1.059863037109375,0,0.0006108652451075613,0
1782771630994894800,1.069894775390625,-0.0006108652451075613,0.0006108652451075613,0
1782771631004852200,1.079852294921875,0,0.0006108652451075613,0
1782771631014883000,1.089883056640625,-0.0006108652451075613,0.0012217304902151227,-0.0006108652451075613
1782771631024871400,1.099871337890625,-0.0006108652451075613,0.0006108652451075613,0
1782771631034872800,1.109872802734375,0,0.0006108652451075613,-0.0006108652451075613
1782771631044860400,1.1198603515625,-0.0006108652451075613,0.0006108652451075613,0
1782771631054892300,1.129892333984375,-0.0006108652451075613,0,0
1782771631064849700,1.139849609375,0,0.0006108652451075613,0
1782771631074881300,1.14988134765625,-0.0006108652451075613,0.0006108652451075613,-0.0012217304902151227
1782771631084869000,1.159869140625,0,0.0012217304902151227,0.0012217304902151227
1782771631094870300,1.169870361328125,0,0.0012217304902151227,-0.0006108652451075613
1782771631104858400,1.1798583984375,-0.0006108652451075613,0,0
1782771631114889700,1.1898896484375,-0.0006108652451075613,0.0006108652451075613,0
1782771631124847400,1.199847412109375,-0.0006108652451075613,0,-0.0006108652451075613
1782771631134879000,1.20987890625,-0.0006108652451075613,0.0006108652451075613,-0.0006108652451075613
1782771631144866600,1.219866455078125,-0.0006108652451075613,0,0
1782771631154898400,1.2298984375,0,-0.0006108652451075613,-0.0006108652451075613
1782771631164855800,1.239855712890625,-0.0006108652451075613,0.0012217304902151227,0
1782771631174887200,1.24988720703125,-0.0006108652451075613,0,-0.0006108652451075613
1782771631184875300,1.259875244140625,0,0.0006108652451075613,-0.0012217304902151227
1782771631194890000,1.269889892578125,-0.0006108652451075613,0,0
1782771631204864300,1.2798642578125,-0.0006108652451075613,0.0006108652451075613,-0.0006108652451075613
1782771631214890800,1.289890869140625,-0.0012217304902151227,0.0006108652451075613,0
1782771631224853000,1.29985302734375,0.0006108652451075613,0,0.0012217304902151227
1782771631234902800,1.30990283203125,-0.0006108652451075613,0.0006108652451075613,0
1782771631244872700,1.319872802734375,-0.0012217304902151227,0.0006108652451075613,-0.0012217304902151227
1782771631254868700,1.32986865234375,0,0.0012217304902151227,-0.0012217304902151227
1782771631264861700,1.33986181640625,0,0.0006108652451075613,0
1782771631274888200,1.34988818359375,-0.0006108652451075613,0.0012217304902151227,-0.0006108652451075613
1782771631284850700,1.3598505859375,-0.0012217304902151227,0,-0.0006108652451075613
1782771631294882000,1.369882080078125,0,0.0006108652451075613,0
1782771631304870400,1.379870361328125,0,-0.0006108652451075613,0
1782771631314871600,1.38987158203125,0,0.0006108652451075613,0.0006108652451075613
1782771631324859100,1.399859130859375,-0.0006108652451075613,0,0.0006108652451075613
1782771631334891000,1.40989111328125,-0.0006108652451075613,0.0006108652451075613,0
1782771631344848400,1.419848388671875,0,0.0012217304902151227,-0.0006108652451075613
1782771631354880000,1.4298798828125,0,0.0006108652451075613,0.0006108652451075613
1782771631364867800,1.439867919921875,0,0,0
1782771631374869000,1.449868896484375,-0.0006108652451075613,0,0
1782771631384856800,1.45985693359375,-0.0006108652451075613,0,-0.0006108652451075613
1782771631394888700,1.469888671875,0,0.0012217304902151227,0
1782771631404876300,1.479876220703125,-0.0006108652451075613,0.0006108652451075613,-0.0012217304902151227
1782771631414877700,1.489877685546875,-0.0006108652451075613,0,0.0006108652451075613
1782771631424865500,1.499865478515625,0,0,0
1782771631434897200,1.509897216796875,0.0006108652451075613,0,0
1782771631444854500,1.5198544921875,-0.0012217304902151227,0.0012217304902151227,0.0006108652451075613
1782771631454885600,1.5298857421875,-0.0006108652451075613,-0.0006108652451075613,-0.0006108652451075613
1782771631464874000,1.5398740234375,-0.0006108652451075613,0.0012217304902151227,0
1782771631474875100,1.549875244140625,0,0,0.0006108652451075613
1782771631484863200,1.55986328125,-0.0006108652451075613,0.0006108652451075613,0.0006108652451075613
1782771631494894600,1.56989453125,0,0.0006108652451075613,0
1782771631504852200,1.579852294921875,-0.0006108652451075613,0.0012217304902151227,0
1782771631514883600,1.589883544921875,-0.0006108652451075613,0.0006108652451075613,-0.0006108652451075613
1782771631524871700,1.59987158203125,-0.0006108652451075613,0,0
1782771631534872800,1.609872802734375,-0.0006108652451075613,0,0
1782771631544860700,1.619860595703125,-0.0006108652451075613,0,0.0012217304902151227
1782771631554892300,1.629892333984375,0,0.0006108652451075613,-0.0006108652451075613
1782771631564849700,1.639849609375,-0.0006108652451075613,0,0.0006108652451075613
1782771631574881000,1.649881103515625,0.0006108652451075613,0.0012217304902151227,0
1782771631584869000,1.659869140625,-0.0006108652451075613,0.0012217304902151227,-0.0006108652451075613
1782771631594870300,1.669870361328125,0,0.0006108652451075613,0.0006108652451075613
1782771631604858400,1.6798583984375,-0.0006108652451075613,0.0006108652451075613,0
1782771631614889700,1.6898896484375,0.0006108652451075613,0.0012217304902151227,0
1782771631624847000,1.69984716796875,0,0.0006108652451075613,-0.0006108652451075613
1782771631634879000,1.70987890625,0.0006108652451075613,0.0012217304902151227,-0.0006108652451075613
1782771631644866600,1.719866455078125,0.0006108652451075613,0.0006108652451075613,-0.0006108652451075613
1782771631654898400,1.7298984375,-0.0006108652451075613,0,0.0006108652451075613
1782771631664855800,1.739855712890625,0,0,-0.0006108652451075613
1782771631674887200,1.74988720703125,0,0,0.0006108652451075613
1782771631684875300,1.759875244140625,-0.0006108652451075613,0,0
1782771631694876400,1.76987646484375,0,-0.0006108652451075613,-0.0006108652451075613
1782771631704864300,1.7798642578125,0,0,0
1782771631714896100,1.789896240234375,0.0006108652451075613,0.0012217304902151227,-0.0006108652451075613
1782771631724853200,1.799853271484375,-0.0012217304902151227,0.0012217304902151227,-0.0006108652451075613
1782771631734884900,1.809884765625,-0.0006108652451075613,0.0006108652451075613,0
1782771631744872700,1.819872802734375,-0.0006108652451075613,0.0012217304902151227,-0.0006108652451075613
1782771631754873600,1.82987353515625,0,0,0.0006108652451075613
1782771631764861700,1.83986181640625,-0.0006108652451075613,0.0006108652451075613,0
1782771631774893300,1.849893310546875,0,0,0.0006108652451075613
1782771631784851000,1.859850830078125,-0.0006108652451075613,0,-0.0006108652451075613
1782771631794882600,1.869882568359375,0.0006108652451075613,0.0006108652451075613,0.0006108652451075613
1782771631804870400,1.879870361328125,-0.0006108652451075613,0.0006108652451075613,0
1782771631814871600,1.88987158203125,-0.0012217304902151227,0,0
1782771631824858400,1.8998583984375,-0.0006108652451075613,0.0012217304902151227,0
1782771631834890200,1.90989013671875,0.0006108652451075613,0.0006108652451075613,0.0006108652451075613
1782771631844847900,1.919847900390625,0,0,-0.0006108652451075613
1782771631854879500,1.92987939453125,0,0.0006108652451075613,-0.0006108652451075613
1782771631864867600,1.93986767578125,0,0.0006108652451075613,-0.0006108652451075613
1782771631874868000,1.949867919921875,-0.0006108652451075613,0.0006108652451075613,0
1782771631884856300,1.959856201171875,-0.0012217304902151227,0,0.0006108652451075613
1782771631894888000,1.969887939453125,0,0.0006108652451075613,0.0006108652451075613
1782771631904876000,1.9798759765625,-0.0006108652451075613,0.0006108652451075613,-0.0006108652451075613
1782771631914876400,1.98987646484375,-0.0006108652451075613,0,0
1782771631924865500,1.999865478515625,-0.0006108652451075613,0.0006108652451075613,0
1782771631934897200,2.009897216796875,-0.0006108652451075613,0,0
1782771631944854300,2.019854248046875,0,0.0012217304902151227,0.0006108652451075613
1782771631954886000,2.029885986328125,0,0.0006108652451075613,0.0006108652451075613
1782771631964874000,2.0398740234375,0.0012217304902151227,0,0
1782771631974875100,2.049875244140625,-0.0006108652451075613,0,-0.0006108652451075613
1782771631984863000,2.059863037109375,0,0.0006108652451075613,0.0006108652451075613
1782771631994894600,2.06989453125,-0.0012217304902151227,0.0006108652451075613,-0.0006108652451075613
1782771632004852000,2.07985205078125,-0.0006108652451075613,0.0006108652451075613,0
1782771632014883600,2.089883544921875,-0.0006108652451075613,-0.0006108652451075613,0
1782771632024871700,2.09987158203125,-0.0006108652451075613,0.0006108652451075613,-0.0006108652451075613
1782771632034872800,2.109872802734375,0,0,0
1782771632044860400,2.1198603515625,-0.0006108652451075613,0.0006108652451075613,0
1782771632054892300,2.129892333984375,0,0.0006108652451075613,0.0006108652451075613
1782771632064849700,2.139849609375,0,0.0012217304902151227,-0.0012217304902151227
1782771632074881000,2.149881103515625,0,0.0012217304902151227,0.0006108652451075613
1782771632084869000,2.159869140625,0,0.0012217304902151227,0.0006108652451075613
1782771632094869500,2.169869384765625,0,0.0006108652451075613,-0.0006108652451075613
1782771632104858400,2.1798583984375,0.0006108652451075613,0.0006108652451075613,0
1782771632114890000,2.189889892578125,-0.0006108652451075613,0,-0.0006108652451075613
1782771632124847000,2.19984716796875,0,0,0
1782771632134879000,2.20987890625,-0.0006108652451075613,0.0006108652451075613,0
1782771632144866600,2.219866455078125,0,0.0012217304902151227,-0.0006108652451075613
1782771632154897700,2.229897705078125,0,0.0006108652451075613,-0.0006108652451075613
1782771632164855600,2.23985546875,0,0,0
1782771632174887200,2.24988720703125,-0.0012217304902151227,0.0006108652451075613,-0.0006108652451075613
1782771632184875300,2.259875244140625,0.0006108652451075613,0.0012217304902151227,-0.0006108652451075613
1782771632194876400,2.26987646484375,-0.0006108652451075613,0,-0.0006108652451075613
1782771632204864300,2.2798642578125,0,0.0006108652451075613,0
1782771632214895400,2.289895263671875,0,0.0006108652451075613,0.0006108652451075613
1782771632224853000,2.29985302734375,-0.0006108652451075613,0.0006108652451075613,0
1782771632234884900,2.309884765625,-0.0012217304902151227,0.0006108652451075613,0.0006108652451075613
1782771632244872700,2.319872802734375,0,0.0006108652451075613,0
1782771632254873900,2.329873779296875,0,0,0.0006108652451075613
1782771632264861700,2.33986181640625,0.0006108652451075613,0.0012217304902151227,0.0006108652451075613
1782771632274907000,2.349906982421875,0,0,-0.0006108652451075613
1782771632284850700,2.3598505859375,-0.0006108652451075613,0.0006108652451075613,0.0012217304902151227
1782771632294877200,2.369877197265625,-0.0012217304902151227,0.0006108652451075613,0
1782771632304870400,2.379870361328125,-0.0006108652451075613,0.0006108652451075613,0
1782771632314866200,2.3898662109375,0,0.001832595793530345,-0.0006108652451075613
1782771632324859400,2.399859375,0,0.001832595793530345,0
1782771632334885400,2.409885498046875,-0.0012217304902151227,0.0006108652451075613,-0.0012217304902151227
1782771632344848400,2.419848388671875,-0.0006108652451075613,0,0
1782771632354875000,2.429875,-0.0012217304902151227,0.0006108652451075613,-0.0006108652451075613
1782771632364867800,2.439867919921875,0,0.0006108652451075613,0
1782771632374869000,2.449868896484375,0,0.0006108652451075613,0.0006108652451075613
1782771632384857000,2.459857177734375,0,0.0006108652451075613,0.0012217304902151227
1782771632394888400,2.469888427734375,-0.0006108652451075613,0,-0.0006108652451075613
1782771632404876300,2.479876220703125,0,0.0006108652451075613,0
1782771632414877400,2.48987744140625,-0.0006108652451075613,0,-0.0006108652451075613
1782771632424865300,2.499865234375,0,0.0006108652451075613,0
1782771632434897400,2.5098974609375,-0.0006108652451075613,0.0012217304902151227,0
1782771632444854500,2.5198544921875,0.0006108652451075613,0.0006108652451075613,0.0006108652451075613
1782771632454886100,2.52988623046875,-0.0006108652451075613,0,-0.0006108652451075613
1782771632464874000,2.5398740234375,0,0.0012217304902151227,0
1782771632474875000,2.549875,0,0.0006108652451075613,0
1782771632484863000,2.559863037109375,-0.0012217304902151227,0,0
1782771632494894600,2.56989453125,-0.0012217304902151227,0,0
1782771632504852200,2.579852294921875,0,-0.0012217304902151227,-0.0006108652451075613
1782771632514883300,2.58988330078125,0,0,0
1782771632524871700,2.59987158203125,0,0,0.0006108652451075613
1782771632534872000,2.6098720703125,-0.0006108652451075613,0,-0.0006108652451075613
1782771632544860400,2.6198603515625,-0.0006108652451075613,0.0006108652451075613,0
1782771632554891500,2.6298916015625,0,0,-0.0006108652451075613
1782771632564849700,2.639849609375,-0.0006108652451075613,0.0006108652451075613,0.0006108652451075613
1782771632574880500,2.649880615234375,-0.0006108652451075613,0.0006108652451075613,0.0006108652451075613
1782771632584869000,2.659869140625,-0.0006108652451075613,0.0006108652451075613,0
1782771632594870300,2.669870361328125,0,0.0006108652451075613,-0.0006108652451075613
1782771632604858000,2.679858154296875,0,0,-0.0006108652451075613
1782771632614889700,2.6898896484375,0,0.0006108652451075613,-0.0006108652451075613
1782771632624847000,2.69984716796875,-0.0006108652451075613,0.0006108652451075613,-0.0012217304902151227
1782771632634879000,2.70987890625,0,0.0006108652451075613,-0.0006108652451075613
1782771632644866600,2.719866455078125,0,0,0
1782771632654898400,2.7298984375,0,0,-0.0006108652451075613
1782771632664855600,2.73985546875,-0.0006108652451075613,0,0.0012217304902151227
1782771632674887400,2.749887451171875,-0.0006108652451075613,0.0006108652451075613,-0.0006108652451075613
1782771632684875300,2.759875244140625,-0.0006108652451075613,0.0006108652451075613,0.0006108652451075613
1782771632694876400,2.76987646484375,0,0,0
1782771632704864300,2.7798642578125,-0.0006108652451075613,0,0
1782771632714896000,2.789895751953125,-0.0006108652451075613,0.0006108652451075613,0
1782771632724853000,2.79985302734375,-0.0006108652451075613,0.0006108652451075613,-0.0006108652451075613
1782771632734885000,2.809885009765625,0,0.0006108652451075613,0
1782771632744872700,2.819872802734375,0,0,0
1782771632754874000,2.8298740234375,0.0006108652451075613,0,-0.0012217304902151227
1782771632764861700,2.83986181640625,0,0.0012217304902151227,0
1782771632774893300,2.849893310546875,0,0.0006108652451075613,0.0006108652451075613
1782771632784850700,2.8598505859375,-0.0006108652451075613,0.0006108652451075613,0
1782771632794882600,2.869882568359375,-0.0006108652451075613,0.001832595793530345,0
1782771632804870400,2.879870361328125,0,0,0
1782771632814871600,2.88987158203125,0,0.0006108652451075613,-0.0006108652451075613
1782771632824858400,2.8998583984375,-0.0006108652451075613,0,-0.0006108652451075613
1782771632834890500,2.909890380859375,0,0.0006108652451075613,0
1782771632844847900,2.919847900390625,-0.0012217304902151227,0.0006108652451075613,0
1782771632854879500,2.92987939453125,-0.0006108652451075613,0.0006108652451075613,-0.0012217304902151227
1782771632864867600,2.93986767578125,-0.0012217304902151227,0.0006108652451075613,0.0006108652451075613
1782771632874868500,2.949868408203125,-0.0006108652451075613,0.0012217304902151227,0
1782771632884856300,2.959856201171875,-0.0006108652451075613,0.0006108652451075613,0
1782771632894888200,2.96988818359375,-0.0006108652451075613,0.0006108652451075613,0
1782771632904875800,2.979875732421875,0,0.0006108652451075613,0.0006108652451075613
1782771632914877000,2.989876953125,-0.0012217304902151227,0.0012217304902151227,-0.0006108652451075613
1782771632924865500,2.999865478515625,0,0,0.0006108652451075613
1782771632934897200,3.009897216796875,-0.0006108652451075613,0.0006108652451075613,-0.0006108652451075613
1782771632944854300,3.019854248046875,-0.0012217304902151227,0.0006108652451075613,0
1782771632954885600,3.0298857421875,-0.0012217304902151227,0,-0.0012217304902151227
1782771632964874000,3.0398740234375,-0.0006108652451075613,0,-0.001832595793530345
1782771632974875100,3.049875244140625,0,0.0006108652451075613,0
1782771632984863000,3.059863037109375,-0.0012217304902151227,0,0
1782771632994894000,3.06989404296875,-0.0006108652451075613,0.0012217304902151227,0
1782771633004852200,3.079852294921875,-0.0012217304902151227,0.0006108652451075613,0
1782771633014883600,3.089883544921875,0,-0.0006108652451075613,-0.0006108652451075613
1782771633024871400,3.099871337890625,-0.0006108652451075613,0.0006108652451075613,-0.0006108652451075613
1782771633034872000,3.1098720703125,0,0.0012217304902151227,0.0006108652451075613
1782771633044860400,3.1198603515625,0,0.0006108652451075613,-0.0006108652451075613
1782771633054892300,3.129892333984375,0.0006108652451075613,0.0006108652451075613,-0.0006108652451075613
1782771633064849700,3.139849609375,0.0006108652451075613,0.0006108652451075613,0
1782771633074881300,3.14988134765625,0,0.0006108652451075613,0
1782771633084869000,3.159869140625,-0.0006108652451075613,0,-0.0006108652451075613
1782771633094870300,3.169870361328125,0,0,0
1782771633104858400,3.1798583984375,-0.0006108652451075613,0.0012217304902151227,0
1782771633114889700,3.1898896484375,0,0.001832595793530345,-0.0006108652451075613
1782771633124847000,3.19984716796875,-0.0006108652451075613,0.0012217304902151227,0.0006108652451075613
1782771633134878500,3.20987841796875,-0.0006108652451075613,0,-0.0006108652451075613
1782771633144866600,3.219866455078125,-0.0006108652451075613,0,0
1782771633154898400,3.2298984375,-0.0006108652451075613,0,0.0006108652451075613
1782771633164855800,3.239855712890625,0,0,0
1782771633174887200,3.24988720703125,0,0.0006108652451075613,0.0006108652451075613
1782771633184875300,3.259875244140625,-0.0012217304902151227,-0.0006108652451075613,-0.0006108652451075613
1782771633194876200,3.269876220703125,-0.0006108652451075613,0.0006108652451075613,-0.001832595793530345
1782771633204864300,3.2798642578125,-0.0012217304902151227,0.0006108652451075613,0
1782771633214895900,3.289895751953125,-0.0006108652451075613,0.0012217304902151227,0.0006108652451075613
1782771633224853200,3.299853271484375,-0.0012217304902151227,0.0006108652451075613,-0.0006108652451075613
1782771633234908200,3.309908203125,0,0,0
1782771633244872700,3.319872802734375,0,0.0006108652451075613,0
1782771633254873900,3.329873779296875,-0.0006108652451075613,0,0
1782771633264861700,3.33986181640625,0,0,-0.0006108652451075613
1782771633274892800,3.349892822265625,0,0.0006108652451075613,0
1782771633284851000,3.359850830078125,-0.0012217304902151227,0,-0.0006108652451075613
1782771633294851000,3.36985107421875,-0.0006108652451075613,0,0.0006108652451075613
1782771633304931300,3.379931396484375,-0.0006108652451075613,0.0006108652451075613,0.0006108652451075613
1782771633314871600,3.38987158203125,0,0,-0.0006108652451075613
1782771633324859100,3.399859130859375,0,0.0006108652451075613,0.0006108652451075613
1782771633334890800,3.409890869140625,-0.001832595793530345,0,0.0006108652451075613
1782771633344848400,3.419848388671875,-0.0006108652451075613,0.0006108652451075613,-0.0012217304902151227
1782771633354893800,3.429893798828125,0,0.0006108652451075613,-0.0006108652451075613
1782771633364867800,3.439867919921875,-0.0006108652451075613,0.0006108652451075613,0
1782771633374863000,3.449863037109375,-0.0006108652451075613,0.0006108652451075613,-0.0012217304902151227
1782771633384856800,3.45985693359375,-0.001832595793530345,0,-0.0006108652451075613
1782771633394883300,3.46988330078125,0,0,-0.0006108652451075613
1782771633404876500,3.47987646484375,0.0006108652451075613,0,-0.0006108652451075613
1782771633414872300,3.489872314453125,-0.0006108652451075613,0.0012217304902151227,0.0006108652451075613
1782771633424865500,3.499865478515625,-0.0012217304902151227,0,0
1782771633434891800,3.509891845703125,0,0.0006108652451075613,-0.0006108652451075613
1782771633444854300,3.519854248046875,-0.0006108652451075613,0.0006108652451075613,0
1782771633454886100,3.52988623046875,0.0006108652451075613,0.0006108652451075613,-0.0006108652451075613
1782771633464874000,3.5398740234375,0,0.0012217304902151227,-0.0006108652451075613
1782771633474875100,3.549875244140625,0.0006108652451075613,0.0012217304902151227,0.0012217304902151227
1782771633484863000,3.559863037109375,0,0,-0.0012217304902151227
1782771633494894600,3.56989453125,0,0.0006108652451075613,0.0006108652451075613
1782771633504852200,3.579852294921875,0,0.0012217304902151227,-0.0006108652451075613
1782771633514883600,3.589883544921875,-0.0006108652451075613,0.0006108652451075613,-0.0006108652451075613
1782771633524871700,3.59987158203125,0,0,0.0006108652451075613
1782771633534872600,3.60987255859375,0,0.0006108652451075613,0.0006108652451075613
1782771633544860400,3.6198603515625,-0.0012217304902151227,0.0006108652451075613,0
1782771633554892500,3.629892578125,-0.0006108652451075613,0.0006108652451075613,0.0006108652451075613
1782771633564849700,3.639849609375,0,0.0006108652451075613,0.0006108652451075613
1782771633574881000,3.649881103515625,-0.0012217304902151227,0.0006108652451075613,-0.0006108652451075613
1782771633584869000,3.659869140625,-0.0006108652451075613,0.0006108652451075613,0
1782771633594870300,3.669870361328125,0,-0.0006108652451075613,-0.0006108652451075613
1782771633604858400,3.6798583984375,-0.0006108652451075613,0.0012217304902151227,-0.0006108652451075613
1782771633614889700,3.6898896484375,-0.0006108652451075613,0,0.0006108652451075613
1782771633624847000,3.69984716796875,-0.0006108652451075613,0,-0.0012217304902151227
1782771633634879000,3.70987890625,-0.0012217304902151227,0,0
1782771633644866600,3.719866455078125,-0.0012217304902151227,0,0
1782771633654898400,3.7298984375,-0.0012217304902151227,0.0012217304902151227,0
1782771633664855800,3.739855712890625,-0.0006108652451075613,0.0012217304902151227,-0.0006108652451075613
1782771633674887200,3.74988720703125,0,0,-0.0006108652451075613
1782771633684875300,3.759875244140625,0,0,0
1782771633694876000,3.7698759765625,0,-0.0006108652451075613,-0.0006108652451075613
1782771633704864300,3.7798642578125,-0.0012217304902151227,0.0006108652451075613,0
1782771633714896100,3.789896240234375,0,0.0006108652451075613,-0.0006108652451075613
1782771633724853000,3.79985302734375,-0.0006108652451075613,0.0006108652451075613,-0.0006108652451075613
1782771633734884400,3.80988427734375,-0.0006108652451075613,0.0006108652451075613,0
1782771633744872700,3.819872802734375,0,0.0006108652451075613,0.0006108652451075613
1782771633754873600,3.82987353515625,-0.0006108652451075613,0.0006108652451075613,-0.0006108652451075613
1782771633764861700,3.83986181640625,-0.0006108652451075613,0,-0.0012217304902151227
1782771633774893300,3.849893310546875,0,0.0012217304902151227,0
1782771633784851000,3.859850830078125,-0.0006108652451075613,0,0
1782771633794882600,3.869882568359375,-0.0006108652451075613,0.0006108652451075613,0
1782771633804870400,3.879870361328125,-0.0006108652451075613,0.0006108652451075613,-0.0006108652451075613
1782771633814871600,3.88987158203125,-0.0006108652451075613,0,-0.0006108652451075613
1782771633824858400,3.8998583984375,-0.0006108652451075613,0,-0.0006108652451075613
1782771633834890500,3.909890380859375,-0.0006108652451075613,0.0006108652451075613,-0.0006108652451075613
1782771633844808400,3.919808349609375,0.0006108652451075613,0,0.0006108652451075613
1782771633854940200,3.929940185546875,-0.0006108652451075613,0.0006108652451075613,-0.0006108652451075613
1782771633864928500,3.939928466796875,-0.0006108652451075613,-0.0006108652451075613,0
1782771633874868700,3.94986865234375,-0.0006108652451075613,0.0006108652451075613,0
1782771633884856600,3.959856689453125,0,0.0006108652451075613,-0.0012217304902151227
1782771633894888200,3.96988818359375,-0.0006108652451075613,0,0
1782771633904875800,3.979875732421875,-0.001832595793530345,0.0006108652451075613,0
1782771633914877000,3.989876953125,-0.0006108652451075613,0,-0.0006108652451075613
1782771633924865500,3.999865478515625,-0.0012217304902151227,0,-0.0006108652451075613
1782771633934897200,4.009897216796875,-0.0012217304902151227,0,0
1782771633944814300,4.019814453125,-0.0006108652451075613,0.0006108652451075613,0.0012217304902151227
1782771633955858700,4.030858642578125,-0.0006108652451075613,0.0006108652451075613,0
1782771633974875000,4.049875,0,0.0006108652451075613,0.0006108652451075613
1782771633984863000,4.059863037109375,-0.0006108652451075613,0.0006108652451075613,0
1782771633994894600,4.06989453125,-0.0012217304902151227,0,0
1782771634004852200,4.079852294921875,0,0.0012217304902151227,0
1782771634014883600,4.089883544921875,-0.0006108652451075613,0.0006108652451075613,-0.0006108652451075613
1782771634024871400,4.099871337890625,-0.0006108652451075613,0,0.0006108652451075613
1782771634034872800,4.109872802734375,0,0.0012217304902151227,0
1782771634044860400,4.1198603515625,0,0.0006108652451075613,0
1782771634054892500,4.129892578125,-0.0006108652451075613,0.0012217304902151227,0
1782771634064849700,4.139849609375,-0.0012217304902151227,0.0006108652451075613,-0.0006108652451075613
1782771634074881300,4.14988134765625,0,0.0006108652451075613,0.0006108652451075613
1782771634084869000,4.159869140625,-0.0006108652451075613,0.0006108652451075613,0
1782771634094870300,4.169870361328125,-0.0006108652451075613,0.0006108652451075613,0.0006108652451075613
1782771634104858000,4.179858154296875,0.0006108652451075613,0,0
1782771634114890000,4.189889892578125,0,0,0.0006108652451075613
1782771634124847000,4.19984716796875,-0.0006108652451075613,0,0
1782771634134879000,4.20987890625,-0.0006108652451075613,0.0006108652451075613,-0.0006108652451075613
1782771634144866600,4.219866455078125,0,0.0006108652451075613,-0.0006108652451075613
1782771634154897700,4.229897705078125,-0.0006108652451075613,0,0.0006108652451075613
1782771634164855600,4.23985546875,-0.0006108652451075613,0.0006108652451075613,0
1782771634174887200,4.24988720703125,-0.0006108652451075613,0.0006108652451075613,-0.0006108652451075613
1782771634184875300,4.259875244140625,0,0,-0.0006108652451075613
1782771634194876400,4.26987646484375,-0.0006108652451075613,0,0
1782771634204864300,4.2798642578125,0.0006108652451075613,-0.0006108652451075613,0
1782771634214895900,4.289895751953125,-0.0012217304902151227,0,0
1782771634224853000,4.29985302734375,0,0.0006108652451075613,0
1782771634234885000,4.309885009765625,-0.0006108652451075613,0.0006108652451075613,-0.0006108652451075613
1782771634244872700,4.319872802734375,0,0.0006108652451075613,0
1782771634254873900,4.329873779296875,0,0.0006108652451075613,0.0006108652451075613
1782771634264861700,4.33986181640625,-0.0006108652451075613,0,-0.0006108652451075613
1782771634274893600,4.3498935546875,-0.0006108652451075613,0.0006108652451075613,0
1782771634284851000,4.359850830078125,-0.0006108652451075613,0.0006108652451075613,0
1782771634294882600,4.369882568359375,-0.0006108652451075613,0.0006108652451075613,-0.0006108652451075613
1782771634304870400,4.379870361328125,-0.0006108652451075613,0.0006108652451075613,-0.0006108652451075613
1782771634315236600,4.390236572265625,-0.0006108652451075613,0,-0.0006108652451075613
1782771634325224700,4.400224609375,0,0.0006108652451075613,-0.0006108652451075613
1782771634335256300,4.41025634765625,-0.0012217304902151227,0.0006108652451075613,-0.0006108652451075613
1782771634345213400,4.42021337890625,-0.0006108652451075613,0,0
1782771634355245300,4.430245361328125,0,0.0006108652451075613,0.0006108652451075613
1782771634365233200,4.440233154296875,-0.0012217304902151227,0.0006108652451075613,-0.0012217304902151227
1782771634375234000,4.450234130859375,-0.0006108652451075613,0.0006108652451075613,-0.0006108652451075613
1782771634385222000,4.460221923828125,0,0,-0.0006108652451075613
1782771634395253800,4.470253662109375,-0.0006108652451075613,0.0006108652451075613,-0.0012217304902151227
1782771634405241600,4.48024169921875,0,0.0006108652451075613,0
1782771634415242800,4.49024267578125,0,0.001832595793530345,0
1782771634425230600,4.500230712890625,-0.0012217304902151227,0.0006108652451075613,0
1782771634435276000,4.510276123046875,0,0,0
1782771634445219600,4.520219482421875,0,0,0
1782771634455245600,4.53024560546875,-0.0006108652451075613,0.0006108652451075613,-0.0006108652451075613
1782771634465239000,4.540239013671875,-0.0012217304902151227,0.0012217304902151227,-0.0006108652451075613
1782771634475234800,4.55023486328125,-0.0012217304902151227,0.0006108652451075613,0
1782771634485228000,4.56022802734375,0,0.0006108652451075613,0
1782771634495254500,4.570254638671875,-0.0006108652451075613,0.0006108652451075613,-0.0012217304902151227
1782771634505217300,4.58021728515625,-0.0006108652451075613,0.0012217304902151227,0
1782771634515243500,4.590243408203125,-0.0012217304902151227,0.0006108652451075613,0
1782771634525236700,4.60023681640625,0,0.0006108652451075613,0
1782771634535238000,4.61023779296875,-0.0006108652451075613,0.0006108652451075613,-0.0012217304902151227
1782771634545225700,4.620225830078125,0,0,0
1782771634555256800,4.6302568359375,-0.0006108652451075613,0.0012217304902151227,0
1782771634565214700,4.640214599609375,-0.0006108652451075613,0,0
1782771634575246300,4.650246337890625,0.0006108652451075613,0.0006108652451075613,0.0006108652451075613
1782771634585234200,4.660234130859375,-0.0006108652451075613,0,0
1782771634595235600,4.670235595703125,-0.0006108652451075613,0,-0.0006108652451075613
1782771634605223200,4.68022314453125,0,0.0006108652451075613,0
1782771634615254800,4.6902548828125,0,0.0006108652451075613,0
1782771634625212400,4.70021240234375,-0.0006108652451075613,0.0006108652451075613,-0.0006108652451075613
1782771634635244000,4.710244140625,-0.0006108652451075613,0,0
1782771634645231900,4.72023193359375,-0.0006108652451075613,0.0006108652451075613,0.0006108652451075613
1782771634655263000,4.730262939453125,-0.0006108652451075613,0.0006108652451075613,0
1782771634665220900,4.740220947265625,0.0006108652451075613,-0.0006108652451075613,-0.0006108652451075613
1782771634675252700,4.750252685546875,-0.0006108652451075613,0.0006108652451075613,-0.0012217304902151227
1782771634685240300,4.760240234375,0.0006108652451075613,0,-0.0006108652451075613
1782771634695241500,4.770241455078125,-0.0006108652451075613,0,0
1782771634705229600,4.7802294921875,0,0,0
1782771634715260700,4.7902607421875,0,0.0006108652451075613,-0.0006108652451075613
1782771634725218600,4.800218505859375,0,0.0006108652451075613,0
1782771634735249700,4.810249755859375,-0.0006108652451075613,0.0006108652451075613,0
1782771634745197800,4.82019775390625,-0.0006108652451075613,0,-0.0006108652451075613
1782771634756340700,4.8313408203125,-0.0012217304902151227,0.0006108652451075613,-0.0006108652451075613
1782771634775319800,4.85031982421875,-0.001832595793530345,0,-0.0012217304902151227
1782771634785216000,4.860216064453125,0,0,0
1782771634795247600,4.87024755859375,0,0.0012217304902151227,0
1782771634805218000,4.880218017578125,-0.0006108652451075613,0.0012217304902151227,-0.0006108652451075613
1782771634815236400,4.890236328125,0.0006108652451075613,0,0
1782771634825223400,4.900223388671875,0.0006108652451075613,0.0012217304902151227,-0.0006108652451075613
1782771634835255600,4.910255615234375,0.0006108652451075613,0.0006108652451075613,0.0012217304902151227
1782771634845213000,4.920212890625,-0.0006108652451075613,0.0006108652451075613,0
1782771634855244500,4.93024462890625,-0.0006108652451075613,0.0006108652451075613,-0.0006108652451075613
1782771634865232600,4.940232666015625,0,0.0006108652451075613,0
1782771634875233500,4.950233642578125,0,0,-0.0012217304902151227
1782771634885221600,4.9602216796875,-0.0006108652451075613,-0.0006108652451075613,0
1782771634895253000,4.9702529296875,0,0.0012217304902151227,-0.0006108652451075613
1782771634905241300,4.980241455078125,0,-0.0006108652451075613,-0.0012217304902151227
1782771634915242200,4.9902421875,-0.0006108652451075613,0.0012217304902151227,0.0006108652451075613
1782771634925230600,5.000230712890625,0,0.0012217304902151227,-0.0006108652451075613
1782771634935262200,5.01026220703125,0,0.0006108652451075613,-0.0006108652451075613
1782771634945219600,5.020219482421875,-0.0006108652451075613,0.0012217304902151227,0
1782771634955251200,5.030251220703125,0,0,0
1782771634965239300,5.0402392578125,-0.0006108652451075613,0,-0.0012217304902151227
1782771634975209000,5.050208984375,0,0.0012217304902151227,0
1782771634985289000,5.0602890625,-0.0006108652451075613,0.0006108652451075613,0.0006108652451075613
1782771634995259600,5.070259765625,-0.0006108652451075613,0.0006108652451075613,-0.0012217304902151227
1782771635005217300,5.08021728515625,0.0006108652451075613,0.0012217304902151227,-0.0006108652451075613
1782771635015198000,5.090197998046875,-0.0006108652451075613,0,0
1782771635025236700,5.10023681640625,-0.0006108652451075613,0.0006108652451075613,0.0006108652451075613
1782771635035237600,5.110237548828125,0,0,-0.0006108652451075613
1782771635045226000,5.12022607421875,0,0.0012217304902151227,-0.0012217304902151227
1782771635055225900,5.130225830078125,0,0.0012217304902151227,0.0006108652451075613
1782771635065306400,5.140306396484375,0,0.0012217304902151227,-0.0006108652451075613
1782771635075246300,5.150246337890625,-0.0012217304902151227,0.0006108652451075613,-0.0006108652451075613
1782771635085234200,5.160234130859375,-0.0012217304902151227,0,-0.0006108652451075613
1782771635095234600,5.170234619140625,-0.0006108652451075613,0,-0.0006108652451075613
1782771635105284400,5.180284423828125,-0.0012217304902151227,0.001832595793530345,-0.0006108652451075613
1782771635115254800,5.1902548828125,-0.0006108652451075613,0.0006108652451075613,-0.0012217304902151227
1782771635125212400,5.20021240234375,-0.0006108652451075613,0.0012217304902151227,0
1782771635135243800,5.210243896484375,0.0006108652451075613,0.0012217304902151227,0
1782771635145232100,5.220232177734375,-0.0006108652451075613,0,0
1782771635155232000,5.23023193359375,0,0.0006108652451075613,-0.0006108652451075613
1782771635165312500,5.2403125,-0.001832595793530345,0.0006108652451075613,0.0006108652451075613
1782771635175252200,5.250252197265625,-0.0006108652451075613,0.0006108652451075613,-0.0012217304902151227
1782771635185240300,5.260240234375,-0.0006108652451075613,0,-0.0006108652451075613
1782771635195241200,5.2702412109375,-0.0012217304902151227,0,-0.0006108652451075613
1782771635205229300,5.280229248046875,-0.0006108652451075613,0.0006108652451075613,-0.0006108652451075613
1782771635215261000,5.290260986328125,0,0,0.0006108652451075613
1782771635225218600,5.300218505859375,0,0.0006108652451075613,0.0006108652451075613
1782771635235273000,5.31027294921875,-0.0006108652451075613,0.0006108652451075613,0.0006108652451075613
1782771635245238000,5.320238037109375,0,0,0
1782771635255239200,5.3302392578125,-0.0012217304902151227,0.0006108652451075613,0.0006108652451075613
1782771635265227000,5.34022705078125,-0.0012217304902151227,0,0
1782771635275258600,5.350258544921875,-0.0024434609804302454,0,-0.0012217304902151227
1782771635285216000,5.360216064453125,-0.0006108652451075613,-0.0006108652451075613,-0.0006108652451075613
1782771635295247400,5.370247314453125,-0.0006108652451075613,0.0006108652451075613,0
1782771635305235500,5.3802353515625,-0.0012217304902151227,0.0006108652451075613,0.0006108652451075613
1782771635315236600,5.390236572265625,-0.0006108652451075613,0,0
1782771635325224700,5.400224609375,0.0006108652451075613,0.0006108652451075613,-0.0006108652451075613
1782771635335256000,5.410256103515625,-0.0006108652451075613,0.0006108652451075613,0
1782771635345213400,5.42021337890625,0,0,-0.0012217304902151227
1782771635355245300,5.430245361328125,-0.0012217304902151227,0.0006108652451075613,-0.0006108652451075613
1782771635365233000,5.44023291015625,-0.0006108652451075613,0.0006108652451075613,0.0006108652451075613
1782771635375234000,5.450234130859375,0,0.0006108652451075613,0
1782771635385222000,5.460221923828125,-0.0006108652451075613,0.0006108652451075613,-0.0006108652451075613
1782771635395253800,5.470253662109375,-0.0006108652451075613,0.0006108652451075613,0
1782771635405241600,5.48024169921875,-0.0006108652451075613,0.0012217304902151227,-0.0006108652451075613
1782771635415242500,5.490242431640625,-0.0012217304902151227,0,-0.0012217304902151227
1782771635425230600,5.500230712890625,-0.0006108652451075613,0,0
1782771635435261700,5.51026171875,0,0.0012217304902151227,0.0006108652451075613
1782771635445219800,5.5202197265625,-0.0006108652451075613,0.0012217304902151227,-0.0012217304902151227
1782771635455251200,5.530251220703125,0,0.0006108652451075613,0
1782771635465239000,5.540239013671875,-0.0006108652451075613,0.0012217304902151227,0.0006108652451075613
1782771635475240200,5.550240234375,0.0012217304902151227,0.0006108652451075613,0
1782771635485228000,5.56022802734375,0.0006108652451075613,0.0006108652451075613,0
1782771635495260000,5.570260009765625,-0.0006108652451075613,-0.0006108652451075613,-0.0006108652451075613
1782771635505217300,5.58021728515625,0,0.0006108652451075613,0
1782771635515262500,5.590262451171875,-0.0012217304902151227,0,0
1782771635525236700,5.60023681640625,-0.0012217304902151227,0,0
1782771635535232500,5.610232421875,-0.0012217304902151227,0.0012217304902151227,-0.0012217304902151227
1782771635545225700,5.620225830078125,-0.001832595793530345,0,0
1782771635555252200,5.630252197265625,0,0.0006108652451075613,0
1782771635565214700,5.640214599609375,-0.0012217304902151227,0.0006108652451075613,0.0006108652451075613
1782771635575241000,5.650240966796875,0,0.0006108652451075613,0
1782771635585234200,5.660234130859375,-0.0006108652451075613,0,0.0006108652451075613
1782771635595230200,5.670230224609375,-0.0006108652451075613,0,0
1782771635605223200,5.68022314453125,0.0006108652451075613,0,-0.0006108652451075613
1782771635615254800,5.6902548828125,0,0,-0.0006108652451075613
1782771635625212400,5.70021240234375,-0.0006108652451075613,0,-0.0006108652451075613
1782771635635244000,5.710244140625,0,0.0006108652451075613,0.0006108652451075613
1782771635645231900,5.72023193359375,0,0,-0.0006108652451075613
1782771635655263500,5.730263427734375,-0.0006108652451075613,0.0006108652451075613,0.0006108652451075613
1782771635665220900,5.740220947265625,0,-0.0006108652451075613,-0.0006108652451075613
1782771635675252700,5.750252685546875,-0.0006108652451075613,0.0006108652451075613,-0.0006108652451075613
1782771635685240300,5.760240234375,-0.0012217304902151227,0,0
1782771635695241500,5.770241455078125,0.0006108652451075613,0.0012217304902151227,0.0012217304902151227
1782771635705229300,5.780229248046875,0,0.0012217304902151227,0.0006108652451075613
1782771635715261000,5.790260986328125,-0.0012217304902151227,0.0006108652451075613,0
1782771635725218600,5.800218505859375,0,0.0006108652451075613,0
1782771635735250200,5.810250244140625,0,0.0006108652451075613,-0.0006108652451075613
1782771635745238000,5.820238037109375,0,0.0012217304902151227,0.0006108652451075613
1782771635755239000,5.830239013671875,0,0.0006108652451075613,-0.0012217304902151227
1782771635765227000,5.84022705078125,-0.0012217304902151227,0.0006108652451075613,0
1782771635775258600,5.850258544921875,0,0,0.0006108652451075613
1782771635785216000,5.860216064453125,-0.0012217304902151227,0.0006108652451075613,-0.0006108652451075613
1782771635795247900,5.870247802734375,-0.0006108652451075613,0,0.0006108652451075613
1782771635805235500,5.8802353515625,-0.0006108652451075613,0,-0.0012217304902151227
1782771635815236600,5.890236572265625,0,0.0006108652451075613,0
1782771635825223400,5.900223388671875,-0.0012217304902151227,0.0006108652451075613,-0.0012217304902151227
1782771635835255800,5.910255859375,-0.0006108652451075613,-0.0006108652451075613,0
1782771635845213000,5.920212890625,-0.0006108652451075613,0.0006108652451075613,-0.0006108652451075613
1782771635855219200,5.93021923828125,-0.0006108652451075613,0.0012217304902151227,-0.0006108652451075613
1782771635865232600,5.940232666015625,-0.0006108652451075613,0,0
1782771635875233500,5.950233642578125,-0.0006108652451075613,0,0
1782771635885221600,5.9602216796875,-0.0006108652451075613,0.0006108652451075613,0
1782771635895253000,5.9702529296875,-0.0012217304902151227,0.0012217304902151227,-0.0006108652451075613
1782771635905241000,5.980240966796875,-0.0012217304902151227,0.0006108652451075613,0
1782771635915242200,5.9902421875,-0.0006108652451075613,0.0006108652451075613,0.0006108652451075613
1782771635925230600,6.000230712890625,-0.0006108652451075613,0.0006108652451075613,-0.0006108652451075613
1782771635935262200,6.01026220703125,0,0.0006108652451075613,0
1782771635945179400,6.020179443359375,0,0,-0.0006108652451075613
1782771635956288000,6.0312880859375,0,0.0006108652451075613,0
1782771635975209000,6.050208984375,0,0.0006108652451075613,0
1782771635985289200,6.060289306640625,-0.0006108652451075613,0.0012217304902151227,0
1782771635995259600,6.070259765625,-0.0006108652451075613,-0.0006108652451075613,-0.0006108652451075613
1782771636005217300,6.08021728515625,-0.0012217304902151227,0.0006108652451075613,-0.0006108652451075613
1782771636015248600,6.09024853515625,-0.0012217304902151227,0.0006108652451075613,0
1782771636025236700,6.10023681640625,0,0,-0.0006108652451075613
1782771636035238000,6.11023779296875,-0.0006108652451075613,-0.0006108652451075613,0
1782771636045226000,6.12022607421875,-0.0006108652451075613,0,0
1782771636055257300,6.13025732421875,-0.0006108652451075613,0,-0.0006108652451075613
1782771636065214700,6.140214599609375,0,0.0006108652451075613,0
1782771636075246600,6.15024658203125,-0.001832595793530345,0,-0.0006108652451075613
1782771636085234200,6.160234130859375,-0.0006108652451075613,0.0006108652451075613,0.0006108652451075613
1782771636095235300,6.1702353515625,-0.0006108652451075613,0.0006108652451075613,0
1782771636105223400,6.180223388671875,-0.0006108652451075613,0.0006108652451075613,-0.0006108652451075613
1782771636115254800,6.1902548828125,-0.0006108652451075613,0.0006108652451075613,-0.0006108652451075613
1782771636125212400,6.20021240234375,0,0,0
1782771636135243800,6.210243896484375,-0.0012217304902151227,0,-0.0006108652451075613
1782771636145231600,6.220231689453125,0.0006108652451075613,0.0006108652451075613,-0.0006108652451075613
1782771636155263500,6.230263427734375,0.0006108652451075613,0.0006108652451075613,0
1782771636165220900,6.240220947265625,-0.0006108652451075613,0,0
1782771636175252500,6.25025244140625,0,0,-0.0006108652451075613
1782771636185240300,6.260240234375,0.0006108652451075613,0.0006108652451075613,-0.0012217304902151227
1782771636195241700,6.27024169921875,0,0.0006108652451075613,-0.0006108652451075613
1782771636205229300,6.280229248046875,-0.0006108652451075613,0.0006108652451075613,-0.0006108652451075613
1782771636215261000,6.290260986328125,-0.0006108652451075613,0.0006108652451075613,0
1782771636225218600,6.300218505859375,-0.0012217304902151227,0.0012217304902151227,-0.0006108652451075613
1782771636235250000,6.31025,0,0.0006108652451075613,-0.0006108652451075613
1782771636245237800,6.32023779296875,-0.0006108652451075613,0.0006108652451075613,0
1782771636255239200,6.3302392578125,-0.0006108652451075613,0.0006108652451075613,0.0006108652451075613
1782771636265226800,6.340226806640625,-0.0006108652451075613,0.0006108652451075613,-0.0006108652451075613
1782771636275258600,6.350258544921875,-0.0006108652451075613,0.0006108652451075613,0.0006108652451075613
1782771636285216000,6.360216064453125,-0.0006108652451075613,0,0.0006108652451075613
1782771636295247400,6.370247314453125,-0.0006108652451075613,0,0
1782771636305235500,6.3802353515625,-0.0006108652451075613,0.0012217304902151227,-0.0006108652451075613
1782771636315236600,6.390236572265625,0,0.0006108652451075613,0.0006108652451075613
1782771636325224400,6.400224365234375,0,0.0012217304902151227,0
1782771636335255800,6.410255859375,0,0.0006108652451075613,-0.0006108652451075613
1782771636345213400,6.42021337890625,0,0.0006108652451075613,-0.0006108652451075613
1782771636355245300,6.430245361328125,0,-0.0006108652451075613,-0.0006108652451075613
1782771636365233000,6.44023291015625,-0.0006108652451075613,0.0006108652451075613,-0.0006108652451075613
1782771636375234300,6.450234375,-0.0006108652451075613,0,0.0006108652451075613
1782771636385222000,6.460221923828125,-0.0012217304902151227,0.0006108652451075613,0
1782771636395253800,6.470253662109375,0,0.0006108652451075613,-0.0006108652451075613
1782771636405241600,6.48024169921875,0,0,0.0006108652451075613
1782771636415242500,6.490242431640625,0,0.0012217304902151227,0
1782771636425230600,6.500230712890625,0,-0.0006108652451075613,0
1782771636435262200,6.51026220703125,-0.0006108652451075613,0.0006108652451075613,0
1782771636445219600,6.520219482421875,-0.0006108652451075613,0,0
1782771636455251500,6.53025146484375,0,-0.0012217304902151227,0
1782771636465239300,6.5402392578125,-0.0006108652451075613,0.0006108652451075613,0
1782771636475240400,6.550240478515625,-0.0012217304902151227,0.0006108652451075613,-0.0006108652451075613
1782771636485228000,6.56022802734375,0.0006108652451075613,0.0006108652451075613,0.0006108652451075613
1782771636495259600,6.570259765625,-0.0006108652451075613,0.0006108652451075613,0
1782771636505217000,6.580217041015625,-0.0006108652451075613,0,0.0006108652451075613
1782771636515248600,6.59024853515625,-0.001832595793530345,0.0006108652451075613,-0.0006108652451075613
1782771636525236700,6.60023681640625,-0.0006108652451075613,0,0
1782771636535238000,6.61023779296875,-0.0006108652451075613,0.0012217304902151227,-0.0006108652451075613
1782771636545225700,6.620225830078125,-0.0006108652451075613,0.0006108652451075613,-0.0006108652451075613
1782771636555257300,6.63025732421875,-0.0006108652451075613,0.0012217304902151227,0
1782771636565214700,6.640214599609375,0.0012217304902151227,0.0006108652451075613,-0.0006108652451075613
1782771636575215000,6.650215087890625,-0.0006108652451075613,0.0012217304902151227,0
1782771636585295400,6.66029541015625,0,0.0006108652451075613,0
1782771636595249200,6.670249267578125,-0.0006108652451075613,0,-0.0006108652451075613
1782771636605223200,6.68022314453125,0,0.0006108652451075613,0.0006108652451075613
1782771636615249700,6.690249755859375,-0.0006108652451075613,0,-0.0006108652451075613
1782771636625212400,6.70021240234375,-0.0012217304902151227,0.0006108652451075613,0
1782771636635239000,6.710239013671875,-0.0006108652451075613,0.0006108652451075613,0
1782771636645232000,6.720232177734375,-0.0006108652451075613,0.0012217304902151227,0
1782771636655201500,6.730201416015625,0,0.0006108652451075613,0
1782771636665272300,6.740272216796875,-0.0012217304902151227,-0.0006108652451075613,0.0006108652451075613
1782771636676167200,6.751167236328125,-0.0006108652451075613,0,-0.0006108652451075613
1782771636695210200,6.770210205078125,-0.0006108652451075613,0.0006108652451075613,0
1782771636705290500,6.78029052734375,-0.0006108652451075613,0.0006108652451075613,-0.0006108652451075613
1782771636715261000,6.790260986328125,0,0,0.0006108652451075613
1782771636725218600,6.800218505859375,-0.0006108652451075613,0.0006108652451075613,-0.0012217304902151227
1782771636735250200,6.810250244140625,-0.0006108652451075613,0.0006108652451075613,0.0006108652451075613
1782771636745238000,6.820238037109375,-0.0006108652451075613,0.0006108652451075613,-0.0006108652451075613
1782771636755239200,6.8302392578125,-0.0006108652451075613,0.0012217304902151227,-0.0006108652451075613
1782771636765227000,6.84022705078125,-0.0006108652451075613,0.0006108652451075613,0.0006108652451075613
1782771636775258400,6.85025830078125,-0.0006108652451075613,0.0006108652451075613,-0.0006108652451075613
1782771636785215700,6.8602158203125,0,0.0012217304902151227,0
1782771636795247600,6.87024755859375,0,-0.0006108652451075613,-0.0012217304902151227
1782771636805235500,6.8802353515625,-0.0006108652451075613,0.0006108652451075613,0
1782771636815236600,6.890236572265625,-0.0006108652451075613,0,0
1782771636825223700,6.9002236328125,-0.0006108652451075613,0.0012217304902151227,-0.0006108652451075613
1782771636835224800,6.910224853515625,-0.0006108652451075613,0.0006108652451075613,-0.0006108652451075613
1782771636845304300,6.92030419921875,0,0,0
1782771636855213800,6.9302138671875,-0.0006108652451075613,0.0006108652451075613,0
1782771636865254000,6.94025390625,-0.0006108652451075613,0.0006108652451075613,0
1782771636876373800,6.951373779296875,0,0,0
1782771636895253000,6.9702529296875,-0.0006108652451075613,0.0006108652451075613,0
1782771636905241000,6.980240966796875,0.0006108652451075613,0.0006108652451075613,0
1782771636915242000,6.990241943359375,-0.0012217304902151227,0.0006108652451075613,0.0006108652451075613
1782771636925230600,7.000230712890625,-0.0012217304902151227,0.0006108652451075613,-0.0012217304902151227
1782771636935262200,7.01026220703125,-0.0006108652451075613,0,0
1782771636945219800,7.0202197265625,0,0.0012217304902151227,0
1782771636955251200,7.030251220703125,0,0,0.0006108652451075613
1782771636965239000,7.040239013671875,-0.0006108652451075613,0.0006108652451075613,0.0012217304902151227
1782771636975240400,7.050240478515625,-0.0006108652451075613,0.0006108652451075613,0
1782771636985228000,7.06022802734375,0.0006108652451075613,0.0006108652451075613,-0.0006108652451075613
1782771636995260000,7.070260009765625,-0.0012217304902151227,0.0006108652451075613,0.0006108652451075613
1782771637005217300,7.08021728515625,-0.0006108652451075613,0,-0.0006108652451075613
1782771637015249000,7.090248779296875,0,0.0012217304902151227,-0.0012217304902151227
1782771637025236700,7.10023681640625,-0.0006108652451075613,0.0006108652451075613,0
1782771637035238000,7.11023779296875,-0.0006108652451075613,-0.0006108652451075613,0.0006108652451075613
1782771637045225700,7.120225830078125,-0.0012217304902151227,0.0006108652451075613,0.0006108652451075613
1782771637055257300,7.13025732421875,-0.0006108652451075613,0.0006108652451075613,-0.0006108652451075613
1782771637065214700,7.140214599609375,-0.0006108652451075613,0.0012217304902151227,0.0012217304902151227
1782771637075215000,7.150215087890625,0,0,0
1782771637085295400,7.16029541015625,-0.0006108652451075613,0.0012217304902151227,0.0006108652451075613
1782771637095235000,7.170235107421875,0.0006108652451075613,0.0006108652451075613,0
1782771637105183200,7.180183349609375,-0.0006108652451075613,0,0
1782771637116230700,7.191230712890625,-0.0012217304902151227,0,0.0012217304902151227
1782771637135243300,7.2102431640625,0,0.0006108652451075613,0
1782771637145232000,7.22023193359375,-0.0006108652451075613,0.0006108652451075613,0
1782771637155263500,7.230263427734375,-0.0012217304902151227,0.0012217304902151227,0
1782771637165220600,7.240220703125,0,0,0
1782771637175252700,7.250252685546875,-0.0006108652451075613,0.0006108652451075613,0
1782771637185240300,7.260240234375,-0.0006108652451075613,0.0006108652451075613,-0.0006108652451075613
1782771637195241500,7.270241455078125,-0.0012217304902151227,0.0006108652451075613,-0.0006108652451075613
1782771637205229300,7.280229248046875,-0.0012217304902151227,0.0006108652451075613,0
1782771637215261000,7.290260986328125,0,0,0.0006108652451075613
1782771637225218600,7.300218505859375,-0.0006108652451075613,0.0012217304902151227,0
1782771637235273000,7.31027294921875,-0.0006108652451075613,0.0006108652451075613,0
1782771637245238000,7.320238037109375,-0.0006108652451075613,0,-0.0006108652451075613
1782771637255238400,7.33023828125,-0.0012217304902151227,0,-0.0006108652451075613
1782771637265226800,7.340226806640625,0,0.0012217304902151227,0
1782771637275258400,7.35025830078125,-0.0006108652451075613,0.13988813757896423,0.07757988572120667
1782771637285216000,7.360216064453125,-0.0012217304902151227,-0.018325956538319588,-0.00855211354792118
1782771637295247400,7.370247314453125,-0.0006108652451075613,-0.0006108652451075613,-0.0012217304902151227
1782771637305235500,7.3802353515625,0.0006108652451075613,-0.00366519158706069,-0.00366519158706069
1782771637315236600,7.390236572265625,0.0006108652451075613,-0.00733038317412138,-0.005497787147760391
1782771637325224400,7.400224365234375,-0.0006108652451075613,-0.012217304669320583,-0.006719517521560192
1782771637335256300,7.41025634765625,-0.0006108652451075613,-0.03787364438176155,-0.021380282938480377
1782771637345213400,7.42021337890625,-0.0006108652451075613,-0.04214970022439957,-0.021991148591041565
1782771637355245000,7.4302451171875,-0.0006108652451075613,0.00427605677396059,0.001832595793530345
